timestamp,node_id,node_name,ax,ay,az,gx,gy,gz,qw,qx,qy,qz,roll,pitch,yaw,rep_number
1767372540.270273,1,left_wrist,0.8638,0.2479,0.2455,-1.05,-3.64,6.16,-0.2283516089238255,0.5299988263291799,0.3463311313815225,0.7396022811130226,53.72766310334435,-70.4153388677126,174.9799423232721,0
1767372540.270273,2,right_wrist,0.8662,-0.2738,-0.3601,-17.78,9.24,7.63,0.22573732571488175,0.66057993919798,-0.5087043943238666,0.5038815762695381,-151.2165081844127,-63.55667165654958,-93.26386739128088,0
1767372540.3422499,1,left_wrist,0.957,0.3045,0.2313,-2.38,10.08,18.48,-0.2405246114174397,0.5243166378119107,0.3360871222952547,0.7445034726872655,47.90044397142473,-70.45611926856084,-179.0218669210013,0
1767372540.3422499,2,right_wrist,0.873,-0.2113,-0.3924,-18.83,7.98,11.2,0.22864191021858427,0.6558128221069831,-0.5167867339226259,0.5005635732784162,-151.1221197577927,-63.236164686701535,-94.49152612183885,0
1767372540.3933618,1,left_wrist,0.996,0.3143,0.2025,6.37,12.25,11.83,-0.24501596669744166,0.5216069300623761,0.3375754809582702,0.7442688904085768,47.285632285738984,-70.36534552414122,-177.85921344600487,0
1767372540.3933618,2,right_wrist,0.8701,-0.2582,-0.3914,-5.74,4.9,18.41,0.22347193591098577,0.6483736419825956,-0.5250197083701913,0.5040101388516908,-148.58675010734015,-62.65143082823387,-97.42198289422477,0
1767372540.449546,1,left_wrist,1.0692,0.2669,0.2255,7.49,0.35,3.78,-0.24814829924591947,0.5241088980643275,0.33963873799486793,0.7405253622965301,47.84474344936309,-70.87279089891297,-177.98784864856492,0
1767372540.449546,2,right_wrist,0.8877,-0.2357,-0.3016,-8.19,6.93,19.39,0.2244241208055772,0.6400643997457136,-0.5303145809661395,0.5086431198723825,-146.55629098342803,-62.76781602013735,-100.05617502473457,0
1767372540.520231,1,left_wrist,1.0604,0.2484,0.2245,-1.96,-6.23,-8.05,-0.24551630366662974,0.5282978040088341,0.340602580423601,0.737979035692819,49.23125167886099,-71.26109935124482,-179.5554457830538,0
1767372540.520231,2,right_wrist,0.8857,-0.2547,-0.307,-1.47,2.87,5.81,0.2222552552292231,0.6306887698126372,-0.5347580672175637,0.516592766791165,-143.47545080034436,-62.788435427971834,-103.3607780455857,0
1767372540.575806,1,left_wrist,1.0126,0.2396,0.2084,3.36,-5.46,-15.61,-0.24204729147094545,0.5305165699237895,0.34463016064650615,0.7356597923637251,51.42801461522374,-71.33268365054774,178.29288147974924,0
1767372540.575806,2,right_wrist,0.8638,-0.1884,-0.3875,13.51,-3.08,4.27,0.219356440126279,0.6341178944021817,-0.5321522713253158,0.5163247120731074,-143.78940700370188,-62.65834279386211,-102.51849674569982,0
1767372540.651306,1,left_wrist,0.9784,0.183,0.1576,20.44,-8.82,-11.97,-0.2447688485310065,0.5325968159291531,0.3613929467169746,0.7251372149560075,56.93543390394223,-71.68204143961337,174.5278192764367,0
1767372540.651306,2,right_wrist,0.936,-0.2269,-0.3255,4.97,-2.17,4.13,0.21972680933410327,0.6339706794099127,-0.5300758959818594,0.5184793644952683,-143.46060495899582,-62.91665672586458,-102.63675765414905,0
1767372540.720118,1,left_wrist,0.9321,0.163,0.1649,3.29,-19.04,-15.4,-0.2407043514262396,0.5379346798146971,0.36484821428188624,0.7208144532349858,59.86078641371365,-72.01609589554502,171.52128901577206,0
1767372540.720118,2,right_wrist,0.8296,-0.2957,-0.4299,14.35,-9.8,1.61,0.207237503790558,0.640540938122512,-0.5303982813588538,0.5152063535549277,-143.74562355167933,-61.62528144263304,-101.34908196480006,0
1767372540.770525,1,left_wrist,0.9374,0.1781,0.1854,-3.01,-19.04,-12.81,-0.23589070145426985,0.5428327097389856,0.3654733851935411,0.7184131338721588,61.920123228757,-72.24700132583126,169.0636422355458,0
1767372540.770525,2,right_wrist,0.8628,-0.223,-0.388,9.87,-7.84,-4.62,0.2067275346164067,0.6465322370027466,-0.5261949943512414,0.5122290706972256,-145.1153043605544,-61.63068890749918,-99.51182572660962,0
1767372540.8231528,1,left_wrist,0.9589,0.1571,0.2391,-8.82,-18.55,-6.86,-0.23110045664493653,0.5480402802023683,0.3631916724481747,0.7171723916036571,63.14988438243995,-72.54374112047617,167.1706168402025,0
1767372540.8231528,2,right_wrist,0.9384,-0.2962,-0.2904,8.26,-2.45,-3.08,0.20547466756938382,0.6469458354174231,-0.5225280539344416,0.5159512378847337,-144.4961811065257,-61.92320626770343,-99.59901514200135,0
1767372540.892475,1,left_wrist,1.0209,0.1884,0.2362,-18.97,-9.17,21.07,-0.23342008876576795,0.5603558176014704,0.3435531183393949,0.7165805430794547,59.49795403846812,-74.46447035521798,169.1329276286096,0
1767372540.892475,2,right_wrist,0.9096,-0.3245,-0.3475,7.56,-1.26,-3.57,0.20280558313678523,0.6464896224857984,-0.5199548780438448,0.5201615020982703,-143.4974983334087,-62.06229812547286,-100.06035729398424,0
1767372540.946347,1,left_wrist,0.9872,0.2259,0.1981,-18.41,-6.37,20.23,-0.23536595166511945,0.565228018048212,0.33166616455519404,0.7177170136615891,56.11765046268453,-75.34649923437328,171.57099601335517,0
1767372540.946347,2,right_wrist,0.8394,-0.3099,-0.3924,2.59,2.94,-6.72,0.2005627130476729,0.6472733943290112,-0.5197327156738341,0.5202784402481607,-143.36877516711584,-61.88491074436907,-99.97442130421989,0
1767372540.9999099,1,left_wrist,0.9531,0.2513,0.141,-7.07,-1.82,14.35,-0.23475734551926095,0.5666351429954125,0.32932149381549947,0.7178864514381411,55.722097121505676,-75.50755879522153,171.69385464856268,0
1767372540.9999099,2,right_wrist,0.853,-0.3299,-0.3777,-4.13,6.93,-5.74,0.2006258555292874,0.6450723255036787,-0.5207449903940184,0.5219728114968738,-142.75481929284268,-61.92962044307379,-100.68704141730241,0
1767372541.06631,1,left_wrist,0.9023,0.2118,0.1132,-2.94,-6.93,8.33,-0.23322952179459225,0.5710688737934504,0.3300570056053137,0.714525510110451,57.67852798086569,-75.9406550977613,169.6429810721175,0
1767372541.06631,2,right_wrist,0.9008,-0.2991,-0.3333,-0.56,0.07,-1.26,0.20070483687355517,0.6425851312728926,-0.5168367145291899,0.5288494379662623,-141.27617482096932,-62.51414832967585,-101.70145829705028,0
1767372541.122499,1,left_wrist,0.9004,0.2225,0.1279,-3.5,-8.26,2.45,-0.229123302464812,0.5719067728706492,0.3319410647476837,0.7143110561558403,59.397213002254176,-75.73106949853087,167.73765533099106,0
1767372541.122499,2,right_wrist,0.8886,-0.2723,-0.3465,3.22,-3.57,-0.35,0.2025777522990418,0.643924086750857,-0.5138252556891942,0.5294408667561251,-141.60088926601162,-62.87558222871048,-101.21177335687477,0
1767372541.1932192,1,left_wrist,0.9853,0.2128,0.1913,-12.11,-9.66,8.68,-0.2292548147393325,0.5756723759098963,0.3223943486565206,0.7156154201017663,56.77846261357048,-76.34649003217676,169.48671113956922,0
1767372541.1932192,2,right_wrist,0.9106,-0.2655,-0.3167,-3.92,-2.45,-4.48,0.20654325508668578,0.6442951321634417,-0.5116971509099135,0.529518358699079,-142.07455399310797,-63.34287807871583,-100.84923209481259,0
1767372541.243264,1,left_wrist,1.1732,0.2469,0.2211,-4.34,8.05,12.39,-0.23359073839894787,0.5728454027575245,0.3161006890945191,0.7192801024828742,52.445175333585496,-76.34843566561776,173.6462219499491,0
1767372541.243264,2,right_wrist,0.8657,-0.3245,-0.3509,7.84,-5.04,1.4,0.1990100945469081,0.6441311334783458,-0.5129929965653532,0.53134569785332,-140.96262480768456,-62.7096143831886,-101.44515053309338,0
1767372541.3263512,1,left_wrist,1.4206,0.1815,0.2879,-22.75,-9.8,7.91,-0.23148613577610871,0.5786322089584106,0.3048827113161538,0.72017044374222,49.848854853082706,-77.05354667356369,175.0296333749856,0
1767372541.3263512,2,right_wrist,0.9428,-0.2542,-0.2884,-7.84,12.95,-12.18,0.20936216707700772,0.6412515159997437,-0.5053505998565451,0.5381307902819532,-140.42416781654202,-64.38998198691095,-102.00806209932513,0
1767372541.398293,1,left_wrist,0.794,0.2694,0.0098,10.85,-3.08,-37.8,-0.19786029688078455,0.5819980487990888,0.3220435834985577,0.7200121557582959,63.747717745257624,-74.91275895865435,159.78678506578166,0
1767372541.398293,2,right_wrist,0.854,-0.2235,-0.3753,2.59,-0.49,-10.36,0.21148468141941582,0.6461327345944857,-0.5021849217550328,0.5344127835037926,-142.17645112865733,-64.55685283164578,-100.13159364642904,0
1767372541.469428,1,left_wrist,0.7945,0.2181,0.0063,69.02,1.47,-35.14,-0.2031305235488029,0.5722793914376296,0.3541505004375399,0.7112044091387549,70.8588881669566,-73.31402481693857,156.08150910252263,0
1767372541.469428,2,right_wrist,0.9257,-0.2606,-0.3035,5.88,-6.65,-3.78,0.20764204323037366,0.6543737668006335,-0.49552694930005503,0.5321022436746969,-143.6653232145753,-64.4450462101411,-97.64116609175296,0
1767372541.5284421,1,left_wrist,0.8023,0.0849,0.0278,68.04,-11.06,-18.62,-0.21519860899726376,0.5693247429789777,0.3784156693918291,0.6973954953082919,76.98882630570806,-73.1285014145672,153.22891439561914,0
1767372541.5284421,2,right_wrist,1.0502,-0.2538,-0.202,-3.92,2.87,0.77,0.2108122693500572,0.6518894598360739,-0.4948690008717737,0.5345119186905779,-143.1958559263906,-64.89533881549929,-98.29320184102235,0
1767372541.5925078,1,left_wrist,0.915,0.1708,0.182,-47.53,-34.44,7.07,-0.20376297968172633,0.5918199248521266,0.36637593677756425,0.6884754880238002,83.27744393661176,-74.62576611971708,144.73112149792925,0
1767372541.5925078,2,right_wrist,0.977,-0.2133,-0.2494,3.85,-0.98,-11.76,0.21461433748589956,0.6541474923410819,-0.4887214190123129,0.5358946902218326,-143.919727805537,-65.62746540776683,-97.24793325022792,0
1767372541.6443799,1,left_wrist,0.9282,0.2333,0.1981,-74.06,-29.54,7.28,-0.18284357849653368,0.6062122452496157,0.34306564161451225,0.6938161896753524,83.35680948993247,-75.16215247078127,140.69346940983917,0
1767372541.6443799,2,right_wrist,0.8823,-0.2303,-0.3333,6.79,-5.18,-13.72,0.21499728996856243,0.6610405101838089,-0.4841084703291394,0.5314514071462079,-146.09412884658417,-65.61417525447273,-94.66832649843883,0
1767372541.695657,1,left_wrist,0.8838,0.3392,0.1376,-39.9,-5.32,8.89,-0.17283121724049705,0.6095323702746003,0.329626681279892,0.6999613638787503,81.01857107300171,-75.29323389999163,140.96543809482097,0
1767372541.695657,2,right_wrist,0.8564,-0.2879,-0.3323,10.71,-6.02,-7.28,0.20844890664159826,0.663386550892158,-0.48247218899710215,0.5326236234525021,-145.52483313977993,-65.20475658879377,-94.50421502342924,0
1767372541.747614,1,left_wrist,0.9916,0.2821,0.0971,9.59,4.62,8.05,-0.1781055108841016,0.6059217179020054,0.32982796048342083,0.7016771445976724,78.97159476514142,-75.4232087384548,143.4854718665331,0
1767372541.747614,2,right_wrist,0.8862,-0.2879,-0.3123,2.24,-2.8,-4.76,0.20588796390648387,0.6629248270620883,-0.48196577089646625,0.5346492454566055,-144.79313840396026,-65.13845835258036,-94.95061989400396,0
1767372541.819624,1,left_wrist,0.9921,0.2162,0.0605,6.44,2.03,0.7,-0.18359451936046275,0.6055278919076273,0.3280651967564302,0.701428721439228,77.80328301364057,-75.91393915846932,144.95635422304446,0
1767372541.819624,2,right_wrist,0.937,-0.245,-0.3026,-2.03,-3.15,-1.33,0.20383366164304542,0.6663222116730101,-0.4796297345509311,0.5333121659469061,-145.4182421964681,-64.99146930542253,-93.92437302288334,0
1767372541.873364,1,left_wrist,0.9789,0.225,0.0473,-8.33,1.12,-1.47,-0.18393123552015891,0.6081056126936093,0.32335524991852016,0.7012975450981483,77.41824043329494,-76.37935442189072,144.93629868442756,0
1767372541.873364,2,right_wrist,0.8974,-0.2826,-0.3089,-3.43,-1.4,-3.36,0.20368883897386264,0.6647138760800607,-0.48013233269964345,0.5349198658869387,-144.83491848227638,-65.05764327237387,-94.53352036521869,0
1767372541.941055,1,left_wrist,0.9999,0.2259,0.0342,4.9,-0.35,2.94,-0.18710715895846716,0.6128063854231126,0.3253612270138848,0.695413054958828,80.53347743684344,-76.92175375053564,142.25002875841272,0
1767372541.941055,2,right_wrist,0.9087,-0.2757,-0.2987,-1.54,-3.15,-1.47,0.20311146690430237,0.663401896169728,-0.4802613329657789,0.5366495208498048,-144.23610219949512,-65.11058565599332,-95.08285085236889,0
1767372541.991286,1,left_wrist,0.9916,0.2279,0.0522,-2.45,-2.8,-0.91,-0.18630020454818205,0.6114232477862095,0.3239978767336574,0.6974806246226133,79.29487033325506,-76.81370073454352,143.3034415012827,0
1767372541.991286,2,right_wrist,0.8945,-0.2338,-0.3314,-1.19,-2.45,-1.68,0.20708417590868625,0.6646377224006649,-0.47765695472903047,0.5359259982957219,-145.13873653019536,-65.53627847559477,-94.25778311787084,0
1767372542.041319,1,left_wrist,0.9936,0.2137,0.0703,-1.33,-5.95,-2.24,-0.18619104698632025,0.6115303586777586,0.3224305377962163,0.6981418643327676,78.77873841105782,-76.89021570034569,143.66941188948974,0
1767372542.041319,2,right_wrist,0.9223,-0.2035,-0.2943,-0.91,-0.7,-2.52,0.2105999180290146,0.6646259014746984,-0.4749993816050917,0.5369317210687942,-145.4873915380449,-66.03406499639793,-93.93008783251109,0
1767372542.0978718,1,left_wrist,0.9648,0.2001,0.0483,-9.24,-9.52,-1.4,-0.18531146451630234,0.615838346923015,0.31734756726393604,0.6969170059121912,79.39943263250031,-77.41996574681104,142.5046346722643,0
1767372542.0978718,2,right_wrist,0.9282,-0.1889,-0.3216,0.77,-0.42,-0.7,0.21434565331061445,0.6657903571602373,-0.4720286392098955,0.5366265973514022,-146.3413187925954,-66.47933570769531,-93.09662420879738,0
1767372542.170421,1,left_wrist,0.9482,0.2064,0.0386,-2.73,-7.0,0.63,-0.18684274899538267,0.6204662476484939,0.3141467640773526,0.6938466929348116,80.90587192603014,-78.07224952708175,140.8257977011678,0
1767372542.170421,2,right_wrist,0.9228,-0.2211,-0.2879,-2.87,-3.5,0.07,0.21966002080127597,0.6658594787196106,-0.4694798195822979,0.5366277376970039,-147.16933985401405,-67.05642873607948,-92.46430362519806,0
1767372542.2488089,1,left_wrist,0.9331,0.1996,0.0854,-9.45,-5.32,6.16,-0.18536805997061345,0.6218560135094029,0.3065582163968226,0.6963877086541114,78.87253168943612,-78.45218138001832,142.055390849698,0
1767372542.2488089,2,right_wrist,0.9184,-0.2074,-0.3309,0.14,-2.66,-0.84,0.22014343893710506,0.6689747450330997,-0.4693457517980972,0.5326576969029201,-148.5261927092494,-66.82627079203937,-91.1676766745167,0
1767372542.3153138,1,left_wrist,0.9589,0.2338,0.0947,-4.97,-1.89,7.14,-0.1849898585531034,0.6210658842019067,0.30370881618210605,0.6984388840022226,77.22928411771703,-78.49842619626627,143.41647061859052,0
1767372542.3153138,2,right_wrist,0.9116,-0.2089,-0.3065,0.49,-4.13,-0.56,0.21875745734013263,0.6673298922186451,-0.4674442400490245,0.5369468057959944,-147.3420733583947,-67.09554326373888,-92.00725466393797,0
1767372542.368381,1,left_wrist,0.9633,0.2167,0.083,-3.78,1.68,7.77,-0.1857663059448251,0.6191613064000904,0.3006055756797489,0.7012606106882046,74.65985251244459,-78.5423059391919,145.78227452759256,0
1767372542.368381,2,right_wrist,0.9321,-0.2396,-0.3104,-0.21,-4.2,0.21,0.2162798487076811,0.665872805333384,-0.46860120922501014,0.5387479381615211,-146.36011448507662,-66.95141561523299,-92.88024002956843,0
1767372542.421398,1,left_wrist,1.0077,0.2186,0.0639,-1.61,2.66,6.51,-0.1852158734945908,0.6167531484574749,0.3002693804436823,0.7036681982592328,73.11863758950308,-78.29594736492322,147.25573816779377,0
1767372542.421398,2,right_wrist,0.9126,-0.2381,-0.3226,0.77,-2.8,-0.21,0.21195153651168225,0.6647403676800407,-0.4707910718129935,0.5399560689983157,-145.28002216801133,-66.55335122493872,-93.80339540718236,0
1767372542.5017521,1,left_wrist,0.955,0.2425,0.0029,-0.14,-5.18,-3.64,-0.17828848072716547,0.6207619089535035,0.30535540148378487,0.6997327695749842,78.25519179057912,-77.85480927208164,141.97629363082996,0
1767372542.5017521,2,right_wrist,0.9145,-0.2133,-0.3382,0.07,-3.5,1.05,0.21228275156470414,0.6677250862132829,-0.4710163086630705,0.5359317863338555,-146.5762807308964,-66.30354666370067,-92.5896540057304,0
1767372542.5772212,1,left_wrist,0.9145,0.245,0.0049,9.17,1.19,-5.67,-0.1763467321828914,0.6193899173880668,0.3127137545195075,0.6981891348486686,80.34265303696415,-77.21173716778908,140.38529862873884,0
1767372542.5772212,2,right_wrist,0.9121,-0.2674,-0.3118,-4.62,-3.5,5.88,0.20919105836143487,0.6648514922891171,-0.47483975483208535,0.5373442114078851,-145.2794968989677,-65.94753951822065,-93.9989203697424,0
1767372542.642741,1,left_wrist,0.8945,0.2567,-0.0015,7.42,-2.8,-2.24,-0.17158360345670712,0.6201621632470651,0.32567760388178096,0.6927424172312201,85.52309068866212,-76.16470261480035,135.9651668132363,0
1767372542.642741,2,right_wrist,0.9126,-0.2621,-0.3396,-1.68,-3.78,9.87,0.2026768834430891,0.6620054891279225,-0.4808745707002838,0.5379874167079697,-143.69400938498833,-65.1247173700537,-95.64022791552662,0
1767372542.7241678,1,left_wrist,0.8906,0.2689,0.0142,16.24,-4.41,-5.81,-0.17014161760311355,0.6179674652879548,0.33572463739670744,0.6902586541651077,87.55514546933875,-75.31999445837435,134.72593839396333,0
1767372542.7241678,2,right_wrist,0.8237,-0.2713,-0.3387,-10.85,-8.54,13.86,0.19902355630638852,0.6574317873274351,-0.49421204130970375,0.5328485031142601,-143.0991187635032,-63.81095422914088,-97.33510051303136,0
1767372542.795417,1,left_wrist,0.9126,0.2401,0.0786,19.88,0.84,-10.5,-0.1732311439289804,0.6069192466339527,0.3535055336443187,0.6904156983449736,87.24602794032118,-73.84849663431794,136.94969419645818,0
1767372542.795417,2,right_wrist,0.9335,-0.2172,-0.345,-8.61,-7.49,14.35,0.20048330020797178,0.6563491089011395,-0.4984397209088517,0.5296887182135434,-143.54072061277037,-63.53144605943416,-97.48031880115887,0
1767372542.845557,1,left_wrist,0.9628,0.2655,0.1015,18.27,8.26,-9.24,-0.1774862947841719,0.599623468151276,0.35929974791798847,0.6927149505764199,85.44286323185227,-73.39103153864166,139.66925138527415,0
1767372542.845557,2,right_wrist,0.8901,-0.2128,-0.3719,-7.42,-1.33,14.35,0.2018855759951213,0.6551975765549862,-0.5029813462319852,0.5262776028145703,-143.99938436514415,-63.21718059237181,-97.64113636193535,0
1767372542.926264,1,left_wrist,0.9994,0.242,0.1152,15.47,4.62,-12.95,-0.18014566483549976,0.5936731626636104,0.36470867633232545,0.6943250656442451,84.32358107838822,-72.90246987002149,141.5354893559169,0
1767372542.926264,2,right_wrist,0.8584,-0.2264,-0.4021,2.73,-2.59,10.15,0.20026979361343783,0.6549974436229511,-0.5097877140434365,0.5205639684263571,-144.6094728348818,-62.39044412156479,-97.65579475640331,0
1767372542.993411,1,left_wrist,1.0004,0.2006,0.122,9.87,13.65,-11.06,-0.1853127364188884,0.580217211649985,0.37043686488648697,0.701272918455526,80.26381655328998,-72.0033482326991,146.62647996509276,0
1767372542.993411,2,right_wrist,0.8662,-0.2333,-0.3304,2.73,-3.85,8.68,0.19958866256303182,0.6537134164471198,-0.5097867799422862,0.5224371483053345,-144.0337209707082,-62.4420884942422,-98.15742513113211,0
1767372543.043597,1,left_wrist,0.9872,0.203,0.0883,6.65,16.94,-6.72,-0.1909030648071182,0.5742078267503563,0.369486504277491,0.7052099791570461,77.39120724671162,-71.97959255868861,149.91597370328435,0
1767372543.043597,2,right_wrist,0.9223,-0.3187,-0.3606,-3.99,-3.5,11.2,0.1957842331791545,0.6493319916683171,-0.5146106169587518,0.5246069114564159,-142.54518754191972,-61.98118657648483,-99.81425097457958,0
1767372543.116988,1,left_wrist,1.018,0.2269,0.0708,4.13,15.54,-2.94,-0.19683043715291043,0.5705484381517412,0.3671088635781056,0.7077876383599778,74.93697297118156,-72.20773614686301,152.67247553158433,0
1767372543.116988,2,right_wrist,0.8325,-0.3372,-0.3494,3.64,1.4,7.14,0.18758170733090762,0.6451230562642623,-0.5211256485973714,0.5263624262094022,-140.7710814450837,-61.002912712158455,-101.57383316164474,0
1767372543.1678662,1,left_wrist,1.0385,0.2181,0.0869,1.12,5.88,-3.5,-0.20025343951957222,0.569967382402028,0.36468206206757275,0.7085497417715318,73.71451026592645,-72.50785319430238,153.963669767917,0
1767372543.1678662,2,right_wrist,0.9048,-0.345,-0.3392,6.23,-1.89,8.33,0.1829971882431715,0.642059451395826,-0.5217856405985305,0.5310474886802172,-139.13933019392047,-60.79725798580422,-102.85414324653327,0
1767372543.219255,1,left_wrist,1.0912,0.2206,0.0869,0.42,3.71,1.68,-0.20465193956089023,0.5712222707734625,0.36109937798628405,0.7081171797268396,72.66941070290385,-73.0941667569346,155.04267162899473,0
1767372543.219255,2,right_wrist,0.8525,-0.3616,-0.365,4.97,3.22,2.87,0.177827321872016,0.6391805241543712,-0.5232635943569072,0.5348092294998843,-137.6569278531696,-60.43313227125917,-104.03323570339477,0
1767372543.273534,1,left_wrist,0.9609,0.2625,0.0634,-4.34,-2.38,0.63,-0.204198158774049,0.5752838504386584,0.3597242141821434,0.7056557893965011,73.78916822838272,-73.49900522508942,153.7329727635531,0
1767372543.273534,2,right_wrist,0.8052,-0.2689,-0.3309,5.25,-1.26,3.01,0.1793265898082901,0.640899208770813,-0.5207364350000143,0.5347183778851733,-138.04923423277643,-60.71120351771929,-103.49712161461788,0
1767372543.348659,1,left_wrist,1.0326,0.2372,0.0991,10.43,2.24,8.26,-0.22075321372374201,0.5755543800831796,0.35750607367973486,0.7015658069488611,71.7011129873884,-74.88837929105487,157.01937848502092,0
1767372543.348659,2,right_wrist,0.8926,-0.3148,-0.3255,2.8,-0.07,0.42,0.18054384326560094,0.6400853718351659,-0.5182988352449679,0.5376438921862994,-137.55671818566438,-61.095587866887804,-103.81149566488232,0
1767372543.4163861,1,left_wrist,1.0097,0.2279,0.1098,-1.82,-6.16,4.2,-0.223255786606956,0.57785746963227,0.35341737220095687,0.7009520379906672,70.8711733845389,-75.44473600675879,157.67436882737493,0
1767372543.4163861,2,right_wrist,0.8779,-0.3128,-0.3338,2.1,-1.05,1.33,0.1854068871095233,0.6379662678219973,-0.5147180527563985,0.5419304877014112,-136.9420377945837,-61.924876476164236,-104.42589679490492,0
1767372543.469572,1,left_wrist,0.915,0.2435,0.0976,-3.71,-4.06,1.26,-0.22086949318317214,0.5767496966089662,0.3529902643674623,0.7028330724320414,70.49446041659088,-75.1605069119843,157.81553943854283,0
1767372543.469572,2,right_wrist,0.8823,-0.3577,-0.3211,1.82,-3.01,-1.68,0.1826288465877798,0.6368062672077373,-0.5146653283001111,0.5442830902064695,-136.1275368958144,-61.78639711538153,-104.98615823389595,0
1767372543.523319,1,left_wrist,0.9292,0.2547,0.1069,6.51,-1.89,1.54,-0.22155384325917063,0.5740357799426632,0.35533904594990295,0.7036554414670023,70.20575828789305,-74.86213547460511,158.39373377716646,0
1767372543.523319,2,right_wrist,0.8594,-0.3089,-0.3597,-1.05,0.7,-3.08,0.18389903844599306,0.6392940575902232,-0.5146925417572035,0.5409028000001266,-137.18706783353616,-61.75049393909927,-104.05788901682307,0
1767372543.576565,1,left_wrist,0.9526,0.2489,0.1132,6.72,0.21,2.52,-0.22421307277494196,0.5711945291838417,0.3559296161595082,0.7048258055490115,69.03548501594173,-74.75133106640399,159.8623560618249,0
1767372543.576565,2,right_wrist,0.854,-0.3172,-0.3148,-2.45,2.17,-1.33,0.1856693012443213,0.6369787457287168,-0.5138188919242642,0.5438521254597041,-136.48478794190365,-62.08526712651883,-104.79762580489643,0
1767372543.6414132,1,left_wrist,0.9618,0.2469,0.1191,-3.29,-3.57,-5.81,-0.22332245931456693,0.5663323193306934,0.3560417660114606,0.7089633587870754,67.37062657829263,-74.1630021448974,161.4937763312061,0
1767372543.6414132,2,right_wrist,0.8896,-0.3016,-0.3006,4.06,-1.4,-1.75,0.18703817452903299,0.6372629967419537,-0.5103989556605567,0.5462650458458098,-136.22756790287835,-62.51816465429913,-104.79297606137769,0
1767372543.717393,1,left_wrist,0.9555,0.2445,0.1366,1.47,0.91,-6.09,-0.2230216486723214,0.5629809709814444,0.3561533836164549,0.7116660297322193,66.27721232915339,-73.77435059274215,162.5950522396076,0
1767372543.717393,2,right_wrist,0.8804,-0.3138,-0.346,2.59,-0.84,-2.94,0.18784433960039779,0.6417169591933134,-0.506858864144937,0.5440661174907717,-137.38377419428053,-62.70959732487012,-103.34491222019686,0
1767372543.775537,1,left_wrist,0.9536,0.2313,0.1225,3.5,2.59,-2.66,-0.22643129481924698,0.5616991389749859,0.35427141164318393,0.7125410254108773,64.78155954825756,-73.92573785692251,164.21829209658063,0
1767372543.775537,2,right_wrist,0.8638,-0.2982,-0.3387,6.51,-0.28,-3.71,0.18676936969079763,0.6451324481189745,-0.5050557711053939,0.5420701015574063,-138.17302643764612,-62.63195621447266,-102.28872581821041,0
1767372543.825579,1,left_wrist,0.9428,0.2323,0.1118,2.87,2.8,-1.68,-0.22974704006324023,0.5629449242786497,0.3528421890446513,0.7112044006059466,64.27344577567072,-74.33708916590903,164.86989520034072,0
1767372543.825579,2,right_wrist,0.8833,-0.3084,-0.3226,0.84,-0.91,-1.75,0.1871793339584827,0.6439343882097122,-0.5034679932102971,0.5448232561415112,-137.5545615954224,-62.89065180591113,-102.75711028122946,0
1767372543.8967512,1,left_wrist,0.9389,0.2381,0.1132,-2.03,1.26,-0.84,-0.22966535220382858,0.561590880808298,0.35248928267169427,0.7124751323321018,63.70345812970614,-74.18532523526206,165.4103839418578,0
1767372543.8967512,2,right_wrist,0.8799,-0.3475,-0.3118,4.2,-2.24,-0.84,0.18332647647591427,0.6425955677279669,-0.5033515633957538,0.547813419866973,-136.47592017873595,-62.697883325856104,-103.4803977026214,0
1767372543.968249,1,left_wrist,0.9784,0.2547,0.121,0.91,2.38,1.05,-0.22740735023446565,0.5600329355334047,0.3557414928642122,0.7128092300411929,64.64545348825848,-73.77866897270053,164.5840311289229,0
1767372543.968249,2,right_wrist,0.9038,-0.2889,-0.3318,2.87,-0.49,-2.45,0.18862112422983193,0.6466179795659694,-0.4961101183785644,0.5478886843499365,-137.6236884951177,-63.59887694160465,-102.02187104900551,0
1767372544.042721,1,left_wrist,0.9711,0.2655,0.1196,-1.75,-0.77,0.0,-0.2226454329083738,0.5599041350836218,0.3591228585101806,0.7127181372862493,66.3349836844357,-73.33978338831288,162.79921817368486,0
1767372544.042721,2,right_wrist,0.8818,-0.3104,-0.3372,2.31,-1.33,-1.05,0.18459876663240146,0.647374478545105,-0.49787678644042743,0.5467616349104997,-137.55395384799897,-63.09194795204746,-101.94391487095632,0
1767372544.12252,1,left_wrist,0.9633,0.2674,0.1157,1.12,-1.26,-2.52,-0.2187290866751151,0.5578775066785436,0.36341034770790387,0.7133464749777781,67.54637323518754,-72.7262097352557,161.66313945346667,0
1767372544.12252,2,right_wrist,0.8916,-0.307,-0.3201,-0.91,-1.54,-1.61,0.18299429212750748,0.6463052005741122,-0.49655375195170776,0.5497609009217471,-136.71667365234475,-63.17127533594329,-102.48969521322685,0
1767372544.198772,1,left_wrist,0.9682,0.2655,0.1157,-1.12,-1.12,-0.91,-0.22413063029387217,0.5597792742859388,0.3578992565899824,0.712966161031726,65.70344512653617,-73.46372598914058,163.446044333823,0
1767372544.198772,2,right_wrist,0.9028,-0.3055,-0.3113,2.1,-2.66,-1.26,0.18403339964131846,0.6462382878930503,-0.4940682329423965,0.5517285240720254,-136.46486597238115,-63.501533896066626,-102.55865351400288,0
1767372544.2761369,1,left_wrist,0.9794,0.2455,0.1186,0.84,-3.78,-3.15,-0.2259081385274253,0.5624621978825772,0.35619686595876326,0.7111438543510934,65.79075963627434,-73.92883853989966,163.33503130037727,0
1767372544.2761369,2,right_wrist,0.9062,-0.3187,-0.3016,-0.07,-2.03,-1.82,0.18690014551342918,0.6468412723231708,-0.4905671388403059,0.5531804283562795,-136.58819622843183,-64.02876354311122,-102.30524487952502,0
1767372544.3428202,1,left_wrist,0.9457,0.243,0.1098,-1.05,-3.57,0.14,-0.2236906607654212,0.5650897132398343,0.3571074457657698,0.7093027396362565,67.27394427798869,-74.02930800037825,161.72784307451877,0
1767372544.3428202,2,right_wrist,0.8857,-0.307,-0.3294,0.63,-0.91,-2.1,0.18443293242454056,0.6482540119742298,-0.49210077048855855,0.5509882585692429,-136.97260452156328,-63.62167151214784,-101.88506733128528,0
1767372544.416425,1,left_wrist,0.9501,0.246,0.1118,1.33,-3.36,0.84,-0.2257805783910715,0.5649816509245805,0.35500471689142,0.7097820197249092,66.24078742703001,-74.22442436084243,162.7474530819968,0
1767372544.416425,2,right_wrist,0.8886,-0.3231,-0.3235,4.41,-2.45,-2.03,0.17453839907601681,0.646772962626952,-0.4938694790574246,0.5543591071843994,-135.23548292177395,-62.808896881843744,-102.95478140501577,0
1767372544.46853,1,left_wrist,0.9536,0.263,0.1118,-0.49,-2.03,-0.07,-0.2224074101807923,0.5631823613855771,0.35778897369005414,0.7108780641056917,66.99326756444927,-73.71072489045851,161.97497220289537,0
1767372544.46853,2,right_wrist,0.8974,-0.2918,-0.303,-2.87,-3.64,-2.03,0.17854467752501313,0.6481031191897944,-0.4916974636266755,0.5534597991607361,-135.96940442648142,-63.24987666554798,-102.33690431264775,0
1767372544.525053,1,left_wrist,0.9721,0.246,0.1264,0.63,-4.27,0.14,-0.22429790206634934,0.563736842377623,0.3554377935290054,0.7110240492458559,66.13595114638328,-73.96825030059497,162.77422649149725,0
1767372544.525053,2,right_wrist,0.9033,-0.3304,-0.2908,0.21,-2.45,-0.49,0.17796197721634105,0.6467584214449374,-0.4910623786307362,0.5557794699778201,-135.29160902261142,-63.3407808088823,-102.88658839662148,0
1767372544.601108,1,left_wrist,0.9526,0.2538,0.1098,-0.21,-1.82,-0.07,-0.22217574560673248,0.5645353937622317,0.35671112606811084,0.7104188199879244,67.10280407304926,-73.86679057099218,161.73758979097244,0
1767372544.601108,2,right_wrist,0.8901,-0.2918,-0.3279,5.39,-3.08,-1.26,0.17858081891480954,0.6506216451652161,-0.4885967743619092,0.5532391508573495,-136.4337394906992,-63.43233101634837,-101.55655084209926,0
1767372544.671395,1,left_wrist,0.957,0.2542,0.1083,1.19,-0.14,0.91,-0.2254012175261948,0.5642848044026416,0.3536991478475774,0.7111074907985987,65.56864549352639,-74.15057103829918,163.2728348131482,0
1767372544.671395,2,right_wrist,0.8813,-0.3016,-0.3353,2.87,-2.52,-2.17,0.17484295675309364,0.6543835143393854,-0.48928815689573557,0.5493716921686496,-137.35343707931852,-62.885404861949695,-100.419019280209,0
1767372544.7437131,1,left_wrist,0.9609,0.2469,0.1078,0.63,-2.52,-1.26,-0.22475017788891388,0.5668707672880013,0.3545616042557896,0.7088236448657559,66.86543625927915,-74.36505544447272,161.98157268821205,0
1767372544.7437131,2,right_wrist,0.8813,-0.3001,-0.3187,0.14,-1.96,-0.98,0.17668071102387592,0.6540113084393486,-0.4872125200293798,0.5510690474996486,-137.19141588682493,-63.249228990149355,-100.51037693047442,0
1767372544.819795,1,left_wrist,0.9526,0.1254,0.1069,0.21,-1.33,-0.14,-0.22776556708676496,0.5690506135855387,0.35156272521524373,0.7076071621081836,66.18791062248779,-74.90081724137144,162.62776878548803,0
1767372544.819795,2,right_wrist,0.8979,-0.2991,-0.3279,1.19,-2.87,0.07,0.17820491292009868,0.6551318505643852,-0.4850482961223677,0.5511564367908732,-137.52251169881978,-63.51308657145329,-100.08409800183438,0
1767372544.870232,1,left_wrist,0.954,0.2499,0.0986,-1.19,-1.75,0.42,-0.22420207549781884,0.5691780307456792,0.3546962446408184,0.7070787598964074,67.81788700050596,-74.56966265885178,160.97932531036906,0
1767372544.870232,2,right_wrist,0.8906,-0.2962,-0.3123,2.45,-4.83,-0.07,0.1780536474475521,0.6551313004277277,-0.4831810458915822,0.5528435173913266,-137.22858966021516,-63.693282850224676,-100.16322088483003,0
1767372544.9234629,1,left_wrist,0.9594,0.2542,0.1025,0.91,-1.68,-0.63,-0.22122140146946373,0.5668884499011282,0.35776434048845124,0.7083101393990108,68.41421184458734,-74.01960011970596,160.42528148432302,0
1767372544.9234629,2,right_wrist,0.9101,-0.3074,-0.304,-0.56,-1.68,0.21,0.17851118774102462,0.6536716160527367,-0.4823799809197935,0.5551186613924198,-136.636384385052,-63.890038203656175,-100.69779315886439,0
1767372544.9747598,1,left_wrist,0.9648,0.2538,0.1035,1.26,-2.03,0.49,-0.224221784344347,0.5674491670093326,0.35495031777003266,0.7083334710436919,67.27548500276771,-74.37851605726064,161.55813863307017,0
1767372544.9747598,2,right_wrist,0.9018,-0.3133,-0.3392,2.66,-2.1,0.21,0.17491392987362817,0.6552278421872209,-0.484033814542569,0.5529854051764945,-136.9094271497891,-63.37916833423344,-100.30581514187594,0
1767372545.042659,1,left_wrist,0.9111,0.2499,0.0942,-0.28,-2.59,-1.61,-0.21605569336813885,0.56601612688975,0.3619725197549422,0.7084642379162106,70.08537975221878,-73.41891081928807,158.7070348852949,0
1767372545.042659,2,right_wrist,0.895,-0.2972,-0.3377,-1.61,-2.94,1.4,0.17566102819811516,0.6578549684506579,-0.48490304453784694,0.5488525130261239,-138.11342107246497,-63.18755195819646,-99.28007792395584,0
1767372545.100503,1,left_wrist,0.8672,0.2533,0.0825,-0.14,-1.61,-1.96,-0.21221049939926276,0.5660198037259099,0.3658815721740797,0.7076149806767956,71.75489310701565,-73.00612535450617,157.07090041304116,0
1767372545.100503,2,right_wrist,0.8691,-0.2733,-0.3416,0.56,-5.74,2.45,0.17557478256976464,0.6611494840789254,-0.4853206096598705,0.5445353627333329,-139.35983900158612,-62.930939752037155,-98.0988064531618,0
1767372545.168309,1,left_wrist,0.8657,0.2747,0.0869,1.61,0.35,-0.98,-0.2093516642666699,0.5631747119454283,0.3693118770858936,0.708953356672534,72.11549825838357,-72.39443920784177,156.80402415384503,0
1767372545.168309,2,right_wrist,0.8735,-0.2743,-0.3255,0.84,-7.42,4.69,0.17472258917320252,0.6617315880632415,-0.48528381527983444,0.5441350391395139,-139.43277069666817,-62.838431758379244,-97.95360811878395,0
1767372545.249253,1,left_wrist,0.9262,0.2821,0.1,-3.85,4.83,-1.75,-0.2085892397319087,0.5570347014822026,0.36639167417579854,0.7155138094455992,69.19249674626325,-71.80196523958092,159.43766108513742,0
1767372545.249253,2,right_wrist,0.8486,-0.2991,-0.3357,6.93,-6.02,3.85,0.16651537699967042,0.6616393902684082,-0.4877352285764158,0.5446285828648898,-138.48950752972848,-62.02181509354346,-98.45916169001573,0
1767372545.3182158,1,left_wrist,1.0097,0.2552,0.1488,-3.99,0.91,1.68,-0.2111100170472491,0.5574684595681797,0.3613701404232575,0.716988911280688,67.47714469248534,-72.17110784816393,160.90163167488097,0
1767372545.3182158,2,right_wrist,0.8828,-0.366,-0.3401,5.18,-3.01,4.2,0.1539836076752705,0.657504862406217,-0.4910764624972446,0.550291116101907,-135.74927421951054,-61.03002210568214,-100.46232185972782,0
1767372545.397784,1,left_wrist,1.0214,0.2489,0.1127,-2.24,-2.31,-5.39,-0.21259573226392273,0.5613872196745961,0.35424347669795353,0.717048815232366,66.21310135336132,-72.88293283103205,161.61044724196722,0
1767372545.397784,2,right_wrist,0.8838,-0.324,-0.2957,4.27,-1.75,4.9,0.15288226708395167,0.6559503806198655,-0.48984832042091764,0.5535383758663268,-134.89175722088066,-61.159468005367856,-101.08120652743067,0
1767372545.469398,1,left_wrist,0.9823,0.2352,0.0878,3.29,-2.45,-2.59,-0.2138083084440899,0.5644672576577695,0.35510881438810993,0.7138350315139101,67.40198942961746,-73.28026017845575,160.58157116120273,0
1767372545.469398,2,right_wrist,0.8799,-0.3289,-0.3309,1.68,1.75,0.91,0.15797801646209464,0.6556102975222008,-0.48541347219271175,0.5564097816460176,-134.81606882822902,-61.9997177303681,-101.10643518300007,0
1767372545.522075,1,left_wrist,0.957,0.2362,0.0859,-1.75,-1.47,4.34,-0.21605025944159012,0.568750297654909,0.3526592310863942,0.7109689522350656,67.8078788340109,-73.9688800943596,160.11301484901625,0
1767372545.522075,2,right_wrist,0.8862,-0.3314,-0.3304,0.91,1.33,1.05,0.16146482325104416,0.6556208242694725,-0.4827641874661938,0.557699905806727,-134.91607605098358,-62.52077636506171,-101.01726461990181,0
1767372545.601245,1,left_wrist,0.9487,0.2645,0.1137,-2.45,-6.72,4.27,-0.214250891175617,0.5733157461828225,0.35208422271116463,0.7081259145993474,69.47839469968125,-74.32891619421005,158.20781690064464,0
1767372545.601245,2,right_wrist,0.8877,-0.3304,-0.3411,0.21,1.05,0.77,0.15997160659003556,0.6566047492929659,-0.48448218648553976,0.5554784417680985,-135.30763134637587,-62.18592195347983,-100.69072714112893,0
1767372545.6722791,1,left_wrist,0.978,0.2513,0.1425,-0.56,-4.13,0.35,-0.2145323129967828,0.5726513181607867,0.3505898741170947,0.7093187539149967,68.6608734839212,-74.3251326612817,158.9171256405487,0
1767372545.6722791,2,right_wrist,0.8628,-0.3123,-0.3279,-5.81,-4.27,4.2,0.16209948202189928,0.6583625841826263,-0.4864957879744835,0.5510030072147455,-136.51717958843363,-62.03582425601267,-99.89305909378369,0
1767372545.753044,1,left_wrist,0.9843,0.2206,0.1054,0.7,-4.48,-5.04,-0.21895146149812153,0.574743638143681,0.3475828831345827,0.7077542986609499,67.87420420675559,-74.96380271608416,159.7920033367222,0
1767372545.753044,2,right_wrist,0.8438,-0.3348,-0.3372,3.01,-2.73,2.03,0.15623309963027204,0.6579343979531999,-0.4891649748140672,0.5508458713515342,-135.92941704501513,-61.364763100445295,-100.26833443128353,0
1767372545.81604,1,left_wrist,1.0258,0.2103,0.1113,6.86,-3.92,-5.81,-0.221552337826264,0.5756606560308306,0.34812706484753264,0.7059298247152562,68.14152568841945,-75.241640539604,159.7896965951106,0
1767372545.81604,2,right_wrist,0.9057,-0.3084,-0.3143,1.68,-5.46,3.01,0.15546706875449778,0.6571820530143048,-0.4867295087179072,0.5541084055236958,-135.21518245542566,-61.599090048966204,-100.64770028405528,0
1767372545.870126,1,left_wrist,1.0453,0.1942,0.1108,0.42,-5.95,-7.07,-0.22184957782931924,0.577741288627663,0.3472320337301744,0.7045762435559455,68.60128300253758,-75.51018520216164,159.26119893569955,0
1767372545.870126,2,right_wrist,0.9862,-0.3621,-0.3123,4.13,-3.78,5.53,0.1534958981043454,0.6558113497565786,-0.4860164634466502,0.5569007811580138,-134.36998027777815,-61.59978318622086,-101.23902421500183,0
1767372545.947531,1,left_wrist,0.9706,0.2054,0.1596,2.73,-14.21,2.17,-0.22433151042725957,0.5837041062127598,0.34435833518017595,0.7002729659295188,69.72651166761383,-76.41078920428507,158.05181758310755,0
1767372545.947531,2,right_wrist,1.2498,-0.3006,-0.1137,-29.4,2.59,62.79,0.14909545714560543,0.6387081212029955,-0.5089936120984758,0.5574477405199781,-131.54157503954116,-59.753931232802884,-106.09496757244217,0
1767372546.024694,1,left_wrist,0.9179,0.2503,0.0224,3.92,-9.1,10.15,-0.22486436955002115,0.5887200947481014,0.34653803450834636,0.6948064881574942,72.9128087739415,-76.89121307073165,155.08268715889352,0
1767372546.024694,2,right_wrist,0.8491,0.283,-0.4324,-13.23,-109.62,-4.62,0.09728950101923266,0.6606606852937041,-0.5294983882915573,0.5231574033647286,-135.54755454998775,-52.58808776330549,-100.25157420034935,0
1767372546.095343,1,left_wrist,0.9257,0.1601,0.0752,31.92,-4.06,10.71,-0.23696164278023998,0.5882356845535156,0.3557659530233652,0.6864827353532814,75.34824892233823,-77.48334570403927,154.5273890657594,0
1767372546.095343,2,right_wrist,0.1625,-0.6764,0.0669,-116.62,-15.12,-86.94,0.1449834856072109,0.6764852640867214,-0.5314423734444936,0.48879083469556384,-146.03935076498078,-54.62894430789683,-94.22973521242955,0
1767372546.176934,1,left_wrist,0.9414,0.2147,0.0913,-8.68,2.31,16.45,-0.2400778439050541,0.5884387861607826,0.34805963102123694,0.6891711812466373,71.70788731428715,-78.01249489153868,157.72931095860326,0
1767372546.176934,2,right_wrist,0.815,-1.0814,-0.7247,30.66,68.39,-33.11,0.19530627265585795,0.6911956590254353,-0.48906511111633183,0.4948932590917357,-153.73744088257178,-61.06523321877363,-86.2323118236482,0
1767372546.247642,1,left_wrist,0.9477,0.2298,0.0317,-10.29,-2.66,4.97,-0.23468708057621038,0.5931614544363869,0.3463566999217035,0.687836099373152,74.1068052105663,-78.1160216188771,154.69004311098558,0
1767372546.247642,2,right_wrist,1.2742,0.4934,-0.9267,174.58,-39.13,24.99,0.1314760977894044,0.7094132328706444,-0.45953788924711897,0.5179496395253063,-145.98099673816506,-58.8390533301657,-85.44357148374533,0
1767372546.317282,1,left_wrist,0.8755,0.1801,0.0459,-8.89,0.21,4.62,-0.23178238945786633,0.5959895999903537,0.34492596834999295,0.687094896647006,75.36084232256498,-78.20867941246232,153.0441596706274,0
1767372546.317282,2,right_wrist,1.0341,-0.1649,-0.2723,-8.33,0.56,3.64,0.16816894820415085,0.6939271732237005,-0.46982944356408435,0.5190805111752289,-147.83993871806624,-61.45350223330166,-87.64557162989159,0
1767372546.392621,1,left_wrist,1.0219,0.205,0.0478,6.09,3.15,7.63,-0.23526613462670257,0.5969063041481761,0.3449473377090367,0.6851014845797831,75.54771686659274,-78.57696902737541,153.1535730028513,0
1767372546.392621,2,right_wrist,0.8398,-0.2796,-0.3865,-19.46,24.5,-0.14,0.17534348445422798,0.6851337797158804,-0.47439280909098486,0.5242116261916038,-146.53273036316946,-62.21137645720497,-89.96223786897622,0
1767372546.458913,1,left_wrist,1.0336,0.2157,0.0922,-2.31,-1.19,3.08,-0.23543256490233735,0.5954047486727514,0.34304038912962065,0.6873048698119656,73.77603256473809,-78.5144413202028,154.7725577493902,0
1767372546.458913,2,right_wrist,0.8506,-0.203,-0.3948,-4.83,2.17,-1.05,0.1800362442093919,0.6867653702555493,-0.47390078582794537,0.520920648640837,-147.87317507182274,-62.39203427571711,-88.99608441826042,0
1767372546.517719,1,left_wrist,1.0311,0.1996,0.0605,0.7,-1.75,0.28,-0.23769707853283056,0.5948165412289353,0.3407087777596561,0.6881939478772863,72.07528633939613,-78.7159739258298,156.4582525394319,0
1767372546.517719,2,right_wrist,0.9355,-0.2391,-0.2904,8.96,8.47,-10.78,0.18659349571989112,0.6881227450430114,-0.45931543859632196,0.5298106104794147,-148.0731357704409,-64.23177595287756,-87.8037336861287,0
1767372546.597263,1,left_wrist,0.9648,0.2054,0.0639,2.03,-3.92,-7.14,-0.229222273026441,0.5911827248933319,0.34923595478943287,0.6899234618554437,74.85492519781064,-77.38168552439633,153.74630851726536,0
1767372546.597263,2,right_wrist,0.8886,-0.2303,-0.3309,7.7,2.52,-10.99,0.18801634720899685,0.6885423443313554,-0.4530503699154187,0.534139172467597,-147.89273245135308,-64.94702168022039,-87.44440069747729,0
1767372546.670526,1,left_wrist,0.9926,0.2001,0.0966,10.36,-7.07,-7.56,-0.2300817721580223,0.5894434614365284,0.35299368572750317,0.6892127695616649,75.44657243046538,-77.14564715468477,153.58000878064573,0
1767372546.670526,2,right_wrist,0.914,-0.3294,-0.3431,10.5,1.89,-9.59,0.1816755676996114,0.6899015828383713,-0.44608172035865146,0.540408079935894,-146.5161769442231,-65.19502841346902,-87.54911128719212,0
1767372546.723639,1,left_wrist,0.9916,0.1937,0.1196,-7.63,-6.3,-14.63,-0.22431364269480997,0.5882337204278488,0.3530124047755258,0.6921320119220009,75.35707456419438,-76.56688506906802,153.18483188671297,0
1767372546.723639,2,right_wrist,0.8916,-0.2416,-0.3406,2.87,0.28,-2.8,0.17828541237884546,0.6885105269451848,-0.4463195486869686,0.5431081167488012,-145.3702809872564,-65.09616635678465,-88.41263652123287,0
1767372546.776992,1,left_wrist,0.9531,0.2089,0.0717,-2.38,-8.68,-18.13,-0.21908560689537504,0.5872503176085446,0.3551473504750169,0.6935480666619469,76.14998993538656,-75.97450704623158,152.14719953754118,0
1767372546.776992,2,right_wrist,0.8911,-0.2996,-0.3177,-9.31,-4.62,0.21,0.1772989354799984,0.6866342733014175,-0.4504112992960561,0.5424279893883908,-144.88898022339046,-64.77137021516077,-89.21990252517462,0
1767372546.85644,1,left_wrist,0.957,0.1903,0.0688,-11.13,-1.96,-5.39,-0.21843247124120685,0.5883557437072635,0.35231147550651,0.6942632055499974,75.64185215602797,-76.13427659237291,152.33467357450778,0
1767372546.85644,2,right_wrist,0.8911,-0.2996,-0.3177,-9.31,-4.62,0.21,0.1765454513955215,0.6847052183211195,-0.45428810341082365,0.541878940995843,-144.4308308486683,-64.48328787082936,-90.0027845160353,0
1767372546.922824,1,left_wrist,0.9428,0.2279,0.0405,7.49,-3.57,0.91,-0.21902759244965814,0.5908675772580669,0.3562935483714804,0.6898966062242574,78.38153172623905,-76.25222728869238,149.99783973199266,0
1767372546.922824,2,right_wrist,0.9126,-0.2464,-0.2782,-5.18,-5.53,2.24,0.1811174779586479,0.6818171845811377,-0.4544824950143781,0.5438450585536797,-144.19108612541612,-64.99016905932223,-90.62932577616304,0
1767372546.974439,1,left_wrist,0.9623,0.2479,0.0366,7.21,-2.03,-3.22,-0.21667378863160897,0.5903914762742218,0.36265012703151006,0.6877319677220183,80.6866496563375,-75.74646884096497,148.0792467588013,0
1767372546.974439,2,right_wrist,0.9135,-0.2342,-0.3479,7.42,-2.66,17.78,0.177566831389889,0.6815630313492212,-0.4563117204213124,0.543802784559216,-143.6517376450895,-64.59841160189421,-91.05307842569893,0
1767372547.042529,1,left_wrist,1.0097,0.2074,0.0639,3.64,1.26,-1.75,-0.2237237920687069,0.5907192957596978,0.35940288047657776,0.686897334384625,79.20132922925245,-76.49289634333891,149.86424877848702,0
1767372547.042529,2,right_wrist,0.9106,-0.225,-0.3518,5.81,-0.84,-1.47,0.17952608107687443,0.6845043283660938,-0.4525809681003101,0.5425814943164282,-144.71787019639808,-64.86357509937977,-89.79071485026041,0
1767372547.095219,1,left_wrist,1.0926,0.0893,0.081,-7.42,-3.29,-12.53,-0.22084827775138388,0.5916406493899105,0.3574456837028963,0.6880552037488719,79.1025956046598,-76.42057612335212,149.53378145049444,0
1767372547.095219,2,right_wrist,0.8965,-0.2128,-0.3436,-3.15,0.84,1.47,0.1840164217833493,0.6855617091780799,-0.4514873578675736,0.5406498544424476,-145.84436153032345,-65.15664884250518,-88.94798319234431,0
1767372547.166343,1,left_wrist,1.2283,0.1088,0.1742,-28.07,-15.4,-32.76,-0.20408151991688545,0.59362180989577,0.3558638730532518,0.6923328562909774,80.49203293767306,-75.28882619694835,146.56763626273312,0
1767372547.166343,2,right_wrist,0.9155,-0.2533,-0.2991,-5.67,-3.43,1.68,0.1842808821324904,0.6855434580719102,-0.4552185096851002,0.5374447246139407,-146.26673078674554,-64.77747143628568,-88.94332218607906,0
1767372547.244333,1,left_wrist,1.1239,0.2752,0.1376,-12.6,0.35,-44.59,-0.16778460190979544,0.5813539114158291,0.36434229207203156,0.7079058208908768,79.65271819297097,-70.97030043684914,145.2029129572828,0
1767372547.244333,2,right_wrist,0.8969,-0.2596,-0.3582,3.43,0.56,1.54,0.1789835819181792,0.6842350903629173,-0.45739298882560003,0.5390536821996241,-145.0248218023153,-64.34410308890065,-89.94368379581486,0
1767372547.320508,1,left_wrist,1.199,0.4285,0.2084,-21.91,4.9,-49.42,-0.14781289118553154,0.5710506714388492,0.3686504456791138,0.7184353337282378,78.10829841778015,-68.35833388027116,145.54575760105533,0
1767372547.320508,2,right_wrist,0.8838,-0.2357,-0.3348,-6.16,-5.88,4.76,0.18115739881391504,0.6843608766374502,-0.46092318425212564,0.5351467140905174,-145.84056955314878,-64.08799519069791,-89.69376409800527,0
1767372547.37434,1,left_wrist,1.1263,0.3845,0.1825,-1.61,24.22,-35.28,-0.1418059275671783,0.5564275125241597,0.3729543389704685,0.7288240962372808,75.11020746313923,-66.46980850272939,148.54330187410474,0
1767372547.37434,2,right_wrist,0.9126,-0.3094,-0.2762,1.82,-2.59,1.96,0.17886021165990668,0.6825586794490586,-0.46124412005546467,0.5379372970040195,-144.79433216982335,-64.07197039749775,-90.55631533169824,0
1767372547.4493382,1,left_wrist,0.9418,0.3699,0.0454,-3.99,23.03,-6.02,-0.13890401129828048,0.5383037929295444,0.37869621269589565,0.7399485662211247,71.98343463116188,-64.4008697751546,152.10537619245997,0
1767372547.4493382,2,right_wrist,0.9414,-0.225,-0.3235,5.04,-1.47,-0.42,0.17999928647768892,0.6827811803465683,-0.45784325859882835,0.5401755892186135,-144.71415765785596,-64.48417886623737,-90.37512420056761,0
1767372547.5324512,1,left_wrist,0.8603,0.568,0.0215,-5.88,5.74,-1.47,-0.13532879593686278,0.5365918903032398,0.3801636008420781,0.7411011380681181,72.10005444531168,-63.926621094195156,151.8437207257755,0
1767372547.5324512,2,right_wrist,0.8584,-0.2216,-0.368,5.11,-6.44,-3.64,0.17947749130277166,0.6906040135059057,-0.45418913609547396,0.5334474250552209,-147.1426265077438,-64.13642908054625,-87.5967476409726,0
1767372547.59493,1,left_wrist,0.6725,0.3865,0.2406,-12.6,3.99,14.35,-0.1349441247989842,0.535276530221818,0.3727093175919955,0.7458933462339212,70.08043773938044,-64.04109973345679,153.1506736147715,0
1767372547.59493,2,right_wrist,0.9082,-0.2518,-0.3187,-1.54,-4.97,-1.75,0.17958665600400314,0.6900414631292118,-0.4537398185455509,0.5345199614738884,-146.91274769039842,-64.2440483388075,-87.78203039607148,0
1767372547.646218,1,left_wrist,0.7959,0.4841,0.163,-37.17,-6.79,13.72,-0.1266736860266718,0.5391611319328932,0.36025476262862216,0.7506500896454037,68.5241636764605,-64.25185460839037,152.84080136402065,0
1767372547.646218,2,right_wrist,0.9282,-0.2484,-0.3284,4.48,-1.68,-1.82,0.17902951034612602,0.6893451790511167,-0.45129805256872924,0.5376632089811266,-146.31242580233518,-64.53690841870969,-88.06769236808668,0
1767372547.723691,1,left_wrist,0.794,0.4499,0.0966,-27.37,-14.49,20.16,-0.12178332584559817,0.5482844595861304,0.35079955935013796,0.7493281271126014,68.73279794527555,-65.1121133550069,151.2898555902878,0
1767372547.723691,2,right_wrist,0.894,-0.2728,-0.2884,3.01,-1.68,-1.54,0.17909474486888155,0.6870887667539258,-0.4487676582780079,0.5426248131486365,-145.22575458883114,-65.01341141540037,-88.86978893920087,0
1767372547.798423,1,left_wrist,0.6515,0.3343,-0.0795,-3.5,-16.52,20.58,-0.11301789605750455,0.5681437456136954,0.33179911275228946,0.7445461626169121,69.8403280067048,-67.07521121921597,147.59851429180412,0
1767372547.798423,2,right_wrist,0.8828,-0.2162,-0.3455,-0.77,0.91,-0.91,0.18243364576661325,0.6892597069091206,-0.4472477944855131,0.5400078070284718,-146.52943610071915,-65.17540468393636,-87.71735151279519,0
1767372547.87306,1,left_wrist,0.428,0.4529,-0.0615,-1.68,-8.54,1.82,-0.1089308488615813,0.5710691599135974,0.3348699747811517,0.7415363677878141,71.64681446834798,-66.91036281416335,145.71467283852436,0
1767372547.87306,2,right_wrist,0.9423,-0.2294,-0.3123,0.91,0.0,-0.42,0.18230516247651835,0.6859526622906706,-0.44529372737973033,0.5458454627337465,-145.04522579471973,-65.67268476101206,-88.95229242147093,0
1767372547.924279,1,left_wrist,0.4202,0.2455,0.0185,31.64,9.59,-9.38,-0.11233906735837286,0.5650228955602719,0.3503497377722053,0.7385012678937551,73.45531958927369,-65.95928212295466,145.62954333091747,0
1767372547.924279,2,right_wrist,0.9379,-0.2357,-0.2816,0.14,-2.31,-2.03,0.18353651470180526,0.6853143888700958,-0.4435191586720501,0.5476762657533719,-144.853601815835,-65.98863657050123,-89.05897272851985,0
1767372547.992736,1,left_wrist,0.652,0.1137,0.0015,57.96,12.46,-13.86,-0.12233106917680261,0.5501728876611337,0.38934335791368835,0.7285304748911766,78.0669264360657,-63.75262561417244,145.5508082545707,0
1767372547.992736,2,right_wrist,0.9272,-0.2523,-0.3089,6.23,-4.97,-0.63,0.18042951067493895,0.6849458618981835,-0.4419818611648958,0.5504056616236532,-143.96137857995723,-65.99209081321673,-89.51960587708794,0
1767372548.044998,1,left_wrist,0.6534,0.571,0.0371,7.42,19.39,-25.27,-0.11598887517230046,0.5376425464244509,0.39999400966728343,0.733138367118231,77.55722486535691,-61.77806385655635,146.6406281648541,0
1767372548.044998,2,right_wrist,0.875,-0.2216,-0.3509,-0.28,-2.03,-2.1,0.18030951609876095,0.6878143325135804,-0.44233442731926814,0.5465712915999736,-145.09374631056403,-65.69861783775667,-88.4404758481567,0
1767372548.0953972,1,left_wrist,0.4973,0.3216,0.021,6.72,-17.43,-10.43,-0.10856029211845514,0.5409628201699334,0.4086894205880465,0.7270122747714475,80.39750824787968,-61.08146094610224,143.98689285931871,0
1767372548.0953972,2,right_wrist,0.8457,-0.2606,-0.3387,-0.77,-4.55,-2.73,0.17655048019788652,0.6890714291117039,-0.44471202176490343,0.5442809120496709,-145.10152622036503,-65.11103582441278,-88.36896402405581,0
1767372548.147698,1,left_wrist,0.6061,0.5051,0.0913,32.69,-28.63,-14.77,-0.103364025636463,0.5431223757627706,0.42621707679183096,0.7160118480870656,84.64192750379509,-59.98278525633405,140.98048518911295,0
1767372548.147698,2,right_wrist,0.9418,-0.2128,-0.3416,-5.04,-6.86,1.61,0.18024680367761114,0.6906387518055749,-0.4442778646372843,0.5414299430783056,-146.3516349098471,-65.23374063750232,-87.40845498270681,0
1767372548.2220821,1,left_wrist,1.3259,0.5578,0.124,50.19,-49.56,15.33,-0.11398677593640183,0.5601227144286223,0.4371186520965905,0.6944039484925157,91.14967305666659,-61.34873774271422,136.28147222834787,0
1767372548.2220821,2,right_wrist,0.873,-0.3016,-0.2611,-1.05,-2.73,-0.91,0.17639984612224266,0.6916181060985135,-0.4465145332744426,0.5396038001899736,-146.20610557154055,-64.67951610634955,-87.46649765020906,0
1767372548.285003,1,left_wrist,0.8111,0.8242,0.1781,16.8,9.59,-3.08,-0.11668004381473017,0.553037828274904,0.44360762997816,0.6955193732007257,90.61953792959312,-60.78770435783099,137.71659787344848,0
1767372548.285003,2,right_wrist,0.9111,-0.2938,-0.3216,-1.89,-7.0,2.31,0.17302804871446653,0.6903824572623448,-0.44904131712813383,0.5401807591670602,-145.37160268246936,-64.32367371960628,-88.26305063321186,0
1767372548.3453581,1,left_wrist,1.0863,0.4436,0.0712,58.17,-4.27,23.94,-0.1379176466580033,0.5572584503468352,0.44388323616145997,0.6880475382647565,91.89681765577349,-62.78281986366996,138.18668626433853,0
1767372548.3453581,2,right_wrist,0.9223,-0.2196,-0.3509,1.05,-4.62,-0.14,0.17577845759666785,0.6922888728877361,-0.4464770654862159,0.5389770684505805,-146.33637051747294,-64.5843041040797,-87.2857488495255,0
1767372548.4065971,1,left_wrist,1.1356,0.5407,0.1293,21.63,4.34,25.06,-0.1526567022675856,0.5579761154156019,0.4420134092590401,0.6855528658781181,91.76509313710923,-64.1576556655826,139.35025182377842,0
1767372548.4065971,2,right_wrist,0.8638,-0.2342,-0.3655,-1.54,0.63,-0.28,0.1746763698751608,0.6934540776420636,-0.44831357021436413,0.5363063963542494,-146.7349352048536,-64.21428941188586,-86.99811388858129,0
1767372548.471134,1,left_wrist,1.0346,0.2391,0.1796,12.6,-9.17,39.27,-0.16821698003589686,0.567311290814837,0.4339468746032926,0.679375490405446,92.91483607350403,-66.46685348670968,138.64730295036972,0
1767372548.471134,2,right_wrist,0.9296,-0.2464,-0.3367,-1.12,-2.8,2.03,0.17495663697379,0.6897763068125405,-0.44962887983639027,0.5398450631023186,-145.55641216275737,-64.43227523628396,-88.30012378190469,0
1767372548.522711,1,left_wrist,1.3205,0.2606,0.1552,53.34,0.42,37.87,-0.1955348884808064,0.5704502653577781,0.43726004092285253,0.6672003138130141,95.26641421977897,-68.78171999595578,138.89374617940297,0
1767372548.522711,2,right_wrist,0.9057,-0.2318,-0.3396,-2.73,-1.33,1.47,0.1779922028907685,0.6889150369639631,-0.44862002417225216,0.5407910145950288,-145.69511212954797,-64.79903165811918,-88.30826857733628,0
1767372548.593716,1,left_wrist,1.1985,0.0991,0.2391,-52.57,-11.69,11.13,-0.2039813064127779,0.5851643723232474,0.4063001998515911,0.6714867322577815,92.79687939384384,-72.10393594029235,139.00935681090147,0
1767372548.593716,2,right_wrist,0.9257,-0.2259,-0.326,-1.61,0.42,0.07,0.18101220566538664,0.6877503450429396,-0.446971958023323,0.5426325764587545,-145.65820871690667,-65.25863280813944,-88.42108165415935,0
1767372548.646281,1,left_wrist,1.12,-0.059,0.0976,-34.86,10.5,25.9,-0.20771143524464092,0.5906729941678636,0.38538732633454514,0.6778185467587127,88.93222753935432,-73.91194141670418,141.1858040953393,0
1767372548.646281,2,right_wrist,0.9101,-0.2377,-0.3318,-3.64,-0.07,4.97,0.18163448120665132,0.6846670497610672,-0.4483378823638626,0.545190874323621,-144.73089938462712,-65.42472901696432,-89.51503876344741,0
1767372548.696424,1,left_wrist,0.9799,-0.0112,0.0981,62.51,4.62,26.32,-0.23552015294575854,0.5885956622749154,0.3933921173474118,0.665828841307194,90.55860745489564,-75.72222723834211,142.69566476245885,0
1767372548.696424,2,right_wrist,0.915,-0.2338,-0.3494,-2.73,-0.14,1.75,0.18343329411233134,0.6864729301938096,-0.44909219076816087,0.5416856532282144,-145.84025806841487,-65.2936684582908,-88.65843295652769,0
1767372548.767406,1,left_wrist,1.0399,0.4006,0.0991,-54.81,-3.5,-7.91,-0.21683857234202777,0.5909417079287591,0.3806269940422387,0.6774156942242201,87.39066463913339,-74.9491187974682,143.05532549347765,0
1767372548.767406,2,right_wrist,0.8916,-0.2303,-0.3255,-6.16,-3.92,5.11,0.1844030586650555,0.6863588627505506,-0.4522270577547605,0.5388856202509169,-146.29484892362967,-65.02905035200726,-88.6174185700086,0
1767372548.844258,1,left_wrist,1.0067,0.1737,0.0044,4.41,0.56,6.16,-0.21328263021197227,0.5975219958821085,0.3631340155186574,0.6823574362899696,84.7297496666752,-76.01226960007864,143.76079746675796,0
1767372548.844258,2,right_wrist,0.9018,-0.2572,-0.3367,-2.94,-4.55,3.5,0.18117768385583224,0.6841923188560447,-0.4554407166747092,0.5400271023623276,-145.20379949668816,-64.68842280231136,-89.74685428905961,0
1767372548.9225442,1,left_wrist,1.0077,0.2957,0.0434,-11.62,-10.99,-0.07,-0.20607736609148344,0.5991448743902203,0.3625541360454693,0.6834559511139304,85.59356413258978,-75.559392510737,142.2259292059681,0
1767372548.9225442,2,right_wrist,0.8974,-0.2508,-0.3289,-0.7,-2.31,0.49,0.17894431292667212,0.6812738680086187,-0.45626324386300304,0.5437542661344241,-143.78420172966295,-64.71341297982946,-91.03152295563305,0
1767372548.979987,1,left_wrist,0.9589,0.2367,0.0488,-25.97,-4.06,1.05,-0.20032456620800432,0.6011139592064,0.35292750320397304,0.6884578808489238,83.4351733620204,-75.71570141492286,143.00542375316618,0
1767372548.979987,2,right_wrist,0.9028,-0.2508,-0.3089,1.19,-2.03,-0.21,0.17925741673312656,0.6802092744399505,-0.45486284480289685,0.5461519146994341,-143.28111039168513,-64.96781871008592,-91.4035654589073,0
1767372549.0428338,1,left_wrist,0.9238,0.4748,0.2562,-43.12,7.49,-12.6,-0.18550775011665552,0.5938644976467926,0.3477751700123609,0.7014016425731071,78.84473552477739,-74.17625009900158,145.91084750894808,0
1767372549.0428338,2,right_wrist,0.9135,-0.244,-0.3343,-0.63,-5.04,0.28,0.1819888813295566,0.6814666999559992,-0.45289791479733904,0.5453133619266256,-144.04576713743668,-65.24006485093827,-90.67943385169966,0
1767372549.097627,1,left_wrist,1.0677,0.3118,0.0981,10.78,-11.97,-32.13,-0.17636919281973085,0.5891083460085327,0.359897723016837,0.7016543974454258,81.04311310310065,-72.48737446318799,144.07924891816702,0
1767372549.097627,2,right_wrist,0.9262,-0.2269,-0.3323,1.47,-4.9,-2.1,0.1848515048691856,0.6835758515770558,-0.4496733152188273,0.544378439937154,-145.054516523683,-65.57363741978116,-89.59928879323749,0
1767372549.16852,1,left_wrist,1.1253,0.041,0.1532,-47.18,5.39,-53.55,-0.15170346668394039,0.5831293622654662,0.3554364342309435,0.7145706027266567,78.51684625953934,-70.256794038019,144.17417458181197,0
1767372549.16852,2,right_wrist,0.8974,-0.2528,-0.3309,1.47,-3.92,-4.06,0.18258542490484855,0.6824839776401448,-0.4503502256028786,0.5459513322414725,-144.27613908440978,-65.45852526913808,-90.24228289860544,0
1767372549.2235892,1,left_wrist,1.3015,0.2357,0.1449,57.89,-9.45,-87.36,-0.14081975432236546,0.56914362319976,0.39273385667479055,0.7085234299477917,83.71039696850144,-66.50754194789883,141.62042203733546,0
1767372549.2235892,2,right_wrist,0.9028,-0.2216,-0.3406,0.56,-4.76,-1.89,0.18490102024565985,0.6862498890799886,-0.4484559610930925,0.5419962669704359,-145.9718928001091,-65.46802278231179,-88.58477046080218,0
1767372549.278676,1,left_wrist,1.5328,0.4041,0.1771,-47.32,-3.85,-115.08,-0.0956225999050216,0.5533299968818937,0.40323100859847666,0.7225558709489135,82.53811416549578,-61.251538452125715,140.17149856866766,0
1767372549.278676,2,right_wrist,0.9018,-0.2523,-0.347,1.61,-0.28,-0.14,0.18039213439975535,0.685339423694955,-0.4506490446932611,0.5428480364643667,-144.99422169481488,-65.04744128047037,-89.39386243155101,0
1767372549.3461828,1,left_wrist,1.0819,0.6446,0.1059,1.47,-14.07,-43.47,-0.06019351196177774,0.5394634169881369,0.428395203137626,0.7223804487788017,84.74902134157631,-56.19839380509597,137.58400402555552,0
1767372549.3461828,2,right_wrist,0.8852,-0.2464,-0.3538,5.74,-3.22,0.21,0.1754277766591062,0.6873714497957727,-0.4516892505008798,0.5410382668204291,-144.95458537631498,-64.4575663867949,-89.13506396940468,0
1767372549.4016662,1,left_wrist,0.8989,0.4607,0.0942,-13.58,11.41,-15.47,-0.05731738237760789,0.5343351857051541,0.4242358879190057,0.728851520130397,82.9382687920126,-55.84626828425498,138.79752305340216,0
1767372549.4016662,2,right_wrist,0.9091,-0.2245,-0.3465,0.35,-4.13,0.07,0.1784749030705004,0.6892409545011806,-0.4493250360959741,0.5396300839923849,-145.97653723127144,-64.72337083426862,-88.14620200854627,0
1767372549.470696,1,left_wrist,0.8154,0.6617,0.0195,3.85,-0.21,11.27,-0.05892753195435856,0.535860713725386,0.4261327008001137,0.7264927823263551,83.58353110868812,-55.97769090811376,138.45508344022198,0
1767372549.470696,2,right_wrist,0.9062,-0.2391,-0.3245,-0.35,-2.8,0.07,0.17711197149464064,0.6868882394542536,-0.4480340306346102,0.5441336264613893,-144.70838786629045,-64.98842065344557,-89.13698199897863,0
1767372549.543437,1,left_wrist,0.6261,0.6681,0.1108,-7.84,-11.55,37.45,-0.07281071215369322,0.5486268862673175,0.41807985103001366,0.7203585065944745,84.70326301628586,-58.35307128814313,137.59337045632654,0
1767372549.543437,2,right_wrist,0.7515,-0.2542,-0.3509,3.22,-2.52,-1.12,0.1729531064145221,0.688574162243367,-0.4494403779015788,0.5421772706265897,-144.72653080804488,-64.43850999429121,-88.9251010131652,0
1767372549.594325,1,left_wrist,0.5968,0.5934,0.1864,-18.48,-1.75,40.04,-0.078627078276766,0.5542003087129703,0.4034210884439071,0.7238309372932611,83.08870695189249,-59.966658856405886,138.2422643151822,0
1767372549.594325,2,right_wrist,0.8828,-0.2767,-0.324,0.63,-2.45,-2.03,0.1706076816317101,0.6872907418861881,-0.4497719590433244,0.5442698227387923,-143.86286179413509,-64.37081591116022,-89.609089725063,0
1767372549.648546,1,left_wrist,0.6554,0.5456,0.0786,-37.87,-2.59,29.82,-0.07524770473025492,0.5589129035059092,0.3866565736859605,0.7296922935408157,80.97961078793439,-60.91021507508621,138.46112069184747,0
1767372549.648546,2,right_wrist,0.915,-0.263,-0.3538,3.5,0.14,-4.69,0.16732392334505283,0.6863674588685086,-0.4493675410326441,0.546782615990194,-142.90042415353253,-64.28552960423472,-90.23833313528966,0
1767372549.7243671,1,left_wrist,0.672,0.4768,-0.0405,-45.36,-0.14,21.28,-0.06881714506350367,0.564594579237698,0.3699959217678954,0.7345748290785908,79.22347936619153,-61.69041839057106,138.1027871263821,0
1767372549.7243671,2,right_wrist,0.8745,-0.2621,-0.3411,0.0,0.56,-2.45,0.16495565703062653,0.6893398426144904,-0.4470475297503875,0.5456635581948829,-143.3514688657097,-64.12933505655536,-89.36975708838999,0
1767372549.801847,1,left_wrist,0.6285,0.3401,-0.0776,-14.49,0.91,21.35,-0.0664273068434955,0.57397979070957,0.3494694887919994,0.73756741330266,77.56774705493012,-63.26875293082734,137.62030661768625,0
1767372549.801847,2,right_wrist,0.9174,-0.2562,-0.3377,2.66,-2.1,-1.33,0.16626911928012705,0.6892177834567007,-0.4442526439765263,0.5476979233671687,-143.250598141606,-64.51491054778539,-89.28981758207298,0
1767372549.883602,1,left_wrist,0.5729,0.509,-0.0156,-10.08,-0.21,8.82,-0.06361722375278525,0.5751669002196654,0.3475718907864601,0.737787006166966,77.58978564873524,-63.24306380615134,137.18909728704818,0
1767372549.883602,2,right_wrist,0.8994,-0.2455,-0.3231,-4.97,-1.61,-1.4,0.17204890564129566,0.6898592881586783,-0.44079823934504303,0.5478962025777734,-144.18591968826806,-65.17853561861573,-88.49666177741594,0
1767372549.9521952,1,left_wrist,0.7081,0.3265,-0.0322,13.16,2.45,-10.01,-0.058978582376079614,0.5724329527221839,0.3564290378474227,0.7360709085664442,78.7962192283141,-62.22026122843573,136.42969773549032,0
1767372549.9521952,2,right_wrist,0.8935,-0.2494,-0.2904,-1.33,-3.43,-1.26,0.1724892028125935,0.6889053503002792,-0.44018533357004125,0.5494486011908277,-143.84119996776565,-65.35248762408139,-88.80652749271377,0
1767372550.017361,1,left_wrist,0.7364,0.3445,0.0854,8.96,7.84,-10.22,-0.06222470005691175,0.5688142690808022,0.358254433619047,0.7377209328636377,78.1316831694833,-62.10873229909056,137.5475369566846,0
1767372550.017361,2,right_wrist,0.8969,-0.2264,-0.344,4.41,-0.35,-0.28,0.17164788476652965,0.6905171957286803,-0.43675195748265616,0.5504277733665367,-143.9707898401537,-65.51845331245892,-88.26399534282181,0
1767372550.072107,1,left_wrist,0.612,0.4597,-0.0517,26.74,41.16,-11.62,-0.06928964934219493,0.5536019109504604,0.3716206690938288,0.7420390468083801,76.85908898126677,-60.8194219522764,140.72808319284505,0
1767372550.072107,2,right_wrist,0.8828,-0.2386,-0.3538,-1.82,-3.29,-1.4,0.17079192589974812,0.6931183667533751,-0.4382713667534946,0.5462007477115101,-144.9503440597694,-65.07632498540615,-87.3932681474743,0
1767372550.145899,1,left_wrist,0.752,0.3109,-0.0181,66.43,-15.82,3.15,-0.06584293650799164,0.5553199963086861,0.3938561976639822,0.7294941432070552,81.71873807127187,-59.549878348651475,137.6550983969055,0
1767372550.145899,2,right_wrist,0.9501,-0.2284,-0.3479,2.24,-8.12,0.28,0.17229761429489127,0.6955826361411039,-0.43578474619055707,0.5445823935777885,-145.9361390340411,-65.19945082380768,-86.30348074762247,0
1767372550.2213628,1,left_wrist,1.1839,0.8745,0.1625,27.16,-26.95,14.77,-0.06958657281430065,0.5628186701267264,0.4016596160899436,0.7190705154873355,84.9857558082275,-59.91844839259054,135.38296798755403,0
1767372550.2213628,2,right_wrist,0.8545,-0.2767,-0.3089,0.63,-1.54,-2.8,0.1729555275672757,0.6948458819877157,-0.43430612169354477,0.546492249193116,-145.64891829548296,-65.46214221245022,-86.48677043781504,0
1767372550.294678,1,left_wrist,0.8306,0.5924,-0.0869,-33.11,-5.39,22.26,-0.07958187304711294,0.5625205975572853,0.40102987110598237,0.7186183585790353,84.66169771102919,-60.72757204787751,136.46487072146635,0
1767372550.294678,2,right_wrist,0.8955,-0.2425,-0.3523,0.35,-3.43,-1.61,0.16969441840752889,0.696645398036614,-0.4362453640227274,0.5436717540248126,-145.88870510453737,-64.89741473582464,-86.18565869928841,0
1767372550.3505988,1,left_wrist,1.0643,0.4338,0.0425,6.58,-30.94,25.9,-0.08728303982979484,0.5786817587503665,0.39492301337331664,0.7081983525508884,87.71032683847842,-62.69573618723843,133.3725643686841,0
1767372550.3505988,2,right_wrist,0.9355,-0.2059,-0.3626,0.28,-3.78,0.84,0.1724861858574204,0.6991035722041186,-0.4344373578290932,0.5410793778571465,-147.17713126974414,-65.01385247371744,-84.97548114688686,0
1767372550.424313,1,left_wrist,1.1375,0.4163,0.2377,-2.17,7.0,25.48,-0.09756458688222416,0.5800125507782853,0.3850248085160896,0.7112119860866495,85.96062135701379,-64.17822899385591,135.02538799856015,0
1767372550.424313,2,right_wrist,0.8843,-0.2386,-0.3514,1.4,-4.34,-1.4,0.16598589253358578,0.6987345975830916,-0.43840011757956393,0.5403924338168034,-146.16838813524382,-64.25263907667029,-85.83335815064721,0
1767372550.493997,1,left_wrist,1.0189,0.2381,0.1371,-3.71,4.34,6.72,-0.13406678470347758,0.5722065833144494,0.394386800147302,0.7064451678088309,85.17611399046726,-66.09427826746654,139.7334924571095,0
1767372550.493997,2,right_wrist,0.913,-0.2582,-0.3172,-2.24,-3.57,-0.28,0.16615320973742956,0.6974851723394698,-0.43849847366133293,0.5418732636486241,-145.74924732767823,-64.37090442086053,-86.26391162434257,0
1767372550.573007,1,left_wrist,1.0443,0.2323,0.0859,48.16,17.71,35.98,-0.16349699200085283,0.5710916058487743,0.39585122552964064,0.7003034475014548,84.66864711776269,-68.32841226943242,142.82538776820877,0
1767372550.573007,2,right_wrist,0.893,-0.2035,-0.3455,-5.6,-0.98,0.56,0.16994817274529309,0.7009185162538142,-0.4371587505370285,0.5373295813390434,-147.59386159080387,-64.40061542769747,-84.64310814515808,0
1767372550.623184,1,left_wrist,1.1136,0.1981,0.162,-22.96,-1.19,31.57,-0.17007692451233059,0.5787618487809552,0.37784818481364635,0.7023811724249949,82.40393503081582,-70.31340158077452,143.90736210257245,0
1767372550.623184,2,right_wrist,0.9135,-0.2533,-0.3245,4.34,-0.63,1.47,0.1678754304656318,0.6990180163518209,-0.4362881387204336,0.5411509148780994,-146.4355394448034,-64.55959676418955,-85.51165826161777,0
1767372550.694273,1,left_wrist,1.0619,0.2542,0.0937,-14.07,-15.68,9.94,-0.1889070968237078,0.5889322585219572,0.36803609219484734,0.6942782860523657,83.00211505615825,-73.10028252596118,143.92181226959497,0
1767372550.694273,2,right_wrist,0.914,-0.2245,-0.3538,1.12,-2.73,0.7,0.17069211198806528,0.7000266561386513,-0.43380971245256184,0.540958424448883,-147.12652197564415,-64.88617623818043,-84.81624707856825,0
1767372550.749842,1,left_wrist,1.0599,-0.0859,0.1586,11.9,-7.0,6.58,-0.19595450289776142,0.5919133160838163,0.36738539287055905,0.6901220414840381,83.91381375485477,-73.93875201356649,143.52857535416217,0
1767372550.749842,2,right_wrist,0.9179,-0.222,-0.3401,0.98,-2.38,0.21,0.172271929594462,0.6996023094684879,-0.4318655165147605,0.542559827581805,-147.10847292261008,-65.22341620186452,-84.76435744706102,0
1767372550.8240159,1,left_wrist,1.1112,0.1322,0.1181,-12.18,1.68,9.73,-0.19905230284679953,0.5943266743810123,0.35785329869621535,0.6921668884473091,81.76914508617197,-74.8422424229288,145.04511793427596,0
1767372550.8240159,2,right_wrist,0.8642,-0.2464,-0.3758,-1.68,0.49,-0.49,0.16637357199717992,0.7015579618701049,-0.4369547610970253,0.5377795063334092,-147.1433708943964,-64.15313026727087,-84.77167638837756,0
1767372550.8913531,1,left_wrist,1.1229,0.161,0.1069,-10.08,-3.71,-17.78,-0.20060258554467253,0.5940177818836042,0.35140448591071216,0.6952815003728369,79.29652311493467,-75.24066533406882,147.05937121464873,0
1767372550.8913531,2,right_wrist,0.8984,-0.2425,-0.3406,-2.73,-0.49,0.0,0.1672603473015747,0.6994853527334635,-0.43700845378337355,0.5401553747337557,-146.55587615632888,-64.40230615964902,-85.41840435173924,0
1767372550.9505742,1,left_wrist,1.2098,-0.0756,0.121,-12.32,-4.9,-33.6,-0.1896966110011413,0.5925991422582607,0.3535648020440109,0.6984507020005312,79.96023080747383,-74.14216554919687,145.68155319701532,0
1767372550.9505742,2,right_wrist,0.9252,-0.2474,-0.3309,0.49,-0.56,-1.26,0.16794766814951942,0.6980663898773265,-0.4356042600773256,0.5429049867971936,-146.0371869425406,-64.72714103128942,-85.83516698058905,0
1767372551.017917,1,left_wrist,1.239,0.2513,0.1415,-14.14,-2.66,-55.79,-0.17105363571390422,0.5852548834784856,0.360929782210323,0.705653645485693,80.01814192510739,-71.7046919145369,144.7749771376778,0
1767372551.017917,2,right_wrist,0.8833,-0.2635,-0.3323,0.28,-1.68,-1.89,0.16439843999221485,0.6961914221706382,-0.4345624225322714,0.5472167372687297,-144.59389486496914,-64.79877726319752,-86.84717304268368,0
1767372551.0704372,1,left_wrist,1.2488,0.1864,0.1996,-28.98,-9.94,-66.85,-0.14413904778525993,0.5796653958608506,0.3665995224197833,0.7133139238137922,80.55810534021822,-68.85164918040952,142.55083445641574,0
1767372551.0704372,2,right_wrist,0.9008,-0.2538,-0.3518,4.2,-0.35,-1.82,0.1599839459098609,0.6969599966093984,-0.4355745422588866,0.5467419119779455,-144.18165696965892,-64.35386962236099,-86.9940896333867,0
1767372551.122047,1,left_wrist,1.2849,0.1498,0.205,13.02,-17.43,-47.88,-0.13270028226424477,0.5770730595283581,0.3806253071892128,0.7102828271756875,83.49027521816923,-67.04160528198051,139.98842685357718,0
1767372551.122047,2,right_wrist,0.9057,-0.2181,-0.3582,1.75,1.4,-1.68,0.1635923772990044,0.6990625939333105,-0.4326039479305381,0.5453465394479039,-145.34318130944035,-64.68949094024416,-85.85497390704846,0
1767372551.194119,1,left_wrist,1.0097,0.4524,0.1191,-20.02,-4.27,-28.98,-0.10026524904810671,0.5653768779036661,0.37597377478723104,0.7272823292487345,79.80180031609748,-63.866660955248676,140.6476186680205,0
1767372551.194119,2,right_wrist,0.8862,-0.244,-0.3372,-4.9,1.61,-1.33,0.1646379130819872,0.6963118651326458,-0.43341021574623134,0.5479048539101561,-144.57784190147868,-64.92270229088561,-86.76584059002079,0
1767372551.274008,1,left_wrist,0.8398,0.5241,0.0776,9.17,-2.45,-0.7,-0.09854535706602514,0.5635773770894413,0.382196491338115,0.7256687912832889,80.70413074740767,-63.2868711878144,140.1954318132096,0
1767372551.274008,2,right_wrist,0.9228,-0.2342,-0.3338,11.69,-2.38,-1.05,0.16240615157775787,0.696507579085314,-0.4272504572032577,0.5531351381227054,-143.68948515683618,-65.40904817404387,-86.83202994105874,0
1767372551.325512,1,left_wrist,0.8252,0.5134,0.0293,-22.82,-6.09,8.68,-0.09159124538003402,0.5672847036190862,0.3764851554140286,0.7266760189812337,80.66107945149298,-63.30745819157951,139.11301401787736,0
1767372551.325512,2,right_wrist,0.9013,-0.2157,-0.3743,-0.49,-0.07,-4.27,0.1645127538366788,0.6995671467877193,-0.42600364193243434,0.5496019086763291,-145.1356892112982,-65.38580431358811,-85.46707666240907,0
1767372551.39125,1,left_wrist,0.6554,0.4426,0.0703,-28.42,2.59,25.97,-0.09041959919303928,0.5707362918340823,0.35601732977566125,0.7343950177967301,77.2429418726599,-64.5117651761222,140.5248813352477,0
1767372551.39125,2,right_wrist,0.8789,-0.2279,-0.3562,-4.69,-1.75,-2.87,0.16569811827568157,0.7020594499767716,-0.42729968535710366,0.5450427884046637,-146.40384276358245,-65.08182196926295,-84.45838426455875,0
1767372551.4427168,1,left_wrist,0.7462,0.5431,0.1025,-25.34,4.76,26.18,-0.0899921258056792,0.5720338699068118,0.3440568689523403,0.7391234943493028,74.98520444132959,-65.16651197504109,141.64828632655505,0
1767372551.4427168,2,right_wrist,0.9004,-0.2625,-0.3011,0.7,-5.39,-2.1,0.16411703787909424,0.7015860953765878,-0.4269257713183408,0.546421938099364,-145.89962421377146,-65.07437971218805,-84.78381136974326,0
1767372551.498949,1,left_wrist,0.6529,0.4607,-0.0063,-33.04,7.98,18.06,-0.08593753640755952,0.5733934558190354,0.33202074660156533,0.7440409319965149,72.86217543454512,-65.54995571209177,142.34126054224888,0
1767372551.498949,2,right_wrist,0.9292,-0.2362,-0.3182,3.64,-1.33,-2.03,0.16452693793803116,0.7009558287533073,-0.42418310516572905,0.5492362935217038,-145.5136873474877,-65.44459778327409,-84.91739769915259,0
1767372551.576621,1,left_wrist,0.7442,0.4441,-0.0664,2.38,-6.86,17.22,-0.08941080584982965,0.5793599979098839,0.3314304263719301,0.7392574471008487,74.24872974387024,-66.32805655269634,141.15258938277424,0
1767372551.576621,2,right_wrist,0.8994,-0.1962,-0.3567,1.61,-2.24,-2.31,0.16708578918967076,0.7080210221416915,-0.41921804729045453,0.5431802648129599,-148.28357889008637,-65.40285476763204,-81.93131542296413,0
1767372551.646695,1,left_wrist,0.6456,0.3562,0.0054,15.54,-9.1,6.51,-0.08363920480990246,0.591472894841703,0.33428725198498244,0.728983080219748,78.81267120702822,-66.67395824459417,136.3126564008048,0
1767372551.646695,2,right_wrist,0.9179,-0.2269,-0.3382,-1.96,-1.4,-0.63,0.16756379398143642,0.7062645822259286,-0.41910952625113645,0.5453988630766746,-147.71246104875362,-65.6226594535905,-82.51391210783198,0
1767372551.720387,1,left_wrist,0.5993,0.3543,0.0468,6.02,9.8,-2.31,-0.0824916125945792,0.5861978477774384,0.3397394483194234,0.730851780026743,78.42562087534621,-65.90906801183415,137.12489253507093,0
1767372551.720387,2,right_wrist,0.9057,-0.2362,-0.3211,-0.91,-0.49,-0.98,0.16387792582538527,0.7037107546099106,-0.42025624045989235,0.5489261258384746,-146.12161225862553,-65.54848645920198,-83.87989026151688,0
1767372551.794482,1,left_wrist,0.6266,0.3475,-0.0024,25.13,6.23,-16.03,-0.08324265427484553,0.576228435034767,0.35710579754223226,0.7304155670085271,79.24432974574597,-64.31959873488788,138.00404528342523,0
1767372551.794482,2,right_wrist,0.8994,-0.2279,-0.3353,2.52,-4.2,-1.05,0.16348456323756613,0.7033133189858217,-0.4185243101386866,0.5508725576239086,-145.761145626328,-65.74365322374344,-84.02646358483514,0
1767372551.871003,1,left_wrist,0.6993,0.3797,0.0581,5.95,0.28,-26.46,-0.0729785896722563,0.5702556062773697,0.36893011032918566,0.7303240668711204,80.35944365024307,-62.472707991598504,137.17384482558614,0
1767372551.871003,2,right_wrist,0.8921,-0.2396,-0.3011,-3.15,-4.06,1.47,0.15906523054768265,0.7017273189619114,-0.4219020966589365,0.5516118590894632,-144.60162229527992,-65.28272274735691,-85.137181366355,0
1767372551.921188,1,left_wrist,0.5729,0.4758,-0.0132,13.09,26.18,-29.12,-0.06804775060496207,0.5561160823449922,0.3828915134628654,0.7345056129894305,79.72349750853802,-60.348497566155395,138.79501880895612,0
1767372551.921188,2,right_wrist,0.8769,-0.2689,-0.3021,8.05,-2.24,-1.82,0.15468073041833033,0.7008543383203953,-0.42034148601050353,0.5551487217252816,-143.34243762675328,-65.25698908254863,-85.8559873745039,0
1767372551.994358,1,left_wrist,0.8291,0.1527,0.0581,22.4,-70.98,-21.07,-0.05655922127182,0.5659492290601529,0.4153692810903558,0.7099090680797259,88.43760274996181,-58.26946064446557,132.1603579205217,0
1767372551.994358,2,right_wrist,0.9472,-0.202,-0.327,3.71,-7.91,-1.33,0.1563267068337672,0.7039528918754708,-0.41689114930152465,0.553366114236068,-144.5331762879943,-65.42667180316818,-84.48377029491321,0
1767372552.06738,1,left_wrist,1.1756,0.771,0.1161,86.1,-14.0,8.96,-0.07734683752812722,0.5669433449542938,0.439314151995335,0.6925285453994325,93.17012843998235,-58.562324918031486,131.43874393076413,0
1767372552.06738,2,right_wrist,0.8208,-0.2552,-0.3206,-1.82,-0.42,-2.8,0.15679212535623577,0.7060245557143912,-0.4167245911389008,0.5507142374178163,-145.38816088746628,-65.27336391951735,-83.67130876023485,0
1767372552.122623,1,left_wrist,0.7222,0.6959,-0.0264,-42.42,-0.07,0.49,-0.06343315332721,0.5662430206767523,0.42900732794772584,0.7009263792731634,91.01224901320028,-58.01814954477722,131.46145352240413,0
1767372552.122623,2,right_wrist,0.895,-0.2533,-0.3455,2.87,-7.98,0.56,0.15030746876864237,0.7071616976606714,-0.41941607381190793,0.5490174452804256,-144.83707642097664,-64.49809288905074,-83.95501070223918,0
1767372552.197643,1,left_wrist,0.854,0.5871,0.1366,63.28,-7.91,12.04,-0.08305340905862739,0.5806085395390178,0.4491046542563134,0.6740184452842714,98.66916510781296,-59.01265927512837,127.29991401764114,0
1767372552.197643,2,right_wrist,0.9404,-0.2269,-0.3489,-0.98,-1.26,-0.77,0.15432725974982694,0.7078210019960589,-0.41686735599103397,0.5489937463582342,-145.61317025457686,-64.93754839858305,-83.26833017350589,0
1767372552.248582,1,left_wrist,1.0917,0.3338,0.083,13.72,0.63,23.73,-0.0964082629668356,0.5848029392996349,0.44424944281588785,0.6718284018825031,99.23314152015183,-60.62560238406314,127.32583329571983,0
1767372552.248582,2,right_wrist,0.913,-0.2391,-0.326,-0.56,-1.33,-2.1,0.1557978040952426,0.706785363835887,-0.4152469090774154,0.5511365513265527,-145.37649423889988,-65.29334138724931,-83.45568784483751,0
1767372552.325844,1,left_wrist,1.0604,0.467,0.1064,10.29,-1.96,29.26,-0.108826885235856,0.5895702612448077,0.43760227188638073,0.6701252627274017,99.68304760255828,-62.30295972195434,127.21730342872065,0
1767372552.325844,2,right_wrist,0.8999,-0.2308,-0.3387,1.05,-2.03,-1.19,0.157323059045982,0.7068596255707518,-0.41450761590039753,0.5511645500129337,-145.63399783241306,-65.45222178449035,-83.25402528418881,0
1767372552.402403,1,left_wrist,1.0692,0.2952,0.063,55.09,3.99,35.14,-0.13194275462723196,0.5970004850825069,0.4259792484860221,0.6668757081885,100.45056507297005,-65.32082444868342,127.18633183096536,0
1767372552.402403,2,right_wrist,0.875,-0.2518,-0.347,2.24,-1.96,-1.33,0.1529314656401112,0.7076326436454319,-0.4163164544095392,0.5500441966355198,-145.24530898262066,-64.93046568460053,-83.45947417285431,0
1767372552.472418,1,left_wrist,1.2073,0.3636,0.1649,-37.24,-5.25,40.39,-0.1348030683557378,0.607098201551187,0.40244212988799555,0.6717888347735516,99.19844020368203,-67.54569728378135,126.37495063777946,0
1767372552.472418,2,right_wrist,0.914,-0.2191,-0.324,-0.14,0.98,-0.35,0.15841329850488928,0.7090088118392733,-0.41089339695130395,0.5507979193251197,-146.3905883480361,-65.67492774029247,-82.24583546153745,0
1767372552.548519,1,left_wrist,1.0702,0.1889,0.0425,32.13,-6.16,15.19,-0.1549713504528688,0.6140996746648021,0.3984642889591732,0.6633940612785578,101.97854542215936,-69.76488989552949,124.86789097434468,0
1767372552.548519,2,right_wrist,0.9277,-0.2289,-0.3255,0.0,-2.24,0.98,0.15899520546865645,0.7077271533768232,-0.41005955983592896,0.5528959743010274,-145.95687492559134,-65.9224351322589,-82.63267428364412,0
1767372552.6215749,1,left_wrist,1.0565,0.224,0.0786,-26.53,0.07,-1.12,-0.14987702051259466,0.6150212588707915,0.3884667102200606,0.6696113386958568,99.8492004949399,-70.0674969032959,125.62444058191443,0
1767372552.6215749,2,right_wrist,0.896,-0.2206,-0.3445,4.76,-1.05,-0.7,0.1567235099814457,0.7098093698329127,-0.4080238763522743,0.5523811331345081,-146.17065204092137,-65.79222425474809,-82.04011175990966,0
1767372552.676681,1,left_wrist,1.0697,0.1732,0.0893,-25.69,2.03,-14.49,-0.14172082797479,0.6133430895427565,0.3819079976035698,0.676662207304884,97.32429163969198,-69.7681304514575,126.86137084987759,0
1767372552.676681,2,right_wrist,0.9038,-0.2416,-0.3333,-0.49,-1.4,-0.35,0.1535226678429814,0.7080949563434957,-0.4099097262232664,0.5540815279422725,-145.04938451382412,-65.58085032517296,-83.06234300929036,0
1767372552.7449,1,left_wrist,1.2098,0.0898,0.1635,-29.75,-2.17,-42.84,-0.11653756868887681,0.6035985562001804,0.39202643357997113,0.6843997760167017,95.20002551888741,-66.57439445076463,127.89298008241538,0
1767372552.7449,2,right_wrist,0.9126,-0.2298,-0.3338,-1.54,-1.26,-0.07,0.15724597116474373,0.7081550362654196,-0.4077936224930011,0.5545218756896922,-145.6243849637241,-66.01088694087566,-82.59201741320933,0
1767372552.79774,1,left_wrist,1.1766,0.2943,0.0956,-38.08,-9.66,-59.08,-0.08978399571376655,0.597940451556032,0.3936830815708879,0.6924013877740921,93.27323004945387,-63.99064736696082,127.80684851645199,0
1767372552.79774,2,right_wrist,0.9145,-0.2425,-0.3206,0.7,-2.17,-0.21,0.1554196416217496,0.7064759980619356,-0.4080560412209838,0.5569799515095832,-144.65056615178798,-66.03951902389194,-83.42123474247103,0
1767372552.868363,1,left_wrist,1.2054,0.2816,0.1474,1.75,-3.71,-37.94,-0.08078118254154806,0.5924335615142103,0.40135549167747586,0.6938376215218579,92.99444394612298,-62.49236926178249,128.10085154159998,0
1767372552.868363,2,right_wrist,0.8969,-0.2255,-0.3377,2.45,-3.01,-0.91,0.15355224570973441,0.7124226711414744,-0.40637014984083697,0.5511251643678409,-146.43763767732003,-65.51450447454847,-81.3619883556783,0
1767372552.920405,1,left_wrist,1.22,0.4875,0.0771,-28.07,1.05,-37.1,-0.0648662547092844,0.5862022731078678,0.3994949453391299,0.7018283640974087,90.76341496110669,-61.00408219250696,128.88711115322636,0
1767372552.920405,2,right_wrist,0.9077,-0.225,-0.3211,-1.4,-3.43,0.21,0.15457373260100324,0.7114867786780283,-0.4056963222567198,0.5525432282306315,-146.23592273973225,-65.73777549591972,-81.5738562556794,0
1767372552.991715,1,left_wrist,0.9667,0.5636,0.062,3.64,2.94,-7.35,-0.06259911003182067,0.5760705177356021,0.40488937422916016,0.7073108967458217,89.03707348544795,-59.95281438188693,130.99255724734587,0
1767372552.991715,2,right_wrist,0.9072,-0.2469,-0.3387,2.8,-2.31,0.35,0.14950322157614898,0.7104110246925746,-0.4075161755777708,0.5539815243995656,-145.0033825728961,-65.36190458866723,-82.5477350665988,0
1767372553.041825,1,left_wrist,0.9867,0.5534,0.0005,7.77,4.69,7.84,-0.07031396508775614,0.5786642005179817,0.40389901515278714,0.7050313999469325,89.52738538529731,-60.78007233941848,131.02231748884054,0
1767372553.041825,2,right_wrist,0.9174,-0.2074,-0.3475,1.82,-0.42,-0.77,0.1527301635097805,0.7125669297112834,-0.4046689142743157,0.5524173582140199,-146.22291434858406,-65.62710413750045,-81.33723033081452,0
1767372553.118538,1,left_wrist,0.793,0.6222,0.0,-17.5,-8.89,17.01,-0.06604359602243819,0.5829621098060598,0.3974282736970275,0.7055807460674456,89.47755646312564,-61.06259870058583,130.08842174029772,0
1767372553.118538,2,right_wrist,0.8891,-0.2401,-0.3245,1.19,-2.31,-1.26,0.15221531991036422,0.7141825684254312,-0.402899035078911,0.5517663662043222,-146.6162055670101,-65.6131782331006,-80.73837345575448,0
1767372553.17188,1,left_wrist,0.7945,0.6725,0.0708,-3.85,-14.21,22.82,-0.06663032474221627,0.5888073005432688,0.3928313857314405,0.7032423942254987,90.2442757179507,-61.702432131282215,128.90719317465027,0
1767372553.17188,2,right_wrist,0.8891,-0.2401,-0.3245,1.19,-2.31,-1.26,0.1495021450581235,0.7127670362152105,-0.40341265890184846,0.5539589220743227,-145.60473331227618,-65.54814807125956,-81.55696339421334,0
1767372553.223508,1,left_wrist,0.5763,0.4597,0.0844,-51.94,-15.68,19.53,-0.05422375612649906,0.5955939721066181,0.3733267081684146,0.70919304398022,88.54737223686942,-62.284588132098605,127.73832796737501,0
1767372553.223508,2,right_wrist,0.9096,-0.2181,-0.3436,3.64,-1.96,-1.54,0.15193174883742322,0.715638247671497,-0.40010797260007763,0.5519893589796157,-146.93376298271923,-65.73125221099302,-80.13156820506298,0
1767372553.294865,1,left_wrist,0.6105,0.4392,0.0039,-13.86,-7.35,27.37,-0.05469766411999133,0.6087742689809025,0.3606907904915837,0.7044886149691426,90.18266706758018,-63.79333054689536,124.92192896007026,0
1767372553.294865,2,right_wrist,0.8979,-0.2103,-0.3318,-2.31,-3.78,-1.96,0.15602091589337735,0.7166577230047015,-0.3977230008696824,0.5512491237550614,-147.97850473673375,-66.09521222338957,-79.20700167388854,0
1767372553.368435,1,left_wrist,0.5583,0.2904,-0.1191,-14.21,-2.8,18.83,-0.05575353738545061,0.6149726812807211,0.35299128704060406,0.7029205471607924,90.74864864791064,-64.67753163471592,123.71392379669173,0
1767372553.368435,2,right_wrist,0.917,-0.2211,-0.3304,2.59,-2.8,0.0,0.1525654369191292,0.7148777534954961,-0.3973385869840626,0.554793323958045,-146.60294003415447,-66.12902572932794,-80.2326531720722,0
1767372553.454392,1,left_wrist,0.447,0.3304,-0.0576,-10.08,12.95,-5.46,-0.05242051615492246,0.6155274402567359,0.3543442248752476,0.702010135307605,91.17330811169668,-64.3377857805743,123.14085313767295,0
1767372553.454392,2,right_wrist,0.9067,-0.2196,-0.3382,-0.35,-0.49,-0.91,0.15313064912592317,0.7172637699295615,-0.39745673207081184,0.5514633576007542,-147.6202491413381,-65.897307627474,-79.29838307913772,0
1767372553.522582,1,left_wrist,0.5388,0.3333,0.0063,17.43,20.79,-10.99,-0.05359032271782815,0.6047726469606947,0.3647567478258278,0.7059253768739863,89.69388373684288,-63.24549886832156,125.71008143124953,0
1767372553.522582,2,right_wrist,0.9345,-0.2757,-0.3104,8.05,-5.6,-1.12,0.15054718335635048,0.7163267933911993,-0.3961078507588582,0.5543555187968722,-146.68641650378427,-65.98870597753883,-79.8689046824808,0
1767372553.591375,1,left_wrist,0.4431,0.3587,-0.1259,2.1,29.19,-30.31,-0.03989953508512146,0.579437066874517,0.387890266458509,0.7156827885443344,86.89746399672106,-59.35472941807272,129.66024897175487,0
1767372553.591375,2,right_wrist,0.8769,-0.1967,-0.3714,6.02,-4.55,-1.4,0.148572206175145,0.7202194560827081,-0.3947905606354354,0.5507727733515307,-147.68284977867307,-65.5973209312863,-78.61160174249987,0
1767372553.6486132,1,left_wrist,0.5012,0.3206,0.0112,42.0,-24.43,-23.31,-0.03575691274658037,0.5810006750702716,0.41044338329998475,0.7019229928303987,91.29123959145763,-57.67063325636806,127.064065445805,0
1767372553.6486132,2,right_wrist,0.8647,-0.224,-0.3362,-7.07,-4.83,-0.7,0.14610655637070277,0.7202722133410857,-0.3992635295550158,0.5481326909075017,-147.48061135317823,-64.99616960955832,-79.05144168582808,0
1767372553.718344,1,left_wrist,0.8472,0.6705,0.2054,52.08,-42.77,-7.14,-0.03806252844654415,0.5893647893257739,0.4284452655847997,0.6838384629641804,96.5188966980994,-57.00057603386337,123.72725733602124,0
1767372553.718344,2,right_wrist,0.9487,-0.2064,-0.325,0.0,-3.71,-0.84,0.14706901479124226,0.7199307092611434,-0.39693370431089237,0.5500128299713682,-147.4059784161256,-65.32570425288453,-78.97147253440744,0
1767372553.801855,1,left_wrist,0.673,0.3689,-0.0976,-21.84,4.13,-11.34,-0.02771939600360762,0.5869963547334485,0.424189852475932,0.689006446755969,95.07313300529864,-56.346600349723644,123.93109289210057,0
1767372553.801855,2,right_wrist,0.8662,-0.245,-0.326,-3.29,-1.75,-2.03,0.14513617571531612,0.7184408060270773,-0.39893793577880926,0.5510234315620699,-146.6096523438504,-65.16977620937547,-79.78890210472878,0
1767372553.87134,1,left_wrist,1.0136,0.3714,0.1752,38.64,-42.0,19.88,-0.037974926501711935,0.602405459730064,0.4284700951212577,0.6723681615241609,99.94021055979633,-57.417694467401255,120.25535963935248,0
1767372553.87134,2,right_wrist,0.9311,-0.185,-0.3728,-2.8,-2.52,-0.56,0.1445626928106302,0.720596854674544,-0.398835716600244,0.5484267244076124,-147.28292217249785,-64.9180885448708,-79.07848772791277,0
1767372553.924078,1,left_wrist,1.0399,0.4553,0.1264,23.73,16.8,40.67,-0.06105644292644661,0.6037461909840984,0.4219931723181278,0.6735609921649597,99.76817849295591,-59.86564678385977,121.66286288237839,0
1767372553.924078,2,right_wrist,0.873,-0.2381,-0.3333,-0.84,-2.8,-0.14,0.14197711710867944,0.7190033441588244,-0.4003036279113639,0.5501215272891399,-146.3111817657838,-64.78914173724665,-79.96160999183017,0
1767372553.9945312,1,left_wrist,1.0951,0.3475,0.0361,21.77,7.63,57.33,-0.11334494475627424,0.6123096721053941,0.39847591106690805,0.6733845389105539,99.61693682706502,-66.20149437268421,123.79698835710933,0
1767372553.9945312,2,right_wrist,0.9418,-0.203,-0.325,0.28,-6.79,0.49,0.14363700734010545,0.7200418837298741,-0.398493287391706,0.5496464278978478,-146.8879279364503,-64.96015461507007,-79.3550048111991,0
1767372554.072364,1,left_wrist,1.2039,0.3353,0.1742,-19.95,7.56,44.52,-0.12422040148143224,0.617685752044332,0.3778984549715445,0.6783998535578699,97.71724051148293,-68.74263034211295,124.63667067315824,0
1767372554.072364,2,right_wrist,0.8764,-0.2347,-0.3562,4.83,-3.36,-1.54,0.14112990333810743,0.7213297198480701,-0.39704011875071765,0.5496589212867349,-146.80374754328932,-64.82854949360257,-79.09440687447584,0
1767372554.148751,1,left_wrist,1.1131,0.0659,0.123,28.49,4.55,22.12,-0.15060842487136336,0.6176213028943116,0.3750851587625688,0.6746644738275155,97.87818253890627,-71.14797896541172,126.3941717445348,0
1767372554.148751,2,right_wrist,0.9004,-0.2089,-0.3387,5.25,-5.6,-1.12,0.14237243304645583,0.7231673336262351,-0.3931976156334522,0.5496860312437656,-147.4889471357832,-65.09278194597498,-78.1502011791953,0
1767372554.21808,1,left_wrist,1.1229,0.0659,0.1225,2.1,-7.56,18.41,-0.1582483317470303,0.6227660708755697,0.3683094039807599,0.6719137365799455,98.96348202529173,-72.4508893852735,125.30053927203329,0
1767372554.21808,2,right_wrist,0.9101,-0.2152,-0.3484,-2.8,-1.47,0.56,0.14773551844767413,0.7236434406379924,-0.38954237080309295,0.5502464254856283,-148.51203966122142,-65.70830575071093,-77.22426359640636,0
1767372554.268501,1,left_wrist,1.1058,0.0795,0.0776,-1.12,-1.4,17.36,-0.16585035695402342,0.6262080722674263,0.3603457212358846,0.671198979820684,99.05161116023376,-73.76997885715897,125.10089403777927,0
1767372554.268501,2,right_wrist,0.9145,-0.2011,-0.327,-1.05,-3.36,0.21,0.1498046180803201,0.7232586901152359,-0.3881399227021374,0.5511831310729505,-148.7135935323441,-66.0057518134613,-77.05582476019015,0
1767372554.3208032,1,left_wrist,1.0653,0.0571,0.0561,-5.11,2.73,9.38,-0.17079938554892216,0.6275988262221206,0.3530122044489281,0.6725545827149164,98.08444480811087,-74.74785339171191,125.80303314204583,0
1767372554.3208032,2,right_wrist,0.935,-0.2386,-0.3255,1.68,-0.28,-0.14,0.1481017542463819,0.7212188600030647,-0.38801426656489907,0.5543953059930499,-147.60895878817382,-66.15067003532408,-77.98319301904775,0
1767372554.391698,1,left_wrist,1.0443,0.0493,0.0815,-10.78,-1.05,-3.92,-0.1753956420831987,0.628972097645422,0.3456340133681655,0.6739195782322657,97.00648479615816,-75.69603146241411,126.58670352659544,0
1767372554.391698,2,right_wrist,0.916,-0.2137,-0.3504,4.48,-0.07,-0.63,0.14715675794828054,0.7237634284124154,-0.38701334810414667,0.5520254130672576,-148.3217318041073,-65.91974925625077,-77.11618468160165,0
1767372554.441988,1,left_wrist,1.1297,0.1962,0.1015,-7.63,-1.4,-31.85,-0.16562117761894968,0.6238658253172199,0.34996846834069667,0.6788837372427206,94.97460974856662,-74.3630851618694,128.2097709845779,0
1767372554.441988,2,right_wrist,0.9067,-0.2137,-0.3279,0.28,-2.03,-0.63,0.14748559203450598,0.7224896629163172,-0.38599652442862553,0.5543134223977614,-147.86447681069598,-66.18149520271285,-77.48844907338436,0
1767372554.498816,1,left_wrist,1.1863,0.1337,0.1279,-9.73,-13.44,-65.59,-0.1439716407929973,0.6178153998186486,0.363058779903477,0.6824695016843567,94.86100967638251,-71.40939039693538,127.74438510958777,0
1767372554.498816,2,right_wrist,0.9057,-0.2172,-0.3445,3.64,-1.33,-0.63,0.14354418880203665,0.7240040317573739,-0.3871636769801686,0.5525554407364283,-147.71045043591866,-65.67935309732927,-77.43808334588981,0
1767372554.567391,1,left_wrist,1.1639,0.1449,0.103,-38.36,-15.19,-94.64,-0.10574792364201657,0.6092284595149606,0.3748406585008764,0.690762290152741,93.43209416359258,-67.06408888361601,127.14521667555576,0
1767372554.567391,2,right_wrist,0.9155,-0.2255,-0.3172,1.54,-2.52,-0.42,0.14549942520924666,0.7236769663190838,-0.3834928470323237,0.5550268479614558,-147.79725807175316,-66.1938389014229,-77.15192769747996,0
1767372554.620331,1,left_wrist,1.2639,0.3362,0.1493,10.29,-17.57,-87.99,-0.08121977321902549,0.5986203269481087,0.39930180131597554,0.6896485511248514,94.48542851287255,-62.9408901771014,126.42539010498115,0
1767372554.620331,2,right_wrist,0.9121,-0.2294,-0.3504,1.89,-1.26,-0.56,0.14121581538661893,0.7242445955319687,-0.3855475369759501,0.5539683709917069,-147.2698797934154,-65.68674027717705,-77.52414171035983,0
1767372554.698953,1,left_wrist,1.139,0.4665,0.1059,-12.74,4.69,-52.36,-0.05863063545351192,0.5761203479873361,0.43009492353562734,0.692579345613303,93.66066486585794,-58.04365247327715,128.47446945175463,0
1767372554.698953,2,right_wrist,0.8886,-0.2118,-0.3348,1.05,-2.66,-1.61,0.1445940352960402,0.7253896859672029,-0.3822810117338551,0.5538624346504737,-148.20106085627918,-66.07587758359905,-76.56871951824095,0
1767372554.750645,1,left_wrist,1.0873,0.4114,0.0259,2.24,-1.19,-30.31,-0.05309636899034784,0.5718580629829044,0.43537707746883353,0.693257478730795,93.49397424063469,-57.047693734575965,128.7301475815115,0
1767372554.750645,2,right_wrist,0.9218,-0.2289,-0.3172,1.26,-2.03,0.07,0.1433428414078499,0.7237957530410388,-0.3819753260464229,0.5564776617157319,-147.34555159852553,-66.21413472101781,-77.27281812764514,0
1767372554.818411,1,left_wrist,0.8413,0.5602,-0.0151,-14.91,7.0,3.22,-0.05021720506733735,0.5679711197094116,0.42979603406927236,0.7001159965245668,91.53850187930209,-56.97760724618941,129.9281474534791,0
1767372554.818411,2,right_wrist,0.9087,-0.2172,-0.3123,-1.26,0.42,-0.14,0.14387007030925747,0.720643069649371,-0.3786507604120128,0.5626709257416325,-146.08907482651887,-66.91480271329254,-78.21981325802392,0
1767372554.871287,1,left_wrist,0.7925,0.5856,-0.0634,-11.55,-7.56,13.37,-0.04753744808342608,0.573142682305662,0.4261285127932979,0.6983281086521997,92.13501383172999,-57.24559450644906,128.7291211826585,0
1767372554.871287,2,right_wrist,0.9287,-0.2528,-0.3304,2.03,0.84,-0.98,0.1396889914128348,0.7193165208146757,-0.38032839978614147,0.56428807968736,-144.84505827165208,-66.64392988509348,-79.26291752675516,0
1767372554.921382,1,left_wrist,0.7486,0.7159,0.1215,-14.91,-10.36,21.07,-0.04604717014815931,0.5777832908060493,0.4173514157486429,0.6999027952217952,91.72929606135413,-57.91057472093147,128.14068126921694,0
1767372554.921382,2,right_wrist,0.934,-0.1928,-0.3314,4.76,-3.64,-2.8,0.1420647595776284,0.7226036165485048,-0.3761159222294999,0.5623152411971641,-146.3682141284134,-66.85713082099994,-77.55814841740873,0
1767372554.991804,1,left_wrist,0.6071,0.5344,0.0561,-10.78,-2.17,21.91,-0.04602147419642566,0.5807572357677889,0.4052232079217417,0.7045546173134895,90.32875218124165,-58.8314326598799,128.36134938621714,0
1767372554.991804,2,right_wrist,0.9004,-0.245,-0.3104,-1.61,-0.91,-4.48,0.14038603321885845,0.7214156790153429,-0.37696368037336114,0.563692791711297,-145.61918928012864,-66.8027880572767,-78.23756003553781,0
1767372555.043992,1,left_wrist,0.6627,0.4656,0.0068,-7.91,7.21,21.21,-0.04843170932253386,0.5800150049770503,0.3997337133091145,0.7081312886588733,89.14715197869589,-59.336026336476834,129.21995327186562,0
1767372555.043992,2,right_wrist,0.9023,-0.2338,-0.3445,5.53,-2.31,-2.94,0.13662917297116045,0.7239064446788692,-0.3768251333233922,0.5615111284217116,-145.83645121360212,-66.33866928597908,-77.71158370633412,0
1767372555.100449,1,left_wrist,0.6129,0.4104,-0.0098,-12.46,1.89,21.42,-0.04902073935803597,0.5826111510137102,0.39370055615289967,0.7093384847251478,88.72860235318379,-59.8982390777431,129.102203647574,0
1767372555.100449,2,right_wrist,0.8882,-0.205,-0.3479,1.96,1.68,-3.01,0.13776281140686375,0.7263292163180944,-0.3753038031932899,0.5591192472314579,-146.90113795520955,-66.29323144994933,-76.6161398297626,0
1767372555.1721642,1,left_wrist,0.5588,0.3977,-0.0703,-13.44,0.0,14.35,-0.04807227853661799,0.5861738425988463,0.3886900696847553,0.709231493955014,88.7685233301549,-60.32369440456286,128.49585035879295,0
1767372555.1721642,2,right_wrist,0.9477,-0.242,-0.3026,2.31,-0.35,-1.19,0.1388040708799651,0.7225874225721706,-0.37418718258606304,0.5644331661374634,-145.62885501700364,-66.86505268538147,-77.83443285085862,0
1767372555.241672,1,left_wrist,0.5602,0.3748,0.0127,-1.96,25.2,-5.18,-0.04782458894745727,0.5724402460409255,0.39519694465782423,0.7168293718436293,86.3931052331199,-59.146815604821946,131.5346024389379,0
1767372555.241672,2,right_wrist,0.9272,-0.1674,-0.3377,0.63,-0.35,-2.31,0.142611875906802,0.7249853097955213,-0.3712101956349019,0.5623710021753722,-147.18470067902965,-67.11678999655739,-76.33211404810183,0
1767372555.296625,1,left_wrist,0.7076,0.4807,-0.041,9.87,14.07,-12.74,-0.046939969951090184,0.5665547919539291,0.4038336800936309,0.7167500720314343,86.53101149393257,-58.21909422031301,132.17765745282884,0
1767372555.296625,2,right_wrist,0.8989,-0.2225,-0.3372,0.91,-1.47,-2.45,0.13973445637552379,0.7265119406328949,-0.3726239520170673,0.5601839628215397,-147.2464459628901,-66.64951334697425,-76.17814840722069,0
1767372555.3508391,1,left_wrist,0.6261,0.4148,0.0332,8.4,11.2,-17.71,-0.04250169695134026,0.5568746482087255,0.4124105028068274,0.7197234254304111,85.85235485587148,-56.78780516186263,133.37441531606666,0
1767372555.3508391,2,right_wrist,0.8857,-0.2103,-0.3167,1.82,-4.83,0.21,0.13718495049685842,0.7255059212616364,-0.3728303690013796,0.5619777251117467,-146.369226483746,-66.59641377088965,-76.85112215192477,0
1767372555.404684,1,left_wrist,0.3884,0.3963,-0.0434,2.94,-4.83,-24.29,-0.031778886035572704,0.5534311785855172,0.42261887761100864,0.7170058000174022,86.97031008406492,-55.13361859350441,132.3909474775424,0
1767372555.404684,2,right_wrist,0.8891,-0.2572,-0.3045,-2.45,-3.71,0.42,0.13422592882577825,0.7241240874734327,-0.3754955205043241,0.5626995824174853,-145.39393379355369,-66.30976909765363,-77.8239185276512,0
1767372555.4729862,1,left_wrist,0.7052,0.4241,-0.0386,63.91,-39.55,-11.97,-0.03789029088878999,0.5652415643412718,0.4455296941441628,0.6932312683608578,93.58226378583345,-54.83021356644568,128.44452048690087,0
1767372555.4729862,2,right_wrist,0.954,-0.1991,-0.3392,0.14,-2.31,-0.77,0.13902757176503092,0.7272441701176714,-0.370137708441923,0.5610573305004942,-147.28421221591665,-66.77597013210249,-75.84584601327172,0
1767372555.5452821,1,left_wrist,0.7261,0.5388,-0.0127,-38.22,2.45,-4.41,-0.01466955501889234,0.5669265466076907,0.43084856255621706,0.701960548072516,91.37040788232024,-53.955560155686676,127.32289404868025,0
1767372555.5452821,2,right_wrist,0.8721,-0.2347,-0.2991,2.24,-5.18,-1.54,0.13513779812839877,0.7267365926814117,-0.3708844882176674,0.5621711454480203,-146.35223122604552,-66.54050105399902,-76.51748974935302,0
1767372555.5972118,1,left_wrist,0.795,0.448,0.0,71.33,-19.88,25.13,-0.03975806638716208,0.5786716485969299,0.44335433445648237,0.6833705827630532,96.40413310593061,-55.70507294095951,125.48976739946983,0
1767372555.5972118,2,right_wrist,0.9018,-0.2059,-0.3411,-3.29,-7.56,-0.91,0.13635284641861772,0.730790392710725,-0.37152489124803556,0.5561677430221755,-148.1309388227482,-66.09251768019767,-74.94083971678363,0
1767372555.651482,1,left_wrist,1.1209,0.5246,0.1157,-11.76,-9.8,32.27,-0.04664604862116041,0.5876402596883827,0.4291279186405788,0.6843626968096721,96.31606696439783,-57.60261599594584,124.69907211546635,0
1767372555.651482,2,right_wrist,0.9126,-0.2098,-0.324,3.01,-4.13,-2.73,0.1366690335491967,0.730771659765686,-0.3688549885773439,0.5578891950500928,-148.09025985224935,-66.37691283034773,-74.74853575822753,0
1767372555.702518,1,left_wrist,0.9897,0.3875,0.121,28.42,24.01,59.99,-0.07861499207940077,0.5905116800324451,0.4188221738499829,0.6853492726028019,95.72342248216013,-61.076342504513036,126.87655934375074,0
1767372555.702518,2,right_wrist,0.8901,-0.2196,-0.3504,-0.91,-4.13,-0.91,0.13395438809302415,0.7328647637114483,-0.37110376577560994,0.5542990664325059,-148.402627682365,-65.76568761210993,-74.44553358773429,0
1767372555.776546,1,left_wrist,1.2727,0.3035,0.0834,-6.02,19.39,82.6,-0.10835112475483162,0.6001937913271721,0.3917086957152606,0.688906194135114,93.81788967345777,-65.76068144559609,128.58604233089568,0
1767372555.776546,2,right_wrist,0.9282,-0.2069,-0.3357,-3.43,-2.45,-4.2,0.1395868193900083,0.7323654444190427,-0.3674263461608211,0.556016416862297,-149.22104688956048,-66.48995762083052,-73.74091663704102,0
1767372555.844728,1,left_wrist,1.3108,0.1645,0.265,-21.49,-28.28,19.18,-0.12383285517864184,0.6229800791951948,0.351935388335923,0.6875338008717079,94.15121756627819,-70.70019065522483,125.75457151155553,0
1767372555.844728,2,right_wrist,0.934,-0.1542,-0.3343,1.12,-1.05,-3.29,0.14386296026486572,0.7339756802612838,-0.36345937778768084,0.5554101458805081,-150.59407173296682,-66.91026360202287,-72.36128003111102,0
1767372555.89864,1,left_wrist,1.2381,0.141,0.1703,35.7,-3.85,-24.5,-0.12819770177482015,0.6180258504601986,0.3666987685400599,0.6834774396962975,95.47347390027277,-69.85654356668446,126.16512717358474,0
1767372555.89864,2,right_wrist,0.8428,-0.2723,-0.2835,-5.95,-3.57,2.03,0.1415734066932175,0.7321981220823296,-0.3676142788847463,0.5556101353435112,-149.57111018273005,-66.59532346398198,-73.57567415280161,0
1767372555.967556,1,left_wrist,1.199,0.1352,0.1425,4.55,-9.66,-79.1,-0.10693177367395239,0.6075812715958379,0.38692549788701686,0.6853460828441434,95.38329334573213,-66.28483136354778,126.42725104419085,0
1767372555.967556,2,right_wrist,0.9233,-0.1976,-0.3294,4.9,-1.12,-7.77,0.15066805720589452,0.732933270011164,-0.3639022992374396,0.5546918737986417,-151.67508150678967,-67.33314278084505,-71.89093036032732,0
1767372556.027328,1,left_wrist,1.1287,0.1596,0.1259,22.47,-18.69,-94.85,-0.08409626444417542,0.5958113277047012,0.4165065037472923,0.6815122980706242,96.94398584523515,-61.903881963849734,125.85796714146882,0
1767372556.027328,2,right_wrist,0.9472,-0.1513,-0.3113,0.63,-0.14,-12.53,0.1565256442156925,0.734322593632686,-0.35741512552635685,0.5554497990173421,-153.40799240935004,-68.07109062033983,-70.0440005233148,0
1767372556.096079,1,left_wrist,0.8774,0.042,0.1171,-21.0,-8.82,-26.6,-0.05954425408883405,0.5850563992146515,0.4366033523079763,0.6808384568283637,97.14888336464159,-58.06538011839901,125.65494885799467,0
1767372556.096079,2,right_wrist,0.9257,-0.1108,-0.3333,-3.43,0.49,-14.49,0.1650559034003968,0.7375986236762249,-0.35103561313392395,0.552701381774379,-156.63309198284293,-68.62651277350133,-66.96754610208846,0
1767372556.146222,1,left_wrist,0.8599,0.0942,0.1074,-36.61,1.54,18.76,-0.058955451599405274,0.5896860595620652,0.41797857406860794,0.6885408611727033,95.06706489211322,-59.46625896903383,125.85619405321172,0
1767372556.146222,2,right_wrist,0.9472,-0.1557,-0.3148,8.4,4.83,-23.73,0.16867430877053366,0.7385015473643126,-0.3407381796190641,0.5568320528230977,-158.02358081488694,-69.61779744189123,-64.91261344119171,0
1767372556.201681,1,left_wrist,0.8774,0.1947,0.08,-49.7,8.96,56.21,-0.06764400898433529,0.598775808198412,0.38508101610005485,0.6990024539328993,91.70829142353479,-62.77143386200755,126.7539725937895,0
1767372556.201681,2,right_wrist,0.9418,-0.0556,-0.2987,7.21,-0.63,-28.49,0.17705103902028085,0.7437573285050941,-0.3270400651674366,0.5554482529021793,-162.66874827908586,-70.39752886652182,-59.743707273428804,0
1767372556.2663848,1,left_wrist,0.9545,0.3074,0.0859,-58.38,8.54,66.08,-0.0766624465007134,0.6085515986701308,0.3463599913138757,0.7098046051341209,87.21220869704925,-66.49295860796917,128.3676627427208,0
1767372556.2663848,2,right_wrist,0.9545,-0.0883,-0.2796,8.19,3.99,-37.38,0.19371224081214444,0.7513447714431596,-0.3005958936655349,0.5546158227962692,-172.21631636368264,-71.78194937742994,-49.24714954986473,0
1767372556.3181922,1,left_wrist,1.078,0.3314,0.0776,-36.89,8.54,77.07,-0.09500426795167675,0.6185897749124187,0.3106186037319141,0.7154278177848589,82.72638037148234,-70.7576187323116,131.09857355127846,0
1767372556.3181922,2,right_wrist,0.9579,-0.062,-0.2957,27.44,-1.12,-38.57,0.1921050810486179,0.756677682376976,-0.28248616478663763,0.5574370722620166,-175.45676941812397,-72.20094582989262,-44.257501422380415,0
1767372556.37318,1,left_wrist,1.0058,0.3562,0.0517,-52.78,3.57,66.22,-0.10008071906689885,0.6254724812485648,0.2768527206742368,0.7225791277964574,76.84027699617006,-73.6016202984867,134.40314290988104,0
1767372556.37318,2,right_wrist,0.9457,-0.1332,-0.1942,22.75,-8.12,-37.38,0.1911768122081214,0.7629572180595356,-0.2662265176411046,0.5571993818997696,-179.07067571747737,-72.18161537148745,-39.149329295901836,0
1767372556.446785,1,left_wrist,0.9243,0.3001,0.0454,-57.68,-4.2,43.26,-0.0954028730607592,0.6436036426357948,0.22172355633741114,0.7262997367222292,69.82327145064522,-77.74280142636489,136.2449628556815,0
1767372556.446785,2,right_wrist,0.9711,-0.0961,-0.2952,20.23,-6.79,-44.52,0.19100030667291099,0.76993955208624,-0.24949806018933612,0.5553941725890295,176.86633399647718,-71.90600601306649,-33.63663380381071,0
1767372556.521269,1,left_wrist,0.9789,0.2708,0.0732,-46.97,-12.95,27.93,-0.08640777237828141,0.6510729849971935,0.20296554294772498,0.7262524722542447,69.04323580239281,-78.74326196239471,134.6870771915606,0
1767372556.521269,2,right_wrist,0.9179,0.1449,-0.3709,-4.48,-7.07,-39.41,0.2065460331632178,0.7835779318352062,-0.2251437726413271,0.5409756395312364,166.33219973207505,-70.18604737513132,-22.43516981858346,0
1767372556.571389,1,left_wrist,1.0668,0.2381,0.0927,-33.67,-2.17,16.31,-0.07903435563854666,0.6522289747522362,0.19030803235714502,0.7294750084429201,66.26228969627374,-79.00721973687276,135.79894639384977,0
1767372556.571389,2,right_wrist,0.9433,0.1527,-0.2313,4.48,-5.39,-54.88,0.22006033174110223,0.7890576407000375,-0.20389258389662596,0.5360870305079615,158.60210156549095,-69.34875467090558,-14.08411979378152,0
1767372556.651983,1,left_wrist,1.0438,0.1869,0.1337,-40.6,-17.99,-2.87,-0.0556270419662248,0.658945752139455,0.1616357565195634,0.732509392536235,64.11623603644519,-79.53011103996259,133.63285715994093,0
1767372556.651983,2,right_wrist,0.954,0.1771,-0.2025,-3.15,0.21,-65.73,0.23844292807805959,0.7924941905436588,-0.18065254792948257,0.5314720923347702,149.95112941981162,-68.20646681332765,-5.08101997387589,0
1767372556.722997,1,left_wrist,0.8969,0.1566,0.1249,-12.67,-1.12,-14.07,-0.04722259604166815,0.6560122755681159,0.1613924549524209,0.7357787685245195,63.583925808650974,-78.69645991458782,133.46523655879727,0
1767372556.722997,2,right_wrist,0.9911,0.2464,-0.0508,-16.8,5.53,-55.72,0.2732758652512022,0.795164424731412,-0.13885220368661394,0.5232149698203794,136.3376243043249,-65.22682679899211,8.9436756332089,0
1767372556.7943249,1,left_wrist,0.9233,0.0634,0.1264,11.97,-9.03,-0.42,-0.05532100617108231,0.6537996968620026,0.16912513256817222,0.7354469608293794,63.52033622991628,-78.63227053525145,134.8344314862734,0
1767372556.7943249,2,right_wrist,0.9135,0.2699,-0.4514,32.27,10.01,-52.57,0.27279864744169396,0.801728640632884,-0.11278900997653904,0.5197025341206665,134.16425710542362,-63.490220710094924,13.30172920616125,0
1767372556.8702772,1,left_wrist,0.9248,0.1313,0.1298,-27.86,-21.7,-0.49,-0.047268840425902944,0.6595520365027033,0.15860507751120564,0.7332129276394352,64.91946448467584,-79.16674134025807,131.89730607991933,0
1767372556.8702772,2,right_wrist,1.038,0.2464,-0.4538,28.0,-2.03,-29.82,0.27252926512649256,0.8079113167923169,-0.08314007304793737,0.5158438059161925,131.99970845410047,-61.501343732673526,17.921944244587543,0
1767372556.941246,1,left_wrist,1.098,0.2147,0.0927,-15.68,-7.49,-0.7,-0.028110120477239018,0.6636821923969939,0.14654671286001222,0.7329801017570667,66.79586703248604,-78.86372356746193,127.46014743843514,0
1767372556.941246,2,right_wrist,1.1912,0.2313,-0.3099,162.4,-28.07,9.45,0.20900213850743615,0.829871345020801,-0.05542135923723608,0.5143540898573497,142.9164897174789,-61.26609141337358,14.826304726352566,0
1767372557.000385,1,left_wrist,1.0516,0.1918,0.0171,-8.61,-14.63,-12.88,-0.020436353464034475,0.670131702280862,0.14831408848401595,0.7269860990503209,72.9171760009243,-78.64172676551611,120.85700509384772,0
1767372557.000385,2,right_wrist,0.914,-0.2245,-0.3065,217.35,-48.58,79.38,0.1070268144017543,0.8536445461634011,-0.04209899247609831,0.5079999258238042,163.11115516371737,-61.20089132553173,4.388721426608526,0
1767372557.0766459,1,left_wrist,1.0614,0.1679,-0.0229,-13.72,-23.1,-28.14,-0.006966041801274022,0.6783078892679176,0.15188337245695346,0.7188750397597815,80.84756754027677,-77.78303347675302,112.12494626652337,0
1767372557.0766459,2,right_wrist,0.8608,-0.4573,-0.3919,46.62,24.64,106.68,-0.019072534389040132,0.8502701063558132,-0.08409652688331909,0.5192347819973313,-165.40841248314447,-61.61484307690913,-20.02830344980498,0
1767372557.142773,1,left_wrist,0.9716,0.1854,0.0059,-64.26,-52.43,-49.84,0.05372617432853034,0.7037250884240226,0.13988731751279296,0.6944897670331053,96.25716213756695,-74.24436263587604,90.79530961520983,0
1767372557.142773,2,right_wrist,0.8316,-0.12,-0.4929,44.31,18.55,97.09,-0.056950301802346795,0.8431646341582808,-0.11047797179180338,0.5230914648301227,-154.62982237649697,-60.403017218857535,-29.857391763757356,0
1767372557.195619,1,left_wrist,0.8194,0.181,-0.0488,-35.77,-49.35,-38.5,0.07625793109024355,0.7171176663645087,0.13713527132123496,0.6790588324242667,102.60909752797816,-72.3667180193765,82.3842635528495,0
1767372557.195619,2,right_wrist,0.6837,-0.4343,-0.2791,-61.88,60.13,77.0,-0.05241887319683537,0.8250340801325595,-0.15638018891092537,0.5404778116340935,-148.0836027976236,-61.095987710882326,-40.62386556450483,0
1767372557.248744,1,left_wrist,0.8403,0.203,-0.0444,-23.24,-45.22,-26.88,0.09086391661817513,0.7278389548025322,0.13381360284375135,0.6663993729159245,107.05845900581409,-71.03992159960853,76.47043234377047,0
1767372557.248744,2,right_wrist,0.875,-0.5744,-0.3694,-55.58,88.55,119.35,-0.05821121792161501,0.7941313627481653,-0.21631606576911294,0.5649550358196631,-136.49073651504486,-60.705117786779354,-56.78024458925269,0
1767372557.301603,1,left_wrist,0.874,0.2826,-0.0371,-23.45,-43.89,-13.86,0.10506783128907334,0.7364714706056962,0.12899641461138572,0.6556908180152454,110.0253727378072,-69.8324466538233,71.94404111164644,0
1767372557.301603,2,right_wrist,0.917,-0.4563,-0.4646,-77.98,80.29,140.0,-0.060619649003244555,0.7617341548052491,-0.2873869674223841,0.5774903172466374,-127.50850239106168,-57.666108184529655,-71.712663916576,0
1767372557.371434,1,left_wrist,0.8916,0.3216,-0.0864,-32.9,-46.41,-8.05,0.12220354859424375,0.7452479910569135,0.12069434281472138,0.6442861166819687,112.5082577369711,-68.56101220007717,67.36728171600168,0
1767372557.371434,2,right_wrist,1.0224,-0.3196,-0.4221,-75.39,80.71,131.25,-0.057124003250850146,0.6841776051081235,-0.41363476286643946,0.5979499442842467,-115.91887978358085,-50.43936250994199,-95.15956055671984,0
1767372557.442934,1,left_wrist,0.8369,0.3396,-0.1362,-47.46,-40.11,-17.92,0.1754066322267138,0.7565635985459771,0.10158102673212106,0.6217116129960033,112.89317835834923,-64.83578169976748,60.97472664235509,0
1767372557.442934,2,right_wrist,0.8447,-0.3616,-0.1967,-75.11,88.69,113.96,-0.04484884366536497,0.6414648367940351,-0.4657692677995199,0.6079230490384295,-112.37701880014741,-47.573559804339375,-104.86045885375437,0
1767372557.501868,1,left_wrist,0.8062,0.3538,-0.0932,-48.51,-28.84,-12.81,0.19712600603262295,0.7576093189438808,0.09026020470456562,0.6156480756420061,111.83841850502017,-63.79971470779905,59.26209292754984,0
1767372557.501868,2,right_wrist,0.914,-0.245,-0.2538,-122.78,84.28,85.75,-0.012155777139575611,0.604298285370865,-0.5203251387661492,0.6032723840421946,-112.93269877923701,-45.76322775389519,-112.71192187683687,0
1767372557.55313,1,left_wrist,0.8086,0.3767,-0.0644,-26.25,-20.02,-2.87,0.20839005817024087,0.7583009566972675,0.08231341614413981,0.6121909377396028,111.42843043456837,-63.39860724580356,58.05945374013844,0
1767372557.55313,2,right_wrist,0.8311,-0.3001,-0.1337,-78.89,74.34,53.83,0.014782058205683403,0.5732005615683494,-0.5525678584653699,0.6048895508800987,-112.3424941695603,-45.217200619668766,-119.08699473023222,0
1767372557.617903,1,left_wrist,0.7745,0.3611,-0.0356,-30.45,-4.55,5.46,0.2180257171368123,0.7546373319868257,0.07167386381241893,0.6146951611042526,109.68279854002077,-63.700505784579896,58.116173377406014,0
1767372557.617903,2,right_wrist,0.7535,-0.4348,-0.1269,-2.8,68.04,11.34,0.04767501284955076,0.5309402826364932,-0.5640229552222865,0.6306406388792228,-106.84304641915887,-46.33961365490503,-128.70026548137298,0
1767372557.674081,1,left_wrist,0.8394,0.4817,-0.2401,-21.07,1.05,5.53,0.22459684342337316,0.7543498463742633,0.06629243255161622,0.6132845021568468,109.26820694416455,-63.57066560984823,57.52652481780839,0
1767372557.674081,2,right_wrist,0.7432,-0.5031,-0.0917,-67.76,64.33,18.48,0.07694558610612065,0.5073508863102281,-0.5825690612562947,0.6303076580575325,-106.43359060201955,-46.82159077817211,-133.7692030631803,0
1767372557.7489228,1,left_wrist,1.0951,0.4016,-0.1957,49.42,4.97,17.01,0.20848664058127986,0.7568836980337654,0.07473745216512175,0.614877794032058,111.05991897358382,-64.10795765831182,57.8024047186276,0
1767372557.7489228,2,right_wrist,0.8804,-0.733,-0.0425,-70.42,82.88,3.29,0.11364159560920278,0.47969463881025226,-0.5972936540440311,0.6326285893656919,-105.0371596069793,-47.96123123676499,-140.13175103920315,0
1767372557.816458,1,left_wrist,0.9316,0.2913,-0.1791,-38.64,3.22,-11.27,0.22038799620212587,0.7530106236618153,0.06531250469901849,0.6165536542040737,109.070112363133,-64.12584488700233,58.009736981665526,0
1767372557.816458,2,right_wrist,0.734,-0.7476,-0.0551,-13.93,52.92,-2.87,0.15880938862644248,0.4509960150172915,-0.6011976334252942,0.6402683641149579,-101.69185730808753,-50.216570614850454,-148.01842063418826,0
1767372557.8675342,1,left_wrist,0.8813,0.3289,-0.121,-42.35,2.24,-27.23,0.2383983845196837,0.7470389014886198,0.059902200182977684,0.6176656185464102,105.99474272763368,-63.41600959318063,59.101884202735164,0
1767372557.8675342,2,right_wrist,0.7681,-0.612,-0.0708,-80.99,46.76,-11.62,0.19132987017058567,0.4339293717472682,-0.6157412053318189,0.6292542802175023,-102.48932742685705,-51.41862174460664,-151.91551122378146,0
