timestamp,node_id,node_name,ax,ay,az,gx,gy,gz,qw,qx,qy,qz,roll,pitch,yaw,rep_number
1767372062.9897559,1,left_wrist,0.8555,0.5895,-0.0678,22.82,4.9,-13.86,0.5734618791981025,0.6763081078000842,-0.29763055563906826,0.35378647342773023,99.24252555137056,-55.07447200787965,0.31886976685456936,0
1767372062.9897559,2,right_wrist,0.8872,-0.244,-0.4621,6.44,-10.08,-1.47,0.07657944341351912,-0.8463391482218195,0.16557806887317722,-0.5004293537971869,-148.78646866586746,-55.255952749337375,-38.77510148219288,0
1767372063.042037,1,left_wrist,0.7901,0.4987,-0.1254,10.43,4.9,-21.56,0.5713522419421485,0.6819672823997307,-0.29101288396797226,0.35183624419415627,99.8291229039486,-54.333378734809195,0.503356781530563,0
1767372063.042037,2,right_wrist,0.7754,-0.2757,-0.4436,-4.13,-7.14,-11.48,0.07288619981931674,-0.8470885664428724,0.16124824971307283,-0.5011262958996747,-149.6611182901906,-55.63831974773081,-37.838490644427736,0
1767372063.115078,1,left_wrist,0.7261,0.549,-0.0981,-11.9,-2.45,-13.72,0.5777572933799107,0.6830312788225449,-0.28672563330757095,0.34271444863140993,99.33996671618999,-53.08095424332278,0.412671791497339,0
1767372063.115078,2,right_wrist,0.751,-0.2196,-0.5178,1.75,-2.03,-13.51,0.06928903210513451,-0.8538258336457523,0.148080317947791,-0.49421927852477693,-152.1935829592649,-55.430011430107754,-34.496516437091195,0
1767372063.166312,1,left_wrist,0.7418,0.5812,-0.1771,-41.02,-3.22,-1.82,0.5878714875453372,0.675809233138914,-0.2933366039635807,0.3341296624224476,98.13210881920214,-52.7975698063572,-0.3438497068276009,0
1767372063.166312,2,right_wrist,0.9218,-0.2181,-0.4089,14.63,0.91,-18.97,0.06924589135648268,-0.8529136700973476,0.13656877888673621,-0.4990914210089218,-152.6645677470304,-56.35125521027046,-33.03679236291914,0
1767372063.218394,1,left_wrist,0.7344,0.5841,-0.1147,-7.77,15.47,-0.56,0.5910531223931991,0.6742315242028212,-0.28971176151654005,0.3348658739247314,97.28112034493908,-52.56319896262358,0.4883777637573642,0
1767372063.218394,2,right_wrist,0.8477,-0.2874,-0.5153,11.13,11.34,-2.24,0.07603779029617731,-0.8505462118795067,0.1360829370869364,-0.5022656967562973,-151.1978681025414,-56.48128354856794,-33.884992134045,0
1767372063.2899232,1,left_wrist,0.8032,0.5958,-0.0732,-12.95,17.01,2.1,0.5999925155737376,0.6631358856726293,-0.2910676112556971,0.3399109060718388,94.67948733928601,-53.138794626270595,2.0877151463269352,0
1767372063.2899232,2,right_wrist,0.8638,-0.2196,-0.4626,16.8,-5.18,-9.03,0.07732298806238042,-0.8509531583337286,0.1266118230936997,-0.5038544671746464,-151.64754680240478,-56.92249849186757,-32.519535276441594,0
1767372063.340018,1,left_wrist,0.8272,0.4982,0.0239,6.72,9.1,-0.91,0.5996864553139318,0.66114235404962,-0.288847023865616,0.34617096902934363,93.96334032993614,-53.5303542992708,3.2067536603089812,0
1767372063.340018,2,right_wrist,0.8042,-0.3221,-0.4753,-32.69,7.49,2.52,0.0695465388763557,-0.8498963048124801,0.13750657137388808,-0.5039161565433371,-151.97520967398611,-56.86937971100073,-33.772347468604856,0
1767372063.392055,1,left_wrist,0.8633,0.4992,-0.0371,2.87,7.21,-0.07,0.5980732976630055,0.6593159896056432,-0.2896139441198243,0.3517591787632397,93.63409793325994,-54.121501774253524,3.8019891464229123,0
1767372063.392055,2,right_wrist,0.8252,-0.3504,-0.3133,-0.49,7.07,6.65,0.07241665402343303,-0.8461591434032092,0.14100228458965708,-0.5088112498713987,-150.57873256996658,-57.20869012063881,-35.21669467717444,0
1767372063.442668,1,left_wrist,0.774,0.6359,-0.0342,33.6,0.21,8.82,0.5889790468295749,0.6681109958079798,-0.2836790823961672,0.35532739535119356,95.24036550964742,-53.99428398879615,3.8529809137433264,0
1767372063.442668,2,right_wrist,0.8491,-0.2967,-0.4255,-1.12,7.49,15.82,0.0770515662959878,-0.8416145145575156,0.1479951787583165,-0.5136589258269987,-148.5381458407257,-57.330590010567214,-37.45483368557275,0
1767372063.518558,1,left_wrist,0.8818,0.7193,-0.1298,-17.08,6.16,-3.01,0.5943734904468617,0.6657912083502922,-0.2828513917275224,0.35133646399893614,94.4921958148177,-53.520747044640494,3.955348517407282,0
1767372063.518558,2,right_wrist,0.8716,-0.1698,-0.5246,-1.96,-0.56,-7.42,0.06749920554224322,-0.8449777041322606,0.14677931729427263,-0.5098160146417207,-150.75707466116845,-57.32552325926764,-35.940980369163945,0
1767372063.590826,1,left_wrist,0.8394,0.6783,-0.1976,7.91,-17.99,-23.59,0.5962710135673126,0.6770050773197552,-0.27904363368550344,0.32902834856934843,96.62124387882832,-51.10326992407754,1.3279673495631519,0
1767372063.590826,2,right_wrist,0.8652,-0.1996,-0.4675,8.26,-6.51,-14.42,0.0635702262366753,-0.847321925884168,0.13687796815426764,-0.509184448001038,-152.4338456788983,-57.72378319516207,-33.75284469190957,0
1767372063.642146,1,left_wrist,0.8808,0.3475,-0.02,32.2,-34.72,-20.09,0.5841057564811253,0.6909921489168578,-0.28022030711302903,0.32066632948027957,100.11862674672909,-50.399926144423446,-1.1374930693343468,0
1767372063.642146,2,right_wrist,0.8525,-0.3104,-0.3616,8.05,-4.13,-14.56,0.06542843439559436,-0.847033166064635,0.13019389026725062,-0.5111785270295899,-152.51090099702984,-58.09586707855375,-32.949188328090415,0
1767372063.715761,1,left_wrist,0.7544,0.0078,0.2777,29.19,-18.06,25.2,0.5697377453897653,0.6958273297133636,-0.2895259596517131,0.327716260490552,102.70763207066537,-51.810999190822145,-2.734474803333072,0
1767372063.715761,2,right_wrist,0.8965,-0.2664,-0.4451,9.03,-14.28,-6.09,0.06534790302520875,-0.8493265538195216,0.12658984178923477,-0.5082805017930944,-153.21244374705051,-57.870423049028425,-31.953303412895064,0
1767372063.792206,1,left_wrist,0.8369,0.2869,-0.0405,-55.09,42.42,91.35,0.5731665168968679,0.6467027983052223,-0.33491635019068167,0.37561505953230917,97.07544930068978,-60.42940303218192,-0.3021834330242584,0
1767372063.792206,2,right_wrist,0.8091,-0.2201,-0.4738,2.94,-8.68,-0.28,0.06508099996106816,-0.8530873143649962,0.12503696166438596,-0.5023666546769647,-154.0715723707909,-57.23000566535252,-30.993868211673956,0
1767372063.865174,1,left_wrist,0.9267,0.508,0.0371,-123.62,72.59,116.48,0.5995147168258792,0.5823968467573252,-0.36789981638922703,0.4074871069090207,82.71689960291774,-66.31404855355824,8.59853227333442,0
1767372063.865174,2,right_wrist,0.8057,-0.3987,-0.448,2.45,-9.66,14.91,0.07835082284713277,-0.8530630759641639,0.1373286545616644,-0.49727796816470704,-151.2763320184058,-55.781528297158204,-33.725418595229485,0
1767372063.9165661,1,left_wrist,1.0263,0.5226,0.1679,-62.72,39.27,115.57,0.6027094783879929,0.53819978480414,-0.39508778849641596,0.43702164211748384,70.32532094063356,-71.20123696567177,18.363547130973487,0
1767372063.9165661,2,right_wrist,0.815,-0.2689,-0.4738,-17.78,-4.2,16.1,0.07665587437726344,-0.8516629904584956,0.14716491710866017,-0.49712826793409254,-150.727887730814,-55.50841665059261,-35.25702146177748,0
1767372063.968622,1,left_wrist,1.0843,0.3665,0.1415,-16.38,20.02,84.0,0.5962801608330818,0.5148568162162293,-0.4093815936413821,0.46019467552352733,60.41720331823539,-74.17119305958087,27.812021165339956,0
1767372063.968622,2,right_wrist,0.8794,-0.2054,-0.49,-8.68,-1.54,12.04,0.07220687711705043,-0.8514078718301162,0.15103039909673277,-0.4970720483304177,-151.13375019862164,-55.54909707707286,-35.556926966209296,0
1767372064.041383,1,left_wrist,0.978,0.3475,0.1601,-37.87,9.38,52.36,0.6035355039948976,0.467427253640425,-0.4368865412668583,0.47580122743817754,39.31825712317446,-76.44808511776685,45.07154998866322,0
1767372064.041383,2,right_wrist,0.8306,-0.2133,-0.5353,-10.64,-0.98,5.81,0.0660643654033215,-0.8531695320542657,0.15383661561229298,-0.4940359753045493,-152.2480865605749,-55.35263318402028,-35.207171060926605,0
1767372064.1165671,1,left_wrist,1.0268,0.306,0.1513,-15.61,-4.62,40.53,0.5985247156988122,0.45974292805018235,-0.44764778624622736,0.47959990020260923,34.42256972787185,-77.64532749506446,49.41782720158704,0
1767372064.1165671,2,right_wrist,0.7764,-0.2118,-0.5612,9.66,-2.38,1.47,0.06737026756873564,-0.8555274516276231,0.15278023555362713,-0.4900940993150601,-152.56552734570153,-54.884309494198675,-34.69814166758479,0
1767372064.193277,1,left_wrist,0.9526,0.185,0.1479,-24.64,-18.41,-6.44,0.6015739114284099,0.45727779135478175,-0.45997013082532145,0.4662974687588954,37.379628525665865,-78.48343244313622,44.66887216847496,0
1767372064.193277,2,right_wrist,0.8072,-0.2211,-0.5407,1.75,-2.31,-4.83,0.0641244594079337,-0.8580313456446043,0.14930033499696727,-0.48721624928438434,-153.70008083711278,-54.78023701793068,-33.54574120925792,0
1767372064.2446878,1,left_wrist,0.9277,0.0927,0.1322,-8.19,-8.82,3.64,0.597982865082547,0.45579266628138243,-0.4678780373035614,0.46449938712633815,36.97960895509048,-79.41919692712698,44.63675229100696,0
1767372064.2446878,2,right_wrist,0.8208,-0.2372,-0.5129,14.84,-6.86,-5.25,0.06484830001635891,-0.8594728160820054,0.1415440966093946,-0.48689469612646835,-154.27574529627336,-54.94366829062079,-32.24491331240779,0
1767372064.316511,1,left_wrist,0.9443,-0.0078,0.1786,-12.39,-17.5,11.41,0.5935219974327701,0.45052449316025395,-0.478711145715591,0.4643220418995605,33.61860944821678,-80.61964246895359,47.324076856988206,0
1767372064.316511,2,right_wrist,0.7881,-0.3924,-0.4246,-4.62,-5.04,5.39,0.07231381221870486,-0.8589550299725295,0.14485280700800462,-0.48578249592712863,-152.890571129276,-54.447287109217676,-33.28484070248559,0
1767372064.3896918,1,left_wrist,0.9984,0.0093,0.163,-3.5,3.5,19.67,0.5908799762325582,0.43216601335573956,-0.49060148475426874,0.4726558724320741,17.92996985148952,-81.22866465706583,61.90513193555568,0
1767372064.3896918,2,right_wrist,0.7954,-0.2855,-0.4992,3.08,-5.18,5.04,0.07888618375574857,-0.8584023814084033,0.1479121409638935,-0.48481369634150556,-151.6806486031856,-53.99776002170401,-34.20287267402932,0
1767372064.441292,1,left_wrist,1.0399,0.041,0.1879,-19.95,2.38,14.98,0.5934594729183297,0.421039352298017,-0.49534780288154345,0.4745126679029679,10.846059362343649,-80.93662530170602,68.02903857927018,0
1767372064.441292,2,right_wrist,0.8062,-0.2806,-0.5129,0.07,-3.57,7.35,0.08357723503158647,-0.8569107917175848,0.15164247605783196,-0.48551343985256157,-150.554998937939,-53.778215077291534,-35.25019164394705,0
1767372064.492961,1,left_wrist,0.9399,0.0005,0.1303,3.57,5.81,21.49,0.5868416680220482,0.4150027497234424,-0.5002248573754842,0.4828712731761528,1.4749192930765738,-81.07467687663267,77.63580376441318,0
1767372064.492961,2,right_wrist,0.8189,-0.2528,-0.4831,-4.97,-7.35,11.06,0.08172816821404293,-0.8570347199922863,0.15455829140525798,-0.484689312659159,-150.70824309776197,-53.66123995556415,-35.50580311095735,0
1767372064.5665011,1,left_wrist,0.976,0.0429,0.1659,-11.2,-0.42,16.45,0.5879092967597597,0.4105677584870421,-0.502616137699391,0.48288072295186685,-0.9646696427028482,-80.92979262194869,79.61899990263339,0
1767372064.5665011,2,right_wrist,0.8008,-0.2196,-0.5109,-6.23,-3.01,9.17,0.08031685498919584,-0.8567226366188349,0.1611734728753461,-0.4833204303056269,-150.5610211889266,-53.34581033844614,-36.34492543178887,0
1767372064.6432772,1,left_wrist,0.9721,-0.0478,0.1405,12.11,-2.94,-0.14,0.578161610036284,0.41836759190447054,-0.5022475661815825,0.48830839946593496,-2.651590681159279,-81.62868353257687,82.65812872629202,0
1767372064.6432772,2,right_wrist,0.7462,-0.266,-0.5549,5.6,-6.02,7.7,0.08354173793139677,-0.8591323000224881,0.16280727427567035,-0.47791867563885576,-150.52126966745675,-52.55980567394021,-36.26421778447368,0
1767372064.718482,1,left_wrist,0.9223,0.0098,0.1074,1.96,4.06,-0.07,0.577859392995664,0.42071926387503694,-0.5017928114118799,0.4871116887803978,-1.05613345288389,-81.8119355313604,81.17407129650682,0
1767372064.718482,2,right_wrist,0.752,-0.3836,-0.4812,-2.52,1.47,10.15,0.09341309446222523,-0.8575736579806851,0.17160653445275237,-0.4758073268180457,-148.5880294233082,-51.63004454341963,-38.12427406662426,0
1767372064.7922702,1,left_wrist,0.957,0.0093,0.143,0.14,3.85,-8.54,0.5867600653880057,0.4252268162573089,-0.49270420356659067,0.4818063388845645,9.009960156566905,-81.09718091942551,71.06818046468075,0
1767372064.7922702,2,right_wrist,0.7603,-0.3587,-0.5095,3.85,-0.28,5.67,0.10024557800372028,-0.855916325998281,0.174972030349977,-0.47617523620565466,-147.27801408632942,-51.26533422654483,-39.14350795086061,0
1767372064.867583,1,left_wrist,0.9975,-0.0195,0.182,-10.64,1.75,-9.24,0.5906860084013232,0.4208097667643129,-0.4932777663252516,0.4802980584219001,8.324146228297288,-80.74159560867409,71.1498948298266,0
1767372064.867583,2,right_wrist,0.7613,-0.345,-0.549,2.1,5.18,5.18,0.10285778464269335,-0.8531374667327385,0.1812435494665982,-0.47825465473112916,-146.213083121066,-51.14620554332786,-40.52572054834414,0
1767372064.945793,1,left_wrist,1.0931,-0.0093,0.1723,-0.35,-1.26,-10.36,0.5919213663439691,0.41831077338404815,-0.495669709905663,0.4784942336312571,7.491696985192017,-80.79187035594896,71.52486956727368,0
1767372064.945793,2,right_wrist,0.7608,-0.3626,-0.5124,-2.45,3.99,3.15,0.10659982873468,-0.8514022720792276,0.1854206934925517,-0.4789256873845952,-145.29442560830552,-50.894440546228736,-41.48710433686479,0
1767372065.018493,1,left_wrist,1.0448,0.0078,0.1113,7.35,-0.21,-17.78,0.5920700955389612,0.4252714971028017,-0.49343868493247,0.4744632967180306,13.146536645207206,-81.06014559991806,66.16141664216642,0
1767372065.018493,2,right_wrist,0.7891,-0.347,-0.4724,-16.17,0.35,0.21,0.0956130178355565,-0.8522215247357119,0.19091104503243392,-0.47762914115675537,-146.68663420034642,-51.03994414302893,-41.51106366504558,0
1767372065.090176,1,left_wrist,0.9931,-0.0903,0.1283,-12.6,-11.06,-7.56,0.5858450165243826,0.43215223802003183,-0.49763409375910334,0.47158283314427324,15.746833205032047,-82.16470981839569,63.91645832943722,0
1767372065.090176,2,right_wrist,0.8252,-0.3084,-0.4929,-2.38,3.01,-0.84,0.09187454479490247,-0.8508182551515043,0.18932631342615308,-0.4814799183394268,-146.8991504776635,-51.67586889307115,-41.46781887810532,0
1767372065.143517,1,left_wrist,0.9677,0.0654,0.1552,-17.15,-11.97,-8.4,0.5908783021650358,0.43239438762039434,-0.4995379178609465,0.4629900584290111,20.87183336075066,-82.18860896037286,57.909744629342455,0
1767372065.143517,2,right_wrist,0.8111,-0.2918,-0.5202,2.31,0.49,-3.64,0.08769694511335757,-0.8513303390656652,0.18509781077410734,-0.482995548686276,-147.65072367287962,-52.17733554939132,-40.699227469582716,0
1767372065.220651,1,left_wrist,0.9882,-0.0073,0.1581,6.72,-9.45,-8.47,0.5888205200765781,0.4346164449138063,-0.4996699283658246,0.46338850183633623,21.635911239128852,-82.40381347569185,57.409371773289095,0
1767372065.220651,2,right_wrist,0.7681,-0.3348,-0.4919,4.2,-3.57,-4.97,0.09583635194678124,-0.8497963669663512,0.1816070307858984,-0.4854692726686758,-146.38524193942288,-52.2127083923458,-40.96543861393905,0
1767372065.291979,1,left_wrist,0.9804,0.0454,0.1596,-5.11,-4.9,-3.57,0.5922226956278461,0.4319979185548533,-0.4992014862172672,0.4620042784499223,21.44300067507372,-82.0738678973291,57.199856226942266,0
1767372065.291979,2,right_wrist,0.8106,-0.3714,-0.4685,-2.94,-2.94,-3.22,0.09614829751967233,-0.8489268520674929,0.1812571196199892,-0.4870570411254832,-146.1717237164752,-52.38186417169037,-41.118477473126916,0
1767372065.367626,1,left_wrist,0.9804,0.0498,0.1615,1.33,-5.81,-5.32,0.5936118746859514,0.4329357370374171,-0.49742771960766535,0.4612561691659164,22.93076650387987,-81.86870976344102,55.743808703165705,0
1767372065.367626,2,right_wrist,0.7793,-0.3255,-0.527,-0.14,-1.68,-4.83,0.09016072606141849,-0.8526739928347216,0.1765493830366043,-0.4833719279899953,-147.8627595866916,-52.41803904253453,-39.536424123095564,0
1767372065.441607,1,left_wrist,0.9672,0.0537,0.1249,0.63,-1.05,-3.99,0.5927512830543359,0.4352794263614229,-0.49669044477495927,0.4609515587273375,24.479931790295566,-81.93651621493095,54.405023280997554,0
1767372065.441607,2,right_wrist,0.8345,-0.3396,-0.4817,0.98,-3.22,-2.31,0.09076860442582599,-0.8517060622272664,0.1749152222680836,-0.4855538168265373,-147.6355460693398,-52.68781964288286,-39.565594040560555,0
1767372065.493522,1,left_wrist,0.9867,0.0493,0.1435,-1.19,0.77,-2.52,0.5946655617819875,0.43272165225445536,-0.4952448472286167,0.4624471673544898,22.751070667661484,-81.58416244592736,56.04304763233202,0
1767372065.493522,2,right_wrist,0.8198,-0.3074,-0.4499,4.41,-1.68,-3.22,0.09119070982761986,-0.8505526222931115,0.17165893832321016,-0.48864885147229675,-147.44778730954746,-53.123964803750894,-39.429375482939996,0
1767372065.5645719,1,left_wrist,0.9862,0.0498,0.142,3.71,-1.47,-0.98,0.5943185888798442,0.43118755369296097,-0.49431022784366935,0.4653172112669917,20.628916456381663,-81.42959712816247,58.31518255711773,0
1767372065.5645719,2,right_wrist,0.7847,-0.286,-0.5061,1.96,-3.43,-2.31,0.08616818601062097,-0.8549890165113909,0.16298572834674688,-0.48477260413497375,-149.34119011391547,-53.21250922318837,-37.221928694486046,0
1767372065.615514,1,left_wrist,0.9794,0.0742,0.1171,1.05,0.91,-3.22,0.5947059897946252,0.43508909128576073,-0.49338008891230245,0.4621670219860076,24.547760350229876,-81.49379396713772,54.47149790089134,0
1767372065.615514,2,right_wrist,0.7964,-0.3499,-0.4558,4.06,-2.03,-3.15,0.08974392851420457,-0.8537032728155991,0.16175167914087513,-0.48679887384204124,-148.64600868060953,-53.334094067156904,-37.503595441112815,0
1767372065.691259,1,left_wrist,1.0014,0.0361,0.1405,-2.66,-1.54,-1.05,0.593577245763464,0.4352360245778768,-0.49584400582550153,0.46084094664908626,24.75732642450301,-81.80657899868977,54.119023268587,0
1767372065.691259,2,right_wrist,0.8364,-0.3406,-0.4885,-17.85,-0.14,0.07,0.08484479189760565,-0.8525346875213942,0.1659139268719889,-0.4883221648978954,-148.91269057618442,-53.559034113570746,-38.007170897043885,0
1767372065.743236,1,left_wrist,0.9721,0.0913,0.1235,0.49,-0.21,-1.05,0.5953370978888272,0.4387017743980734,-0.49347233795168904,0.4578204284365052,28.83794678875837,-81.59439899655963,50.09791711659204,0
1767372065.743236,2,right_wrist,0.813,-0.2606,-0.5222,-5.95,-2.38,-2.24,0.07816803382022687,-0.854604370301186,0.16417455990234558,-0.4864029632225367,-150.3175919994573,-53.67769868417318,-37.021772640690486,0
1767372065.815325,1,left_wrist,0.9833,0.0298,0.1293,8.05,1.05,1.54,0.591851790461798,0.4373023028582729,-0.4941953279942472,0.4628705346321729,24.98197368281176,-81.81336773335744,54.32546904580689,0
1767372065.815325,2,right_wrist,0.7813,-0.3333,-0.4904,5.32,-3.64,-0.28,0.08654377634819857,-0.8527182370188127,0.1655225625408927,-0.48783610395379434,-148.73435571715675,-53.44866422955489,-38.009013483531575,0
1767372065.8657339,1,left_wrist,0.9926,0.059,0.1557,-6.58,-1.54,-0.84,0.5947117116829329,0.43422417693696497,-0.4938589261262557,0.46246157163162543,23.83771107426219,-81.50601112587884,55.120744441719346,0
1767372065.8657339,2,right_wrist,0.8281,-0.327,-0.4646,-0.49,-1.68,-2.73,0.08692570248190319,-0.8514367190688654,0.16445815925966448,-0.490360020313847,-148.4611421341077,-53.748562799402684,-38.15289753096708,0
1767372065.917239,1,left_wrist,1.0404,0.0732,0.1669,1.96,0.91,1.12,0.5966475842618151,0.43343151018511566,-0.49079746096884885,0.46396835935193004,23.438314282393502,-81.06429099424986,55.6231048816388,0
1767372065.917239,2,right_wrist,0.7832,-0.265,-0.5461,-3.78,0.42,-3.43,0.0824340633897229,-0.8536402497484562,0.16331122658264552,-0.4876806254861108,-149.5688385162409,-53.67624918796775,-37.33229392248024,0
1767372065.967617,1,left_wrist,0.9926,0.0493,0.1405,-3.5,1.12,-1.89,0.5954921157813338,0.430449620734903,-0.493805716455351,0.46503567438151033,20.638357320873922,-81.28856589106721,58.2072296992411,0
1767372065.967617,2,right_wrist,0.7984,-0.3162,-0.4738,4.27,-1.68,-3.01,0.08568314482742063,-0.852194746171175,0.16184368291482573,-0.4901317532983302,-148.88862049844195,-53.866073188542515,-37.60607949058066,0
1767372066.041876,1,left_wrist,0.9799,0.04,0.1264,-3.78,-0.98,-2.66,0.5919385920831705,0.4305911392077469,-0.4996626600109541,0.463181606099753,19.857210950328117,-82.06404359765435,58.76211488993296,0
1767372066.041876,2,right_wrist,0.7945,-0.2908,-0.4846,5.6,-1.33,-3.22,0.08514354143097475,-0.8512560830433461,0.1576816567099546,-0.4932039675139443,-148.94381404696404,-54.373811870787115,-37.232795080228215,0
1767372066.091889,1,left_wrist,0.9945,0.0551,0.1352,-2.87,-2.66,-1.68,0.5949749807205149,0.43182672812890943,-0.4974296510407993,0.4605368513545169,22.844176502524398,-81.75369455787173,55.645226744937716,0
1767372066.091889,2,right_wrist,0.8203,-0.3479,-0.4558,5.88,-5.53,0.42,0.09052821360666173,-0.8504137842331065,0.15738312029447246,-0.49379306553847974,-148.04149965671584,-54.22918081796616,-37.65308560621059,0
1767372066.168577,1,left_wrist,0.9911,0.062,0.1469,-1.54,-2.87,-2.03,0.5974085829855378,0.43160648962864956,-0.4954471008735351,0.45972926089346905,23.78097476653247,-81.42170817629346,54.62056192084124,0
1767372066.168577,2,right_wrist,0.815,-0.3196,-0.4841,-3.08,-4.2,-2.87,0.09114891746677045,-0.8499600872677859,0.1541921246119775,-0.49546393774322056,-147.9962938997357,-54.502440551598674,-37.36925553782573,0
1767372066.243407,1,left_wrist,0.9809,0.0659,0.1459,-1.82,-1.54,-0.77,0.5998365012433255,0.43073930636987695,-0.49247038314661373,0.46057870494367265,23.68252809643543,-80.96118116187607,54.74608468233093,0
1767372066.243407,2,right_wrist,0.7735,-0.3304,-0.489,0.49,-4.2,-2.31,0.09478468404271251,-0.8513337519702513,0.15548076547589912,-0.4920085751226357,-147.73030474962582,-53.925557513710764,-37.44375342576474,0
1767372066.318429,1,left_wrist,1.0082,0.08,0.1523,1.68,-1.12,-2.03,0.6022665357138836,0.43365133744035267,-0.48892215864815997,0.458450281140948,26.926292775945104,-80.58804607957886,51.60915756155765,0
1767372066.318429,2,right_wrist,0.8057,-0.2933,-0.4807,-4.34,-2.1,-0.7,0.09110328011100369,-0.8505440608824375,0.15387384633345264,-0.4945683292176899,-148.13664559574173,-54.41641327937273,-37.20696923098135,0
1767372066.391707,1,left_wrist,0.9804,0.0576,0.1352,1.75,-3.36,-2.94,0.5970042684050278,0.43342332633039765,-0.4952091439919051,0.4588006401539517,25.246845806524217,-81.49143032570002,53.243601401098296,0
1767372066.391707,2,right_wrist,0.8276,-0.3094,-0.4895,4.83,-2.1,-2.94,0.09213999783724934,-0.8492559133597455,0.15082605530521198,-0.4975199648889736,-147.85983040894504,-54.810380515671184,-37.130365316541706,0
1767372066.468427,1,left_wrist,0.9848,0.0576,0.12,0.35,0.21,2.38,0.5941744220017036,0.43387709301813215,-0.4981407825464798,0.45887164344406545,24.67047826534497,-81.95268947900972,53.84774978784905,0
1767372066.468427,2,right_wrist,0.8101,-0.3309,-0.4426,-3.71,-1.19,-1.89,0.08997809090319693,-0.8504599899569273,0.14902289614040498,-0.49640097206371914,-148.4895830178441,-54.8373749102957,-36.530762100951556,0
1767372066.5393531,1,left_wrist,0.9892,0.0712,0.1357,1.82,-1.4,0.98,0.5981079570287814,0.4357445425673954,-0.49323997869144287,0.4572831603963279,27.6863057166676,-81.31702724050534,50.89921647236804,0
1767372066.5393531,2,right_wrist,0.7954,-0.2977,-0.4841,3.15,-1.96,0.07,0.09329787131738186,-0.8520082862494407,0.1500084220974111,-0.4928233564572413,-148.30158691762642,-54.27101645033358,-36.52779269985646,0
1767372066.59092,1,left_wrist,1.0048,0.0776,0.1537,-2.45,-2.03,-1.68,0.6007599734088714,0.43484808081469906,-0.49138481770263903,0.4566569411416947,27.947761341133926,-80.95364298095743,50.50095826797768,0
1767372066.59092,2,right_wrist,0.8174,-0.2928,-0.4709,-1.75,-3.01,0.35,0.09155772244834355,-0.8512421835106139,0.14899776952498753,-0.49477630617151963,-148.43072248040366,-54.59380265759007,-36.456397148369334,0
1767372066.667207,1,left_wrist,1.0155,0.06,0.1464,0.49,-0.07,-2.31,0.5998075542991212,0.4322434263699885,-0.4926046528690213,0.4590611877924665,25.16636588437279,-81.0367021129424,53.25599121707952,0
1767372066.667207,2,right_wrist,0.8052,-0.3201,-0.4895,-0.77,-0.7,-1.26,0.09582144761935904,-0.8502391235689334,0.1497670379730074,-0.49546091396360836,-147.6034244409948,-54.47072628027506,-36.987792759162666,0
1767372066.7228851,1,left_wrist,1.0136,0.0537,0.1308,-6.23,-2.31,-6.02,0.5990044023892923,0.43209055566568433,-0.49642216609994905,0.45613211970590434,25.846739609471346,-81.45477592694182,52.22674584435859,0
1767372066.7228851,2,right_wrist,0.8164,-0.3084,-0.4729,-2.24,-0.63,-3.29,0.0942071000610242,-0.8489113383561698,0.14825724097490364,-0.4984920785799289,-147.61676513131533,-54.926680357309564,-36.9775314489415,0
1767372066.793337,1,left_wrist,0.996,0.0669,0.1186,-8.89,-3.01,-1.47,0.5971604078600172,0.43309875315824675,-0.5029918777783016,0.4503599540215448,28.378543155875303,-82.23660285930423,49.15269193681009,0
1767372066.793337,2,right_wrist,0.791,-0.284,-0.4768,1.75,-1.12,-2.66,0.09086951587543904,-0.8508653725546169,0.14526909042849692,-0.4966565616581884,-148.62177991769457,-54.96232165275735,-36.00178037166112,0
1767372066.86967,1,left_wrist,0.9823,0.0551,0.1196,6.93,-1.4,0.77,0.5940107961777651,0.4317914597077604,-0.503886965630505,0.45475843611238437,24.62395814408776,-82.45856700766352,53.21763035452713,0
1767372066.86967,2,right_wrist,0.8164,-0.2645,-0.4782,0.77,-3.5,-3.08,0.08481472410218767,-0.8513081142443458,0.13802330395793846,-0.49902958305268824,-149.94061800451863,-55.71472057097315,-34.5724022554674,0
1767372066.9417531,1,left_wrist,0.9911,0.0478,0.1449,2.52,-2.1,1.54,0.5966599573837116,0.4294740522733881,-0.5015891490436839,0.45602330997480334,23.27577040361252,-81.99531207301976,54.48137350773938,0
1767372066.9417531,2,right_wrist,0.8159,-0.2908,-0.469,3.71,-3.5,-3.57,0.08845592809838176,-0.8503639351896545,0.13689896650029973,-0.5003153000700349,-149.2813799166338,-55.75930348887173,-34.826764151430886,0
1767372067.01556,1,left_wrist,0.9404,0.0586,0.1293,-1.68,-1.4,0.14,0.5992579325667341,0.42922040861725497,-0.499331080132363,0.45533311267261,24.19511941627559,-81.62373000758221,53.48499497069067,0
1767372067.01556,2,right_wrist,0.8057,-0.283,-0.4758,2.66,-2.45,-3.43,0.08841491426022627,-0.8525996747946908,0.134954476260493,-0.49703509615881303,-149.83748395327942,-55.45488539206087,-34.11242070137851,0
1767372067.066657,1,left_wrist,0.9814,0.0444,0.1293,-0.07,-1.19,1.19,0.5964133254421986,0.42677162106616273,-0.5027103511109747,0.45764553048556933,20.58574685641479,-81.99937655565206,57.058503492380275,0
1767372067.066657,2,right_wrist,0.8096,-0.2786,-0.4724,-4.13,-2.87,-0.63,0.08693002964852907,-0.8516038350241398,0.13489390934097562,-0.4990167445489099,-149.85853498062843,-55.73847083486616,-34.20918549711343,0
1767372067.141699,1,left_wrist,0.9926,0.0639,0.143,3.71,0.63,0.35,0.6019716266292126,0.42760528723096786,-0.49690925424935006,0.4559222215541332,23.71594058304774,-81.17444520917118,53.88435056154761,0
1767372067.141699,2,right_wrist,0.8233,-0.3357,-0.4704,6.23,-3.99,-3.71,0.0926174535985331,-0.851199236960217,0.13402381602785507,-0.4989183129777855,-149.001280250345,-55.54106036355941,-34.511993725193335,0
1767372067.2145889,1,left_wrist,0.9833,0.0849,0.1235,-1.68,0.28,-3.08,0.6030619686879322,0.43104781763701056,-0.49625162691170316,0.45193845114140674,27.70542347982456,-81.17260925675087,49.83855200930165,0
1767372067.2145889,2,right_wrist,0.7881,-0.2718,-0.507,5.39,-3.57,-3.08,0.09159397882152737,-0.8565209838497939,0.13024543702652683,-0.49093632316461544,-150.39338477953507,-54.79902901126456,-32.89274283790978,0
1767372067.267792,1,left_wrist,1.0058,0.0571,0.1269,2.8,1.19,-2.94,0.6006519332061933,0.4314304472584542,-0.4980119268673943,0.4528456083610156,27.0440551384,-81.49634021485515,50.614685208257676,0
1767372067.267792,2,right_wrist,0.8203,-0.2528,-0.4792,2.59,-5.53,-1.96,0.08922770857105115,-0.8570154793567889,0.1265206000770424,-0.49148288059927164,-151.0337387511484,-55.068638912025555,-32.13449767485409,0
1767372067.340598,1,left_wrist,1.0233,0.0444,0.1176,1.05,0.07,-2.66,0.5987816321299969,0.43414777231308144,-0.5001030290209274,0.45041450818487133,29.472029279882364,-81.88954345430027,48.19357767278349,0
1767372067.340598,2,right_wrist,0.853,-0.2943,-0.4407,-0.77,-0.98,-1.4,0.08950588925286072,-0.8554859735225858,0.1259942584975143,-0.49422453573333414,-150.73159227853085,-55.39127218829243,-32.36554663595946,0
1767372067.417631,1,left_wrist,0.977,0.0576,0.0981,-3.85,-5.18,-3.08,0.5965528465752082,0.43556990266171286,-0.5043105657142027,0.4472967856438306,31.48357521903773,-82.46015131527619,45.974018446701116,0
1767372067.417631,2,right_wrist,0.7832,-0.2211,-0.5129,3.71,-1.54,-2.24,0.09076222839407377,-0.8584921977618095,0.12258430585828815,-0.48961868044048484,-151.3082772315367,-54.92650076381056,-31.39614751370286,0
1767372067.4884028,1,left_wrist,0.955,0.0664,0.1147,-5.95,-5.67,0.49,0.595693378020459,0.43412178294241915,-0.5084386891421181,0.4451716257140771,31.31517113847442,-82.8688165074147,45.7500875973789,0
1767372067.4884028,2,right_wrist,0.8272,-0.3196,-0.4402,-8.19,-0.91,1.47,0.09025696070506066,-0.8571245219686822,0.12558560587905598,-0.491344574082419,-150.95638415980793,-55.04647396110894,-32.04512226507764,0
1767372067.543329,1,left_wrist,0.9755,0.0654,0.1352,1.89,-3.71,4.06,0.595695328387501,0.4328557196761487,-0.507703015799003,0.4472366816681611,29.29452426127595,-82.77072839194471,47.858589763495,0
1767372067.543329,2,right_wrist,0.8345,-0.304,-0.4841,11.34,-4.13,-1.75,0.09698324447047882,-0.855854043728621,0.12331774540091166,-0.4928497131931629,-149.8657704544181,-55.054306725565475,-32.37143551673668,0
1767372067.615679,1,left_wrist,0.9945,0.0922,0.1347,0.21,-3.01,2.24,0.597277153963929,0.4335955459017395,-0.5057772506208862,0.4465918457398199,30.50427765099423,-82.50614904611008,46.67228167798899,0
1767372067.615679,2,right_wrist,0.8028,-0.2616,-0.4958,-0.56,-5.04,-0.49,0.0996971951114233,-0.857176060222939,0.11882409663292193,-0.49111149968919,-149.97776736766326,-54.909513646068305,-31.647727459669014,0
1767372067.6676679,1,left_wrist,0.9921,0.0673,0.1357,1.68,-4.13,-0.7,0.5981321237244209,0.43337025226845044,-0.5043127963881163,0.44732179738627986,30.16146190383282,-82.3085951002511,47.07800473779288,0
1767372067.6676679,2,right_wrist,0.8047,-0.2967,-0.4826,5.46,-4.34,-1.05,0.10540017929695067,-0.8564455001350126,0.11879738655090143,-0.49120167798098435,-149.02672382144925,-54.71932059096582,-32.112414315295084,0
1767372067.742016,1,left_wrist,0.9789,0.0688,0.1337,-2.24,-2.52,-3.15,0.5990317144534433,0.43608039811863647,-0.49731441026478646,0.45130174916417887,30.475897743335658,-81.65886725358757,47.497493359049656,0
1767372067.742016,2,right_wrist,0.8228,-0.2889,-0.4963,2.66,-3.57,0.14,0.10245741932328196,-0.8572539835109503,0.11561309013206379,-0.49117379650215026,-149.77711969491557,-54.927992949347555,-31.340834875200052,0
1767372067.818343,1,left_wrist,0.9882,0.0669,0.1235,2.03,-0.49,-2.52,0.5966115798714798,0.43500565747781883,-0.49947788986932795,0.45315178280266205,28.435938296473843,-81.98671168238145,49.599518433289084,0
1767372067.818343,2,right_wrist,0.8057,-0.2767,-0.4836,-3.64,-4.55,0.84,0.10149562251971052,-0.8592296105935697,0.11401834216586382,-0.48828570789887654,-150.37637067527817,-54.68183563921392,-30.688520120023675,0
1767372067.8916721,1,left_wrist,1.0004,0.0659,0.1196,1.19,0.63,-3.71,0.5961362875152924,0.43643095118776304,-0.5000501768432409,0.45177358509752724,29.94456588898006,-82.10942659825638,48.088903143821845,0
1767372067.8916721,2,right_wrist,0.8023,-0.3348,-0.4782,6.93,-0.77,-1.47,0.10776520703817363,-0.857922292323896,0.11392805638482467,-0.4892610739207721,-149.24163976501305,-54.58152881740436,-31.282569192811874,0
1767372067.942393,1,left_wrist,0.9823,0.0771,0.1171,-2.59,0.21,-4.69,0.5992995158476384,0.43976643815601374,-0.4974534986573897,0.4471974808179062,34.789985964591665,-81.71842852507551,43.13619819820394,0
1767372067.942393,2,right_wrist,0.7998,-0.2547,-0.5187,6.37,-2.45,-0.98,0.1068250960747788,-0.8598774396923576,0.1107151883737754,-0.4867662011891229,-149.92144305991812,-54.43579008833293,-30.409580299058806,0
1767372067.993279,1,left_wrist,0.9926,0.039,0.121,-0.07,0.0,-0.49,0.5975947732454715,0.43690542865806226,-0.49965396645585647,0.4498222395610718,31.42994199282399,-81.9887628609321,46.4560008412772,0
1767372067.993279,2,right_wrist,0.8281,-0.2943,-0.4656,-5.88,-2.66,1.96,0.10567011302624456,-0.8587879660532899,0.11223726924821117,-0.48858965601696747,-149.79719713260067,-54.63381978111048,-30.761320908997945,0
1767372068.066138,1,left_wrist,0.9701,0.0844,0.1157,0.98,-0.28,-0.14,0.5991708435598134,0.4402121150614893,-0.4972446403961752,0.44716368544213203,35.0830781934655,-81.71467286718628,42.88636704947523,0
1767372068.066138,2,right_wrist,0.8057,-0.2674,-0.4909,2.94,-3.29,0.42,0.10477885673547686,-0.8608931177572339,0.1090479233226023,-0.4857910882246232,-150.49634311920548,-54.44685908113771,-29.866917513796114,0
1767372068.117456,1,left_wrist,1.0063,0.0493,0.1235,1.54,-0.49,-0.28,0.597151217822847,0.43773088341241456,-0.49914777765547225,0.4501706263421474,31.77032963917183,-81.98869056683301,46.23826091175487,0
1767372068.117456,2,right_wrist,0.8072,-0.3001,-0.4787,1.12,-2.31,-0.49,0.10770384647435767,-0.8595537180543352,0.10940250827637181,-0.48744064091582956,-149.81117688230512,-54.52775143010604,-30.333331667169404,0
1767372068.1688378,1,left_wrist,0.9745,0.0698,0.1113,2.03,-0.28,0.21,0.5942559557546164,0.43905516891305757,-0.5015138464697937,0.45008252521061726,32.27599391946184,-82.426801768846,45.83765254342899,0
1767372068.1688378,2,right_wrist,0.7989,-0.2874,-0.4846,6.65,-3.92,-1.26,0.11134072084357209,-0.858228836444105,0.10738797095785231,-0.4894020145763469,-149.16235137103658,-54.69870556793246,-30.501539914493403,0
1767372068.2432861,1,left_wrist,0.9867,0.0815,0.1069,3.01,-0.7,-0.07,0.5958419477312419,0.4436469410340466,-0.4995568335833901,0.44563744799456667,37.886632537225864,-82.19045375055238,40.255252153370975,0
1767372068.2432861,2,right_wrist,0.812,-0.2723,-0.4904,-0.56,-0.42,-1.4,0.10659573409809517,-0.8588217519292479,0.10448882501280525,-0.49004554210063855,-150.12402755700165,-55.0295161692689,-29.696982410747637,0
1767372068.314539,1,left_wrist,0.9848,0.0698,0.1069,-2.52,-3.08,-1.82,0.5940923011628338,0.44112522594291204,-0.502869344581378,0.4467497006335413,35.458341957689115,-82.58914230092158,42.514706861106674,0
1767372068.314539,2,right_wrist,0.8047,-0.285,-0.4875,0.63,-3.36,0.14,0.10964358348434558,-0.8595414010634177,0.10422041342956259,-0.4881649002982692,-149.83316187909026,-54.72024153390792,-29.705724184915717,0
1767372068.3685288,1,left_wrist,0.9858,0.0776,0.1196,1.96,-2.1,-0.28,0.5954784211722391,0.4408048843006941,-0.5006509378872007,0.44771100308964423,34.862620409167036,-82.29010861255662,43.193414128346014,0
1767372068.3685288,2,right_wrist,0.8072,-0.284,-0.4782,0.84,-1.96,-1.75,0.10969813784382501,-0.8581945859551475,0.10266221995561228,-0.49084502624011145,-149.6694866683708,-55.08052749613617,-29.732866322328103,0
1767372068.44142,1,left_wrist,0.9877,0.059,0.1332,1.4,-2.94,-1.26,0.5971905612393237,0.4374990496364981,-0.49995550788188764,0.44944688815519285,31.947334668866688,-82.05557391994967,45.95763862373678,0
1767372068.44142,2,right_wrist,0.8101,-0.2625,-0.5134,3.5,-1.4,-1.96,0.10775414862155946,-0.8601698768630346,0.09995142680403134,-0.4883713122943577,-150.47854257070736,-54.94730922623706,-28.858432757033775,0
1767372068.49361,1,left_wrist,0.9794,0.0776,0.1298,-2.45,-2.73,-0.56,0.5995129773226532,0.43657221532128043,-0.4984683897381671,0.4489077358021759,31.924621356364398,-81.74458710760386,45.84507387389876,0
1767372068.49361,2,right_wrist,0.8154,-0.2874,-0.4748,-3.78,-3.08,0.28,0.10799701166862838,-0.8591029617095042,0.10096568599631438,-0.48998436393817496,-150.18663406534412,-55.093408791478375,-29.216130114571566,0
1767372068.566359,1,left_wrist,0.9838,0.0747,0.1362,1.54,-1.68,-0.56,0.6007676114267413,0.4355727392153332,-0.4965903238760451,0.45028070816518884,30.876531696643823,-81.46707768996838,46.948586372248165,0
1767372068.566359,2,right_wrist,0.8164,-0.2591,-0.5036,2.52,-1.75,-1.89,0.10907978036848275,-0.8595582768214541,0.09758544414143802,-0.4896307295852804,-150.32136094262842,-55.12917386452191,-28.70240664172558,0
1767372068.617822,1,left_wrist,0.9843,0.0737,0.124,0.07,0.7,0.84,0.5981464922561073,0.4354592230930678,-0.4994867731026635,0.4506761612514966,30.14643111174254,-81.90449332326983,47.68245873046685,0
1767372068.617822,2,right_wrist,0.8106,-0.2562,-0.4831,-1.19,-4.2,-0.28,0.10471323472996853,-0.8604770519022628,0.09504417405681777,-0.48947010797374996,-151.29073052415873,-55.33088866380047,-27.888516024948185,0
1767372068.669576,1,left_wrist,0.9794,0.0874,0.1269,-1.54,-0.14,-1.54,0.6013278043713062,0.4371451192247306,-0.49642965866323396,0.44818144810722055,32.879716493004146,-81.44540735777873,44.89169825229068,0
1767372068.669576,2,right_wrist,0.8057,-0.3123,-0.4753,4.62,-2.24,-0.21,0.11045970756926955,-0.8595651899109972,0.09589687861303206,-0.48964285552763875,-150.22717449717277,-55.142337388569295,-28.53601663649964,0
1767372068.741729,1,left_wrist,1.0048,0.0747,0.1137,1.89,-0.35,-1.82,0.5984837318285318,0.43680450312143604,-0.4987797185130868,0.4497086180955793,31.561349451232523,-81.84687737086743,46.31028686069068,0
1767372068.741729,2,right_wrist,0.814,-0.2611,-0.489,4.62,-2.31,-0.56,0.10792272951012881,-0.8602061283749164,0.0921035282498936,-0.48981123021552053,-150.9580468629871,-55.36578398260707,-27.69925634642691,0
1767372068.8156679,1,left_wrist,1.0136,0.0688,0.1166,0.49,0.7,-2.8,0.5963974432986627,0.4371610085996873,-0.5010309505349061,0.4496313254134001,31.490584494017913,-82.20079490583875,46.390272095958395,0
1767372068.8156679,2,right_wrist,0.8115,-0.2962,-0.4797,-2.38,0.07,-1.82,0.11141460316921349,-0.8582400243099078,0.09302656260136788,-0.492297578222511,-150.02915197011612,-55.5165676169179,-28.41074037895913,0
1767372068.8726232,1,left_wrist,1.0067,0.0727,0.1103,0.49,-0.91,-1.61,0.5946713946438172,0.4397325828718104,-0.5026880939975606,0.44755543579132556,34.09673496236874,-82.5145057740322,43.818945055177345,0
1767372068.8726232,2,right_wrist,0.8237,-0.2635,-0.4836,1.68,-2.8,-0.28,0.10810280249396578,-0.8586720129956391,0.08992354286299147,-0.4928589196006655,-150.80126593806153,-55.788358046619614,-27.657471459488633,0
1767372068.9419498,1,left_wrist,1.0707,0.0732,0.1108,-5.39,-8.05,-5.11,0.5935224031639352,0.44094087528354625,-0.5055502797618938,0.4446585387455841,36.440958141040326,-82.8607737893875,41.28066765010721,0
1767372068.9419498,2,right_wrist,0.8091,-0.2728,-0.486,-1.61,-0.84,-2.38,0.10893843824197558,-0.860388502958545,0.09097470526417228,-0.4894769081910301,-150.91387930856754,-55.331744703804794,-27.561249659195735,0
1767372069.014594,1,left_wrist,1.0297,0.0761,0.0932,-2.94,-10.71,-5.39,0.5907842538227658,0.44505054911812725,-0.5098913102447586,0.43922070295196075,42.900135055410644,-83.424761192971,34.65592823835142,0
1767372069.014594,2,right_wrist,0.8369,-0.2621,-0.4709,4.62,-1.68,-3.22,0.10617435376382124,-0.8575647194124743,0.0849175189341802,-0.4960834341115439,-151.23781321764125,-56.38902015836468,-26.962861276225386,0
1767372069.0711071,1,left_wrist,0.9414,0.0756,0.0747,-0.84,-12.46,-5.32,0.587813637290012,0.45071722411996723,-0.5134999012264917,0.43318236706710533,52.026574631226,-83.81010582205096,25.47355372579937,0
1767372069.0711071,2,right_wrist,0.8101,-0.2547,-0.4758,3.5,-2.8,-0.49,0.10432347164197507,-0.8596574233122378,0.08242434790612987,-0.4932666162239031,-152.06491837167647,-56.18955349658287,-26.080405734062342,0
1767372069.14159,1,left_wrist,0.9126,0.0908,0.1225,-0.98,-6.3,2.59,0.5888289416425031,0.4491489133288377,-0.5147356066626977,0.4319641031072818,51.662721840100495,-83.833990916643,25.546728049478276,0
1767372069.14159,2,right_wrist,0.8101,-0.2547,-0.4758,3.5,-2.8,-0.49,0.10682638322598162,-0.8582023295506157,0.08148492307572543,-0.4954160803931331,-151.49502214154245,-56.400388119109586,-26.359928547852835,0
1767372069.21681,1,left_wrist,0.9492,0.0991,0.1484,4.34,-2.03,3.29,0.5890915145359544,0.4486742235516754,-0.5128282238657479,0.4343614179790132,49.336737903117076,-83.70945694458167,28.07792125129147,0
1767372069.21681,2,right_wrist,0.8208,-0.3001,-0.4675,-3.5,-5.67,2.94,0.11444693287523756,-0.8593947971281161,0.08538213600802104,-0.49097084748005443,-150.29206234502323,-55.52083852519729,-27.241889866020728,0
1767372069.2907772,1,left_wrist,0.997,0.0874,0.1396,5.32,4.06,-3.36,0.5943072185182426,0.4468432905836208,-0.505637041400451,0.43756277954290207,44.775901206806275,-82.77115227044071,32.82588183132458,0
1767372069.2907772,2,right_wrist,0.8174,-0.2879,-0.4685,5.88,-6.16,0.49,0.11917500004523571,-0.8585475844349052,0.08470999266977289,-0.49144438318806155,-149.49026766913505,-55.45349141336926,-27.58486957329947,0
1767372069.341983,1,left_wrist,0.9872,0.0571,0.12,0.14,5.18,-2.45,0.5963088330647375,0.44343694310498233,-0.5035794624318052,0.4406667426929037,40.50389445931186,-82.47752730926715,37.08160012059365,0
1767372069.341983,2,right_wrist,0.8091,-0.2796,-0.5051,-1.82,-2.24,-0.07,0.11737057770581487,-0.8610336855518422,0.08488774470753876,-0.4874825234123602,-150.1869191199184,-55.03988238490827,-27.05335223428508,0
1767372069.418571,1,left_wrist,0.9736,0.0761,0.0947,-2.24,5.81,-0.28,0.5953860309381755,0.44023968367372585,-0.5055446663532833,0.4428646355313225,37.06104278923359,-82.71227355234375,40.408184465598474,0
1767372069.418571,2,right_wrist,0.8023,-0.2806,-0.5187,-2.59,0.35,-2.52,0.11659390083024314,-0.8618675612763035,0.08478305736483999,-0.4862118903242649,-150.453901523296,-54.91798178832544,-26.842565107299897,0
1767372069.493166,1,left_wrist,0.9731,0.0917,0.0908,-0.56,3.99,-0.77,0.5989301386102114,0.443615844702594,-0.5041695577011976,0.4362347171885055,43.030353451277364,-82.29262764667425,34.12252998004826,0
1767372069.493166,2,right_wrist,0.8228,-0.2664,-0.4812,-1.4,-3.36,1.82,0.11444394306046365,-0.8613141728903088,0.08385256157248158,-0.4878618937699376,-150.73358557190457,-55.206293379649004,-26.668596676478394,0
1767372069.5651278,1,left_wrist,1.0263,0.1161,0.0893,-1.12,5.46,-1.75,0.6009774917528039,0.445923105324205,-0.5019746821284438,0.4335897335576274,45.67054858765612,-81.9092252896697,31.468360274148118,0
1767372069.5651278,2,right_wrist,0.8164,-0.2879,-0.4797,1.4,-2.31,0.35,0.12017240714715821,-0.8585812419990424,0.08561528362358124,-0.49098560738365143,-149.2921894025895,-55.338348074946914,-27.774210438539047,0
1767372069.639631,1,left_wrist,0.9945,0.0146,0.0644,-9.94,-9.87,-2.8,0.5960955422545193,0.4504833303631958,-0.5024021856000377,0.4351171307515706,48.18938452067662,-82.30095584831861,29.561604152766762,0
1767372069.639631,2,right_wrist,0.8189,-0.2723,-0.4841,-1.61,-2.31,3.92,0.11628185217160951,-0.8593151574393472,0.08479849008229885,-0.49078020246368137,-150.04633986188173,-55.46183126848338,-27.281942336749,0
1767372069.6898072,1,left_wrist,0.9096,0.1142,0.0903,-14.14,-3.15,-2.66,0.6013169170263571,0.4496215595194194,-0.5022991596135266,0.4288985576622839,50.341691763514326,-81.79590756842175,26.70053896920242,0
1767372069.6898072,2,right_wrist,0.8145,-0.2967,-0.4841,1.82,-4.76,3.57,0.12211605773639043,-0.8592469844368317,0.08781611554745362,-0.488948481978715,-148.99256501668268,-54.96559765021873,-28.092697278317196,0
1767372069.7402508,1,left_wrist,0.9872,0.0454,0.1113,0.42,0.07,1.47,0.6000181639196636,0.44618270006901034,-0.5038841359849154,0.4324349414979534,46.65544447306069,-82.12496126148976,30.378505072927968,0
1767372069.7402508,2,right_wrist,0.8384,-0.2918,-0.4797,-2.17,-5.32,2.73,0.1212412623702087,-0.8587493894300425,0.08790255223926821,-0.49002365632919204,-149.02185188520846,-55.11485607782509,-28.14627285573195,0
1767372069.7914822,1,left_wrist,1.0385,0.1103,0.1396,-11.34,1.4,-2.03,0.6050242709332702,0.44193296774899676,-0.5030685194109356,0.4307701804627592,44.47121972407389,-81.68201089581235,31.974755383672868,0
1767372069.7914822,2,right_wrist,0.8042,-0.2967,-0.5295,-3.22,-5.25,0.7,0.1201888207471781,-0.8618548815658127,0.08911715176007305,-0.48458120449595843,-149.65714266050566,-54.47436114310475,-27.698900321174875,0
1767372069.8659961,1,left_wrist,1.0756,0.1244,0.1493,-2.94,1.12,-1.47,0.6084769170122923,0.44032565673806406,-0.5004941960518576,0.4305516428952666,43.31463151320058,-81.20592653035723,32.97060897977537,0
1767372069.8659961,2,right_wrist,0.7857,-0.2923,-0.5065,1.26,-1.19,0.07,0.12229273881181955,-0.8627626950904225,0.09112169064977682,-0.48206001232973145,-149.39807247946206,-54.0490360667499,-27.946336175704843,0
1767372069.918493,1,left_wrist,1.0155,0.0786,0.1147,-6.58,-2.03,-4.2,0.6082255571907089,0.4370141757960793,-0.503845889329557,0.43037146924376024,41.59465149598388,-81.51742089427,34.31188292346372,0
1767372069.918493,2,right_wrist,0.8101,-0.3172,-0.4636,-0.07,0.21,-0.07,0.12428603324226432,-0.8608811006247915,0.09169119662531032,-0.4847983467271409,-148.74452362561198,-54.28351501495824,-28.480400221091838,0
1767372069.9955761,1,left_wrist,0.9701,0.0927,0.1147,-0.98,-0.35,-3.71,0.6092025220388562,0.4369651176769546,-0.5038949975449835,0.42897972507357884,42.217870444231785,-81.43462156087834,33.54507396176803,0
1767372069.9955761,2,right_wrist,0.813,-0.2845,-0.4841,1.05,-0.77,-0.42,0.12180583543227207,-0.8600616774915928,0.08918186655481002,-0.4873436611291807,-149.09972766623795,-54.74244737965729,-28.12627325349485,0
1767372070.068424,1,left_wrist,0.9877,0.1152,0.1191,11.83,1.12,-2.1,0.6102713928792792,0.44145424031284414,-0.49781088294303893,0.4299666330850176,44.01472361689808,-80.83029669953564,32.34989293156556,0
1767372070.068424,2,right_wrist,0.8081,-0.3006,-0.4851,-0.56,-2.66,-0.07,0.12363115402333731,-0.8612790649487004,0.09014915734938217,-0.4845480775579926,-149.00162823825457,-54.328308483381484,-28.14810755963977,0
1767372070.118464,1,left_wrist,1.0321,0.0947,0.1308,2.52,-2.8,-4.13,0.609580770914859,0.4402688116539693,-0.4980709570342561,0.43185643329077333,42.52988845552595,-80.9293859717956,33.90136548189458,0
1767372070.118464,2,right_wrist,0.8042,-0.2957,-0.4958,1.33,-2.73,-0.35,0.12060979673115316,-0.8632882148233952,0.08795769071033499,-0.48213087406264554,-149.92248670328723,-54.21517166982982,-27.2970254719786,0
1767372070.193493,1,left_wrist,1.0126,0.0649,0.1181,-3.43,-1.96,-4.9,0.6069925267519181,0.43756318181074016,-0.5019593280762953,0.433745740438079,40.238398827077496,-81.47584228198393,36.07539037730902,0
1767372070.193493,2,right_wrist,0.8062,-0.3079,-0.4973,-0.35,-2.73,-0.63,0.12440576637681369,-0.8626736853495522,0.08961605669390482,-0.48196087007168387,-149.17492961596713,-54.022954182244945,-27.860905993291784,0
1767372070.269578,1,left_wrist,0.976,0.0605,0.1196,-0.35,-0.7,-0.14,0.6057225376725653,0.4344121084569771,-0.5038443855944832,0.43649417233955023,36.95781894402712,-81.73608439861076,39.29937828172539,0
1767372070.269578,2,right_wrist,0.7954,-0.2904,-0.5056,2.59,-2.52,-0.91,0.12222267639135366,-0.8642295678358279,0.08662656810600448,-0.480275659545857,-149.93974028935907,-53.99458012252797,-27.027128403246575,0
1767372070.319768,1,left_wrist,0.9902,0.0952,0.1147,0.7,-1.82,0.84,0.606869934197958,0.43766376702439475,-0.5020107209103143,0.43375632109709844,40.29630023654541,-81.48970054631987,36.028165583811635,0
1767372070.319768,2,right_wrist,0.8013,-0.2918,-0.4846,-1.61,-2.87,-0.21,0.12250902976180354,-0.8630605998694616,0.08655795207832186,-0.4823128232918895,-149.69830510920377,-54.225308728613605,-27.24030701658665,0
1767372070.370592,1,left_wrist,0.9789,0.1064,0.1249,-1.05,-1.68,0.63,0.609237492357709,0.4376026835525483,-0.4997787976028109,0.4330758856366714,40.50332245062631,-81.11424595677542,35.76694770330865,0
1767372070.370592,2,right_wrist,0.8047,-0.3216,-0.467,2.1,-1.61,-0.98,0.12599164754985814,-0.8616087842344045,0.08676780015009072,-0.48397082198712943,-148.9335868504886,-54.303874614798474,-27.7269976659604,0
1767372070.441247,1,left_wrist,0.998,0.102,0.122,-0.56,-2.24,-1.12,0.6096834403783601,0.43813541936678224,-0.4986890373960902,0.43316590448194503,40.734771291510725,-80.98799672747262,35.60762626900377,0
1767372070.441247,2,right_wrist,0.792,-0.2791,-0.4982,6.16,-3.92,-0.07,0.1250525197074738,-0.8636794872499348,0.08373485868467913,-0.48104894143897514,-149.6204341760661,-54.096097124354955,-26.859772539094934,0
1767372070.4919198,1,left_wrist,0.9819,0.1132,0.1093,3.71,-0.91,-1.4,0.6089374129826827,0.4427854832760893,-0.49773452721529327,0.43057703525349117,44.54491561779902,-80.92578095401348,32.01462192407628,0
1767372070.4919198,2,right_wrist,0.8145,-0.3001,-0.4797,1.33,-1.82,-0.42,0.12657305941348493,-0.8621291772258918,0.08314515354635249,-0.48352810243901106,-149.16820436134105,-54.358557812808144,-27.13490721876191,0
1767372070.568594,1,left_wrist,0.9804,0.0878,0.1235,-1.61,-2.59,-1.68,0.6086672655019921,0.4399361429601431,-0.4991376472730523,0.43225219386187264,42.22674813481663,-81.09420745464558,34.20083279048258,0
1767372070.568594,2,right_wrist,0.7984,-0.3001,-0.4846,-0.63,-1.12,-1.12,0.12758634983556782,-0.8628077925965008,0.08115762461371538,-0.4823876826137346,-149.26881040606943,-54.262997050564536,-26.77769064447259,0
1767372070.643758,1,left_wrist,0.9843,0.1122,0.1166,0.49,-0.84,-1.68,0.6088060461179164,0.44139171349275014,-0.49688927417028006,0.4331623283305413,42.54783692650923,-80.89750308324356,34.136908292262056,0
1767372070.643758,2,right_wrist,0.8076,-0.3245,-0.4636,0.21,-2.52,-0.91,0.13026951371920806,-0.8616174751196545,0.08165011362037408,-0.48371317876358555,-148.64760897665758,-54.31913973608952,-27.212925952360198,0
1767372070.716823,1,left_wrist,0.9882,0.0986,0.1132,3.99,-0.91,-1.19,0.6054443584619693,0.4412871031821848,-0.49927337366946106,0.43523432736442663,41.69258907219503,-81.37501760095054,35.166822550725854,0
1767372070.716823,2,right_wrist,0.8169,-0.307,-0.4699,-5.53,-1.75,-0.56,0.1270408937954094,-0.8623784051842152,0.08022054348392259,-0.4834550258077138,-149.32999816655766,-54.435350811432386,-26.685070334857414,0
1767372070.768459,1,left_wrist,0.9897,0.1083,0.1118,0.0,-1.96,-0.07,0.6068377120191409,0.4445705847172288,-0.4974370061462253,0.43204329805221575,44.97622792488583,-81.06846038501794,31.911449717658048,0
1767372070.768459,2,right_wrist,0.8057,-0.3113,-0.4758,3.01,-2.31,-1.12,0.13091178834759568,-0.861019952113022,0.08018467745643545,-0.48484756701063386,-148.54167472966162,-54.481957971028244,-27.141296768132975,0
1767372070.8398452,1,left_wrist,0.9862,0.0917,0.1122,-2.24,-2.87,-1.89,0.6072771754557269,0.44431918056091674,-0.4978942103523932,0.43115687777624123,45.24650961560601,-81.06387361868367,31.523427061894015,0
1767372070.8398452,2,right_wrist,0.795,-0.2996,-0.4982,1.47,-1.82,-0.91,0.1313553038392728,-0.8631454341521358,0.08011489402579532,-0.4809442248440551,-148.8612271921872,-54.01809541197218,-26.772340598372978,0
1767372070.892041,1,left_wrist,0.9804,0.1039,0.1274,2.24,-0.28,-1.4,0.6085337327282745,0.44298307773605866,-0.4958498964862664,0.43311149733739557,43.431126163012955,-80.82463079987865,33.41798425912966,0
1767372070.892041,2,right_wrist,0.8003,-0.2865,-0.4958,3.36,-2.66,-1.33,0.12817871091103783,-0.863989559456355,0.07630890271795555,-0.48090457534273867,-149.69838105247158,-54.235952179480336,-25.884246953465762,0
1767372070.965548,1,left_wrist,0.9848,0.083,0.1352,-2.45,-1.47,-1.33,0.6090247940283094,0.43971561879737064,-0.4966982306100407,0.43477562322797675,40.857853320385246,-80.87992791342599,35.821491137611275,0
1767372070.965548,2,right_wrist,0.8316,-0.304,-0.4641,5.46,-2.31,-1.61,0.1305906934311184,-0.8611292615757723,0.07332317607599703,-0.48582525407524174,-149.04890814267984,-54.84188160104036,-26.082015600161782,0
1767372071.02225,1,left_wrist,1.0019,0.102,0.1352,-0.21,1.26,-0.21,0.6109441391712437,0.4372601051281212,-0.4948079219883024,0.43671040703568126,38.5935280034896,-80.57894526926717,38.05114516599815,0
1767372071.02225,2,right_wrist,0.8228,-0.2206,-0.5022,-1.05,-1.54,-2.45,0.12545364409031995,-0.8623627935700245,0.07017724061560901,-0.48545540510961616,-150.22029234798345,-55.05171085358969,-25.082737740578114,0
1767372071.0921211,1,left_wrist,0.9999,0.0917,0.1113,2.24,-0.49,-0.07,0.6072446861536128,0.4389186417445803,-0.4994088459737344,0.4349656556907407,40.39625173366631,-81.24785153182127,36.19749835166889,0
1767372071.0921211,2,right_wrist,0.8208,-0.2894,-0.4817,-0.7,-1.05,-0.91,0.126712066365836,-0.8607650246905516,0.07030419951236642,-0.48793948809017224,-149.7512667130135,-55.30419406604369,-25.458877262385624,0
1767372071.145052,1,left_wrist,0.9677,0.1093,0.1078,-4.48,-1.05,-1.19,0.6086846320908437,0.4414919812990146,-0.49929834606063545,0.4304521003854188,43.964613889625035,-81.08257221291063,32.438416952210666,0
1767372071.145052,2,right_wrist,0.8086,-0.2879,-0.4797,-1.61,-2.45,-2.24,0.12919543674217338,-0.8599368014878408,0.07130254636269918,-0.4886032986524509,-149.17539376919876,-55.27665167538975,-25.90820398236494,0
1767372071.215523,1,left_wrist,0.9906,0.0913,0.1078,-1.05,-1.4,1.68,0.6058246576374102,0.4389962540303229,-0.5031474632483205,0.43255219728102057,41.755230090402954,-81.65648493706666,34.57284389287453,0
1767372071.215523,2,right_wrist,0.8257,-0.2845,-0.468,2.17,-4.06,-0.7,0.1291830692281763,-0.8610946767458528,0.06952525966919605,-0.48682022407935605,-149.50122943190723,-55.12822577448948,-25.430332788113553,0
1767372071.2662358,1,left_wrist,0.9794,0.1259,0.1186,3.01,-1.4,0.49,0.6074419057298136,0.4416325460069557,-0.4999587786154935,0.4312960064225615,43.740764763723796,-81.2421027050725,32.754400620908804,0
1767372071.2662358,2,right_wrist,0.8257,-0.2747,-0.4719,1.61,-3.22,-0.98,0.12801286925736452,-0.8602759587059199,0.06709227575706989,-0.4889137006781919,-149.69825473979407,-55.48966992680821,-25.1310510055808,0
1767372071.31652,1,left_wrist,0.9838,0.1103,0.1288,0.49,-2.31,-0.56,0.6092177100370533,0.4411633495988792,-0.4979411197355558,0.4316055166751311,43.157803896449586,-80.94079578751894,33.33933780951034,0
1767372071.31652,2,right_wrist,0.8032,-0.2669,-0.5139,-0.56,-2.38,-1.75,0.12569151257011418,-0.8627634544252741,0.06596533289385438,-0.48527254221953253,-150.5456348763152,-55.16177411029541,-24.380581537039305,0
1767372071.368623,1,left_wrist,0.9906,0.1186,0.123,0.63,-0.91,-0.63,0.6117323637574754,0.4423379376688932,-0.49478970158916075,0.4304692965030507,44.06099149063001,-80.46463801894947,32.47065290140926,0
1767372071.368623,2,right_wrist,0.8179,-0.326,-0.468,-0.77,-2.1,0.42,0.1290938174877341,-0.8618109372016086,0.06785496831507415,-0.48581107241507876,-149.75259227121265,-55.068307792582985,-25.043700159641045,0
1767372071.439879,1,left_wrist,0.975,0.1108,0.1225,-2.17,-2.87,-3.01,0.6143181163561623,0.44093624769712453,-0.49305952391247043,0.4302101617379633,43.24626357929762,-80.1240159064172,33.13623260815271,0
1767372071.439879,2,right_wrist,0.8198,-0.3035,-0.4865,2.24,-1.47,-0.49,0.13354510569761108,-0.8606018950782436,0.06887991904800995,-0.48660624706623856,-148.8274924272255,-54.99993210694618,-25.676399457243978,0
1767372071.490471,1,left_wrist,0.9887,0.0874,0.1166,0.07,-0.84,-0.84,0.6118096758056838,0.4393104993766287,-0.4961556872824439,0.4318851001195651,41.851599565477656,-80.59889740179618,34.50449616676524,0
1767372071.490471,2,right_wrist,0.795,-0.2669,-0.5095,1.05,-2.38,-1.12,0.1312112803616046,-0.8628928371108816,0.06716934315649604,-0.4834126921260204,-149.67737658970665,-54.74984042784701,-24.875763453331583,0
1767372071.544632,1,left_wrist,0.9648,0.1122,0.1118,0.0,-2.1,-1.12,0.6107977518695785,0.4428329445087358,-0.49704098490220666,0.4286902715204019,45.278563252945894,-80.70129997968058,31.104832153715662,0
1767372071.544632,2,right_wrist,0.7993,-0.3021,-0.4651,2.87,-3.15,-0.07,0.13508579377420993,-0.8616477527080086,0.06740087051774578,-0.4845328690884449,-148.88867142318696,-54.76409547375275,-25.354601119849754,0
1767372071.6155882,1,left_wrist,0.9984,0.0942,0.1235,0.42,-2.24,0.42,0.6094273466289873,0.43998288783277384,-0.49882820471885203,0.4314901966117562,42.57063680480572,-81.00269732755395,33.788609436353035,0
1767372071.6155882,2,right_wrist,0.8076,-0.2699,-0.5017,1.33,-2.94,-0.07,0.1348101455506924,-0.8622207251831644,0.06431909082957105,-0.4840089878050578,-149.23573062245674,-54.81576057596271,-24.769520083661924,0
1767372071.667565,1,left_wrist,0.9828,0.1122,0.1191,3.99,-0.91,0.49,0.6110812074039179,0.4420216150629741,-0.4952395219243967,0.43120118935247026,43.620499038077554,-80.5619998387644,32.94781128618534,0
1767372071.667565,2,right_wrist,0.812,-0.3099,-0.4626,2.03,-3.01,0.21,0.1381265788434962,-0.8609303268077131,0.06463876721263218,-0.4853265399429408,-148.51363243088036,-54.8659652857365,-25.23738649368601,0
1767372071.718569,1,left_wrist,0.9819,0.0927,0.1205,-1.19,-0.98,-0.07,0.6095731544422847,0.43883527447948223,-0.4977933007115375,0.4336427112526081,40.89373919232131,-80.92339430421414,35.57438652590153,0
1767372071.718569,2,right_wrist,0.8091,-0.2664,-0.5051,-0.21,-2.38,-1.05,0.13431274195995332,-0.8629615010273012,0.06246810949449866,-0.48306859801490876,-149.5610052802846,-54.781494523041104,-24.32844517115785,0
1767372071.7931159,1,left_wrist,0.9789,0.0825,0.1152,1.54,-0.21,0.21,0.6092127793707485,0.439630807462115,-0.4982892050819091,0.4327729320098654,41.7661057531994,-80.98557699102291,34.69046234791384,0
1767372071.7931159,2,right_wrist,0.8052,-0.2738,-0.4958,-3.57,-3.92,1.19,0.12943513374627236,-0.8652098807319655,0.06149326451745465,-0.48049660441552466,-150.71508051552843,-54.640993054900015,-23.50434273890927,0
1767372071.865233,1,left_wrist,0.9848,0.1157,0.1225,2.87,-0.42,-0.84,0.6114005709509547,0.4419313853119586,-0.49452465080603647,0.4316611660345039,43.32776025240846,-80.48229114950696,33.28407249765781,0
1767372071.865233,2,right_wrist,0.8028,-0.2621,-0.4943,0.77,-4.06,0.56,0.12843953000124717,-0.8655673616433559,0.05914363566824324,-0.480414883148681,-151.08505950980228,-54.73298486441938,-23.020568581006035,0
1767372071.920405,1,left_wrist,0.998,0.0839,0.1225,-2.52,-0.28,-0.49,0.6101074070622091,0.43852948816711773,-0.4973533489050109,0.43370552934990825,40.673726393746556,-80.84561969880849,35.774141665425105,0
1767372071.920405,2,right_wrist,0.8179,-0.2952,-0.4738,3.57,-2.87,-0.35,0.132001258316701,-0.864166015703659,0.058819576749356665,-0.4820093593455396,-150.35415299567933,-54.839659135381496,-23.422470239405285,0
1767372071.9933922,1,left_wrist,0.9867,0.1054,0.1049,-4.13,-1.05,-1.33,0.6065161171844086,0.4429250677115841,-0.501079722151366,0.42997057578042147,45.24619083145086,-81.38429196608496,31.237057443721017,0
1767372071.9933922,2,right_wrist,0.8028,-0.2645,-0.4958,0.21,-2.59,-0.91,0.12789491268046307,-0.8657995685497166,0.056183304826628165,-0.480497070405574,-151.41484174607655,-54.85095297333441,-22.487106627898104,0
1767372072.064645,1,left_wrist,0.9936,0.102,0.1166,1.05,-1.89,-0.91,0.607306585565228,0.4412318132430767,-0.5000912291424001,0.43174293352199133,43.30679906315229,-81.27010463405264,33.191458819963266,0
1767372072.064645,2,right_wrist,0.8115,-0.2796,-0.4865,-2.45,-2.52,-0.84,0.12995952652304515,-0.8636559324086536,0.05624761650244444,-0.4837821384869839,-150.75549863623127,-55.187311457945874,-22.98198595367061,0
1767372072.11661,1,left_wrist,0.9887,0.1088,0.1103,-2.03,-2.24,-2.17,0.6093982833383821,0.4444902092193148,-0.4983206339816751,0.42747951052711775,46.915740072041885,-80.88500893899342,29.502202620683907,0
1767372072.11661,2,right_wrist,0.8091,-0.3011,-0.4778,1.4,-3.22,-0.28,0.13424184661157768,-0.8629338133495542,0.057496203203621914,-0.4837546351338438,-149.91415586808267,-55.03074127681282,-23.562508332011983,0
1767372072.196542,1,left_wrist,0.9726,0.1088,0.1176,-2.52,-3.85,-2.73,0.6107594651011522,0.4412646461639552,-0.4985959312430857,0.4285562800648172,44.563372642863534,-80.84367060512174,31.635039956963563,0
1767372072.196542,2,right_wrist,0.7979,-0.283,-0.5041,0.84,-3.36,-0.49,0.13420339301216222,-0.8654532454893159,0.0573862785057751,-0.4792566579770079,-150.34479077926142,-54.50296751527053,-23.116225320306945,0
1767372072.2664819,1,left_wrist,0.9589,0.0927,0.1254,3.5,-0.7,-0.63,0.6104923123111831,0.4394141190335446,-0.497841968540967,0.4317033043215834,42.08201881691441,-80.84100809197435,34.25054530310213,0
1767372072.2664819,2,right_wrist,0.8111,-0.3055,-0.4626,5.04,-4.34,0.49,0.13535663549459484,-0.8668093050239636,0.05569236115386439,-0.47667449151445496,-150.51552879895698,-54.22266066280414,-22.69750690255057,0
1767372072.33837,1,left_wrist,1.0082,0.1191,0.1352,-1.26,0.49,-1.05,0.615583757945447,0.438347485176818,-0.4927197044706794,0.431434134045102,41.34488497169344,-80.01613999349449,34.9038050369449,0
1767372072.33837,2,right_wrist,0.813,-0.2855,-0.51,5.11,-4.62,-0.7,0.132982831507669,-0.8680702249684048,0.05171915821567672,-0.4754942478316304,-151.34237296721494,-54.269156519436805,-21.735145358232323,0
1767372072.392111,1,left_wrist,0.9882,0.101,0.1249,1.33,0.91,-1.61,0.6132371643989949,0.43727893531552303,-0.4950675821918608,0.4331690224287831,40.13755665480839,-80.4079125557356,36.153692472610544,0
1767372072.392111,2,right_wrist,0.8052,-0.2684,-0.4939,-4.34,-1.26,0.56,0.13001732587377088,-0.8670599687678802,0.05136443325608209,-0.4781884571266416,-151.64807796671744,-54.67442829297216,-21.659694467250876,0
1767372072.443264,1,left_wrist,0.9931,0.1044,0.1049,-4.55,-0.07,-3.01,0.6125247700964471,0.43815593744967896,-0.49764000667395647,0.43033382885084936,41.93138496512935,-80.65917059643719,34.14126256497645,0
1767372072.443264,2,right_wrist,0.8028,-0.3323,-0.4753,-0.21,-0.84,-0.7,0.13365455657939218,-0.8660651427705941,0.053008918009228766,-0.4788086074777764,-150.83358972833022,-54.60606624739217,-22.303121749506133,0
1767372072.5146902,1,left_wrist,0.9575,0.1147,0.0942,1.75,0.91,-1.4,0.6113266301101564,0.4412272783729491,-0.49802592342695823,0.42844885311141356,44.52946020237675,-80.7511746124935,31.65983202521121,0
1767372072.5146902,2,right_wrist,0.8208,-0.3006,-0.4641,-2.38,-3.85,1.05,0.13390814324514694,-0.867644169525229,0.05304821864885109,-0.47586562258656245,-151.04534109611373,-54.24832376413861,-22.06620807115175,0
1767372072.5899131,1,left_wrist,0.9833,0.1205,0.0878,6.65,-6.23,-3.01,0.6043783018234624,0.45086442861480575,-0.5004471979097617,0.42544181435197476,52.165367814566096,-81.32204648030901,24.674902272671087,0
1767372072.5899131,2,right_wrist,0.8052,-0.2816,-0.4973,1.05,-4.27,2.73,0.1361934048336295,-0.8665279439897918,0.05369588549431064,-0.4771765193779227,-150.48790136497252,-54.325929231686125,-22.485502892680675,0
1767372072.641809,1,left_wrist,1.1058,0.0395,0.1484,4.69,-7.77,-4.83,0.6021740504979489,0.4513943445780542,-0.5015863255430709,0.42666229809773776,52.316341319912766,-81.59925580795213,24.689126689255257,0
1767372072.641809,2,right_wrist,0.8125,-0.3011,-0.4738,-0.84,-7.28,4.13,0.1389948442777367,-0.866177442356707,0.05562560446493127,-0.4767838752983495,-149.8916484032733,-54.14437440996416,-23.0037781788784,0
1767372072.714529,1,left_wrist,1.1751,0.1191,0.1767,-0.49,-3.64,-24.01,0.6074813362358896,0.4550075925609278,-0.49641318105351495,0.4213175411887061,55.31826044008198,-80.58481653312812,21.570249370153718,0
1767372072.714529,2,right_wrist,0.8072,-0.2967,-0.5031,6.16,-3.43,1.19,0.14207281463358107,-0.8649377150869589,0.05550770808106502,-0.4781390579170774,-149.2538375160485,-54.22791663625646,-23.370613360855593,0
1767372072.7664819,1,left_wrist,1.4337,-0.0112,0.4787,35.91,10.22,-51.59,0.6128487546253725,0.47118001618485217,-0.4758564955768095,0.41948348229641924,59.96131711936896,-78.11434725036548,18.611485118637926,0
1767372072.7664819,2,right_wrist,0.7745,-0.2962,-0.5104,-0.42,-2.8,1.26,0.14259575902649294,-0.8672646594753818,0.05676065211830216,-0.47359971315850014,-149.47904918392388,-53.637781670293386,-23.195395543640483,0
1767372072.843688,1,left_wrist,1.3127,0.0,0.1879,-65.94,-0.42,-69.65,0.64787115550329,0.4823262014232992,-0.4532000344586275,0.3771394040061338,66.35832752420066,-71.9967325646188,9.590892562224502,0
1767372072.843688,2,right_wrist,0.7764,-0.3489,-0.4846,-2.87,-0.21,1.61,0.14601109709845475,-0.8665812685971586,0.06016234495080287,-0.47339006822140406,-148.66352156583469,-53.407276800912015,-24.004892141048,0
1767372072.9183989,1,left_wrist,1.1551,0.3836,0.1498,-37.1,-6.09,-52.64,0.6642931819148957,0.4857130339814319,-0.4471386902882752,0.35052019731995676,68.86249315289405,-69.15827463840652,5.052578231738061,0
1767372072.9183989,2,right_wrist,0.835,-0.2943,-0.4841,1.47,-3.64,3.5,0.14371654868798764,-0.8659883599018893,0.057133286343190495,-0.475547580941462,-149.08511586902083,-53.82474822474728,-23.529342773888107,0
1767372072.9895859,1,left_wrist,0.833,0.4465,0.0883,-2.94,30.94,-19.67,0.6714231674929204,0.5054390516895519,-0.417891232698812,0.345093049501736,70.2938316095996,-65.50683266632106,5.671305098389883,0
1767372072.9895859,2,right_wrist,0.7696,-0.3221,-0.5144,9.52,-6.16,1.61,0.15023385159627906,-0.8677524956459107,0.05731196170260009,-0.47026666390532146,-148.4561857697912,-53.02802209952428,-23.59849056727994,0
1767372073.0413802,1,left_wrist,0.8472,0.4309,0.1152,-6.93,12.67,-6.3,0.6767613325268852,0.5056698784109783,-0.4117898127381798,0.3416448784766369,69.65544934242153,-64.54003669045228,6.138048855904691,0
1767372073.0413802,2,right_wrist,0.7676,-0.3362,-0.5061,-0.14,-3.64,0.14,0.1541314847576303,-0.8687396491049971,0.05959122858522441,-0.46688734503629276,-147.9451534051322,-52.45146038441251,-23.957169205042156,0
1767372073.091978,1,left_wrist,0.8242,0.4382,0.1889,43.4,3.29,7.28,0.6690240942673071,0.5167700344984891,-0.40264811100960946,0.3510412959106562,70.88788338561952,-64.36624606693601,7.111360366661835,0
1767372073.091978,2,right_wrist,0.7828,-0.3133,-0.5144,5.6,-1.12,-1.61,0.1524717681092772,-0.8701492704175374,0.05626973681519974,-0.4652164268813026,-148.60848116091051,-52.4156598675012,-23.150384226271374,0
1767372073.168478,1,left_wrist,0.794,0.5846,0.242,-15.82,-2.59,8.54,0.6731606549722902,0.5116680504814265,-0.40449026951083816,0.3484797850447903,69.86995552511007,-64.31437762299281,7.321627229333091,0
1767372073.168478,2,right_wrist,0.7886,-0.3123,-0.51,0.42,-1.68,-1.96,0.15223326691412592,-0.8690150246801561,0.053732601293896794,-0.46770795041670093,-148.61699750619528,-52.80007346833438,-22.954194535419226,0
1767372073.23873,1,left_wrist,0.7315,0.3865,0.2577,-22.19,-18.41,6.93,0.6844241431960734,0.4926596508781864,-0.4205500446562688,0.334645664168109,67.73672979249622,-64.87748564851968,5.908406150701459,0
1767372073.23873,2,right_wrist,0.792,-0.3172,-0.4939,3.43,-2.52,-0.91,0.15510224706779155,-0.8674599576793375,0.05280984747465783,-0.46975273792409883,-148.02605651918338,-52.996764889830565,-23.225102632497066,0
1767372073.289835,1,left_wrist,0.7022,0.4294,0.1025,-22.89,4.62,6.72,0.6898061221860241,0.486973009720196,-0.42180060670318015,0.330316590233617,66.63197373639568,-64.63963667205245,6.017108775491999,0
1767372073.289835,2,right_wrist,0.7837,-0.306,-0.4939,-3.71,0.56,-0.84,0.1513536728968702,-0.8663734700903958,0.05147990964517431,-0.47311615373719595,-148.4521556026093,-53.53376159202533,-23.019557096480685,0
1767372073.341982,1,left_wrist,0.486,0.2767,-0.1566,-20.51,-6.3,6.09,0.6901085929520827,0.4832719439394944,-0.4293002824075941,0.32542222674457716,67.02916043998523,-65.102514610064,4.661765829108214,0
1767372073.341982,2,right_wrist,0.7876,-0.3094,-0.5124,-1.68,-2.31,-1.47,0.1505365124896469,-0.868766174589099,0.05185096602199281,-0.46893023960911656,-148.93332338329992,-53.050966992623366,-22.628228265121695,0
1767372073.417793,1,left_wrist,0.5724,0.429,0.0215,-5.6,-8.05,-8.68,0.6907964024238925,0.4877062901823643,-0.429462002970757,0.3170256975689965,68.84041582925745,-64.49829421588889,2.5423575995991103,0
1767372073.417793,2,right_wrist,0.7984,-0.2996,-0.4885,0.56,-0.84,-1.26,0.15284175832815922,-0.8690289973847999,0.0492679542289903,-0.4679750712395012,-148.82465149441285,-52.96877476531706,-22.315968662188503,0
1767372073.4898078,1,left_wrist,0.6871,0.3177,0.2484,13.16,18.97,-5.88,0.6942986463738294,0.49405849826048587,-0.41004461274991566,0.32514459167397075,67.28836117431538,-62.95727463254449,5.847771187890034,0
1767372073.4898078,2,right_wrist,0.8106,-0.3377,-0.4724,1.89,-1.4,-0.91,0.1555887994868009,-0.8674095869851761,0.04906736209294009,-0.4700905528275405,-148.19378174323086,-53.154310970765685,-22.69911839974893,0
1767372073.5415418,1,left_wrist,0.3914,0.4348,0.0102,59.22,45.64,-17.92,0.6920656250598419,0.5116771162690398,-0.38185740331661144,0.3367738452276612,67.72584373130323,-60.83027091707036,8.895028562820897,0
1767372073.5415418,2,right_wrist,0.771,-0.2786,-0.5124,0.07,-2.03,-1.82,0.1518944124710723,-0.869421357031488,0.04677248943204246,-0.4678107797282179,-149.184659107145,-53.05762759492801,-21.825605848824736,0
1767372073.617703,1,left_wrist,0.529,0.2547,-0.0966,-39.9,-5.74,-34.86,0.7026472218902879,0.5083795395524724,-0.38352102100271174,0.3174094387117596,68.14186180444881,-59.5067433466729,6.347940206433421,0
1767372073.617703,2,right_wrist,0.8433,-0.2445,-0.5056,4.55,-1.05,2.1,0.15324343329273363,-0.8688711617239405,0.04652339309774529,-0.4684174723169687,-148.92490508178074,-53.10433249079806,-21.94965006679436,0
1767372073.690772,1,left_wrist,0.6368,0.9331,0.1449,34.37,20.02,-11.06,0.6716344787126799,0.5571679442801416,-0.3493266920367158,0.3412357998535225,75.16680471543232,-58.15635078978865,7.526087529946697,0
1767372073.690772,2,right_wrist,0.8223,-0.3011,-0.4919,-7.63,-1.89,-0.49,0.14956604389767367,-0.8681279685780623,0.0467044916457374,-0.47095914806428746,-149.31007992629625,-53.48824471941899,-21.904857440184294,0
1767372073.746131,1,left_wrist,0.4724,0.1405,0.4758,-53.55,25.97,-15.05,0.6921224678790074,0.5373254282438142,-0.34524597496550935,0.3362336841986373,70.20223445150262,-57.05982682439279,9.99865556235291,0
1767372073.746131,2,right_wrist,0.7403,-0.3182,-0.509,5.53,-2.52,-2.38,0.15359462231236964,-0.8695111099849493,0.04640109833264439,-0.46712531475288965,-148.9863775877123,-52.94784712315967,-21.843409521792204,0
1767372073.814711,1,left_wrist,1.0795,0.1386,-0.1425,73.78,-22.96,34.79,0.6631252823855849,0.5574632874395262,-0.3528291546107008,0.35356913139420476,75.19212559303588,-59.558112047696895,8.574662632388849,0
1767372073.814711,2,right_wrist,0.7984,-0.2674,-0.5305,-6.93,-0.21,-0.14,0.14264872907525464,-0.8732147718262189,0.04266852310669543,-0.464033080171654,-151.35855881769754,-52.9612070447163,-20.08983921700419,0
1767372073.868643,1,left_wrist,1.1541,0.7476,0.1078,84.42,-30.31,42.49,0.6301860160811955,0.5824501539970158,-0.3576639423917719,0.36836653968206595,82.05755700009897,-61.630293846311034,5.753730733701482,0
1767372073.868643,2,right_wrist,0.7867,-0.325,-0.4895,-2.45,-2.24,-0.56,0.14504518108652015,-0.8723667444871164,0.04429376226562097,-0.46473241890456235,-150.77682748894898,-52.93811456429655,-20.60489924048362,0
1767372073.9381492,1,left_wrist,1.0463,0.164,0.1308,42.56,-18.13,50.05,0.6095907082476797,0.5675000704795424,-0.3888903357020404,0.39383644476020857,82.1125258138782,-67.09218046490048,5.715874141398124,0
1767372073.9381492,2,right_wrist,0.8028,-0.3148,-0.4729,4.13,-3.99,-1.19,0.14843712177355642,-0.8711411948341934,0.043261602156830205,-0.46605565474657695,-150.17780410539362,-53.04970603791803,-20.82765984064828,0
1767372073.989877,1,left_wrist,1.5596,0.5422,0.3011,-35.07,-16.17,46.9,0.6085221277284861,0.5501395899733186,-0.41034711404514845,0.3983246133539866,80.40489651864813,-69.66533768825971,5.495960249294648,0
1767372073.989877,2,right_wrist,0.8233,-0.285,-0.4997,-3.22,-3.15,1.82,0.1464145637039383,-0.870428669102194,0.043102873864311,-0.46803723121671226,-150.36688759181018,-53.33727491893476,-20.805677498753347,0
1767372074.071403,1,left_wrist,1.0673,0.1947,0.2855,3.15,38.64,54.25,0.605687805164984,0.5314951381659185,-0.412478704968298,0.4248723558059428,72.09952775641824,-72.04553929912747,14.315153055602368,0
1767372074.071403,2,right_wrist,0.7774,-0.325,-0.5051,2.31,-1.61,0.84,0.1497059421240131,-0.87226343011395,0.044700669850994454,-0.4634074767345476,-150.07428778041455,-52.65930582535685,-20.935458758608448,0
1767372074.143253,1,left_wrist,1.2795,0.2899,0.2791,-38.64,-7.0,19.67,0.60720610959149,0.49981839093380076,-0.449075155415535,0.4240445983002577,66.77713927961112,-75.75512730557301,15.571166804949415,0
1767372074.143253,2,right_wrist,0.7984,-0.305,-0.5061,1.82,-2.59,1.75,0.1520002729568583,-0.8707815693871319,0.044838730521629774,-0.46542976235081124,-149.51357509317103,-52.83928912885709,-21.316032272083653,0
1767372074.218569,1,left_wrist,1.0882,-0.0268,0.1469,2.31,10.64,29.12,0.6018823255456365,0.4898823895852313,-0.454354727919351,0.4373953495264585,60.86454674922141,-77.2859797724432,21.695690376194005,0
1767372074.218569,2,right_wrist,0.8052,-0.2987,-0.5266,-3.29,-0.49,1.05,0.14576308110813174,-0.8716259215243004,0.045212862162321246,-0.46580808731479695,-150.49905655966325,-53.01947994967353,-20.901961505560962,0
1767372074.2905679,1,left_wrist,1.0814,0.0273,0.1357,-52.64,1.61,-3.43,0.6144726339469285,0.47323563013841324,-0.4623234717013002,0.42980045138631484,55.917144109611044,-77.15215706877959,24.051428356143916,0
1767372074.2905679,2,right_wrist,0.7788,-0.2889,-0.5051,2.59,-2.17,1.26,0.14811447992344373,-0.8700125767163753,0.04497186114899415,-0.4681001483626515,-149.931807604007,-53.24332144053178,-21.252829857299755,0
1767372074.34273,1,left_wrist,1.036,0.0586,0.0878,22.26,-0.49,-0.14,0.6072395988609841,0.47761256593640544,-0.4614714272702891,0.4361082758305745,56.422744523316204,-77.69555215863188,24.636462749975294,0
1767372074.34273,2,right_wrist,0.7828,-0.3401,-0.4743,-1.19,3.15,0.56,0.15122724323440684,-0.8680022671200556,0.047215596799991065,-0.4706092568118331,-149.02119444706724,-53.38863887932761,-22.09276471428512,0
1767372074.415425,1,left_wrist,0.997,0.1259,0.0834,7.63,-3.01,0.63,0.6021694285219704,0.47943626048845445,-0.46419725214033986,0.438239389589444,57.33907406565736,-78.3123494541676,24.089060144159557,0
1767372074.415425,2,right_wrist,0.8364,-0.2855,-0.4831,2.66,-2.73,-1.05,0.15069156481034413,-0.8662415425019065,0.04258715057627764,-0.47445123768910213,-149.13189873232196,-54.01235230328944,-21.648158905313146,0
1767372074.467597,1,left_wrist,1.0224,0.1703,0.1181,-9.03,-4.69,-14.07,0.6053812545414408,0.47759386402294307,-0.46523871565343555,0.4347074592810753,57.45027730167408,-78.10329029868954,23.419971511704027,0
1767372074.467597,2,right_wrist,0.8047,-0.2513,-0.5226,0.63,-0.77,-3.29,0.1463376718811331,-0.8676707167002703,0.03923248875139124,-0.47349089219922813,-150.2241464589184,-54.11410628647316,-20.64395054877983,0
1767372074.518538,1,left_wrist,1.0458,0.0176,0.101,-20.02,-3.15,-7.0,0.6080452325001668,0.47193998846368057,-0.4712684037776399,0.43065036180594873,56.70230021177605,-78.40342444849841,23.106701820705798,0
1767372074.518538,2,right_wrist,0.7896,-0.3065,-0.5061,-1.47,-1.47,-2.8,0.14892801723890617,-0.8685434794723026,0.04078246116539265,-0.470945284304586,-149.8764224442949,-53.6997413368658,-20.89188665318995,0
1767372074.592352,1,left_wrist,1.2742,0.0937,0.2064,-73.5,-2.03,-57.12,0.6273574255486875,0.47087115839164134,-0.4664200797820893,0.40884633052029024,59.886004310372726,-75.98966944739257,17.732942527639285,0
1767372074.592352,2,right_wrist,0.7788,-0.3396,-0.5002,3.15,-2.1,-2.03,0.15396352687573014,-0.8684477043573905,0.041657026985613896,-0.46942359260169775,-149.08531711332304,-53.37068898196962,-21.317888672008674,0
1767372074.664494,1,left_wrist,1.523,0.0449,0.1518,-24.78,-17.36,-104.72,0.6448876323711388,0.4857249238580547,-0.45659243496598273,0.37378414665374554,68.69701972151037,-72.17841878866724,7.23437576835333,0
1767372074.664494,2,right_wrist,0.8072,-0.2738,-0.5056,3.5,-5.32,-0.98,0.1523638674246857,-0.8678664891738757,0.03711869902239961,-0.4713970842668508,-149.53745520747722,-53.79496110108926,-20.62604090842327,0
1767372074.714612,1,left_wrist,1.2239,0.2377,0.2401,17.5,-34.16,-91.28,0.6492055921600312,0.5110328571658564,-0.4440316364117303,0.34671807548866757,76.80733291228643,-68.57622046000719,-0.5720658054784059,0
1767372074.714612,2,right_wrist,0.7896,-0.3089,-0.5031,1.68,-2.03,-0.35,0.1569380896000183,-0.8682893271370193,0.038972497546375356,-0.4689618586277958,-148.82607323882917,-53.33654020430335,-21.091334007029676,0
1767372074.766156,1,left_wrist,1.1517,0.2786,0.2445,16.8,-8.61,-62.86,0.6538386641960854,0.5262485974787566,-0.42998416728708083,0.3326725578348114,79.24784867733503,-65.84159690378216,-2.4547475467917748,0
1767372074.766156,2,right_wrist,0.7813,-0.2908,-0.4919,3.43,0.77,-0.84,0.1546523539876919,-0.8672820133816285,0.035692433779970806,-0.47183748138700976,-149.21993670556625,-53.84194678634359,-20.62703894109861,0
1767372074.819631,1,left_wrist,1.0424,0.4734,0.1435,15.75,23.45,-40.74,0.6627201401065353,0.533265280630126,-0.4094100033728822,0.329869073284938,77.59915859081636,-63.43965962900477,0.07348430801970443,0
1767372074.819631,2,right_wrist,0.8091,-0.3172,-0.4748,-0.98,-1.33,0.56,0.15666760837689925,-0.8658115676119065,0.036720010353829144,-0.47379028136348517,-148.62585864552682,-53.990598944447356,-21.140932793765977,0
1767372074.890054,1,left_wrist,0.8716,0.5778,0.1884,-45.71,-3.08,17.43,0.6721660607796693,0.5152730602796392,-0.4135067412708878,0.33421345725378604,73.03319788580365,-64.19921082632968,3.0497285510237835,0
1767372074.890054,2,right_wrist,0.8345,-0.3001,-0.4714,4.48,-6.79,2.17,0.1587433264677726,-0.8651172954633504,0.03537126211934374,-0.47446969893577906,-148.31507593627614,-54.06799607539058,-21.161061930906165,0
1767372074.965281,1,left_wrist,0.8682,0.5622,0.1942,-14.98,19.88,30.87,0.6768357003879274,0.5032385495079628,-0.4134617125250701,0.3430653133812013,69.1253548533301,-64.82041135589851,6.512858475192741,0
1767372074.965281,2,right_wrist,0.7915,-0.3138,-0.4992,7.28,-8.61,-1.47,0.16580779411606247,-0.8677826265978376,0.031064258551202907,-0.46743566426406497,-148.0516879814421,-53.22222815967129,-20.423323581998233,0
1767372075.017799,1,left_wrist,0.6783,0.4616,0.0825,-16.03,12.95,41.09,0.6771106190733699,0.49215105153815925,-0.41884366718891747,0.35196382550441324,66.09691836084805,-66.01412802584241,9.110724738365665,0
1767372075.017799,2,right_wrist,0.7642,-0.305,-0.5309,4.06,-2.87,-4.83,0.16548580828749648,-0.8700199725969668,0.02839902486527702,-0.4635441617845148,-148.63009702016228,-52.86222738047598,-19.631432918064547,0
1767372075.090941,1,left_wrist,0.7193,0.3797,0.0947,-26.04,-5.11,35.56,0.6799720034599891,0.4639962082866578,-0.4413194749705381,0.357187225720548,60.328280988153026,-68.69141863596694,12.106458270549945,0
1767372075.090941,2,right_wrist,0.7886,-0.2826,-0.4939,-1.4,-0.14,-4.48,0.16070818936135184,-0.869539776354276,0.024686523560715715,-0.46633038799164434,-149.49317826283948,-53.42244609085585,-18.878895422040493,0
1767372075.1409972,1,left_wrist,0.6407,0.4089,0.1908,-3.64,-7.35,30.24,0.6766422757787074,0.4598245945445187,-0.4469814892318071,0.3618343836136865,59.28310678746669,-69.66121033221401,13.069774026697925,0
1767372075.1409972,2,right_wrist,0.7735,-0.3055,-0.5236,2.1,0.77,-4.9,0.16120329452879067,-0.8709742971149895,0.02352363758014227,-0.46353415200296944,-149.7209120840833,-53.11754578496935,-18.49849123382309,0
1767372075.193472,1,left_wrist,0.5641,0.4109,0.0415,-6.65,24.29,13.51,0.6810354005712207,0.4547499653495633,-0.4418650488280072,0.36626292578909847,56.47575655685094,-69.22290898990909,15.869333755426416,0
1767372075.193472,2,right_wrist,0.7715,-0.3016,-0.5119,3.78,-2.24,-1.89,0.16403720399787766,-0.8725736688545047,0.02347942165253817,-0.45951681675996375,-149.55986490577158,-52.58179099225204,-18.393389384438972,0
1767372075.245226,1,left_wrist,0.4699,0.2577,-0.0088,-6.93,4.27,-0.77,0.6824746033257538,0.45546552669392004,-0.4416182220874122,0.3629778446808265,57.06462308612866,-68.97663891262216,15.051528669221735,0
1767372075.245226,2,right_wrist,0.7925,-0.3216,-0.4787,3.71,-1.4,-3.29,0.16687406003951746,-0.8708223568717779,0.021921382947314785,-0.4618884322299992,-149.01091832874408,-52.85684098637231,-18.5742990610317,0
1767372075.3164318,1,left_wrist,0.3518,0.181,-0.0468,17.78,-8.47,-24.64,0.6796754982733411,0.46974319725061486,-0.43725779757613187,0.3552297343164365,61.734924348952184,-68.14367846896526,11.164624155843882,0
1767372075.3164318,2,right_wrist,0.7706,-0.3265,-0.4968,-0.35,-0.98,-2.73,0.17248951190602024,-0.8691856045039188,0.020887180908593147,-0.4629551586053144,-148.05175711981235,-52.89984333904308,-18.963183381658304,0
1767372075.370317,1,left_wrist,0.549,0.4265,0.2094,-3.36,-19.18,-33.39,0.6839401647562499,0.47922300302004683,-0.433334745585081,0.33880992116281816,65.47210671646374,-66.56056891941128,6.9486817835441,0
1767372075.370317,2,right_wrist,0.813,-0.3045,-0.4953,1.47,0.7,0.84,0.171613928578299,-0.8674887459211865,0.019412582134475814,-0.4665137585033069,-148.01768937997429,-53.391395952391264,-18.964421615892512,0
1767372075.440941,1,left_wrist,0.753,0.754,0.121,9.59,19.11,-43.05,0.6872902114946485,0.5156706440760567,-0.39191153022065955,0.32881804163081946,70.36051665063037,-61.38259728419488,5.726720882956113,0
1767372075.440941,2,right_wrist,0.7979,-0.3006,-0.5022,-5.81,-1.47,-1.68,0.16486232063175082,-0.8686546820004998,0.017423612030982902,-0.46685744764148074,-149.29746026116217,-53.64221662641412,-18.1028112726027,0
1767372075.494077,1,left_wrist,0.4724,0.3987,-0.0361,-26.04,-0.77,-53.76,0.6995363096379794,0.5202434218299293,-0.3831240445060869,0.30530591226188375,71.51431842493007,-58.61477748178064,3.1381156007508473,0
1767372075.494077,2,right_wrist,0.7818,-0.3318,-0.4753,2.17,-7.14,-2.59,0.1689726022281199,-0.8687068608795342,0.017298185428871193,-0.4652928350382709,-148.72891243367502,-53.37529492641139,-18.29785537651549,0
1767372075.566099,1,left_wrist,0.6661,0.0615,0.1381,44.66,-18.48,-6.09,0.6860943902513046,0.534746812365506,-0.38399498901828794,0.30962587543592984,74.96886917015345,-59.09906391923274,1.5827735603437234,0
1767372075.566099,2,right_wrist,0.8413,-0.2938,-0.4914,-2.59,-1.33,2.03,0.17166641210124617,-0.8702714697646439,0.015603122097765184,-0.46142686793334203,-148.70598161288112,-52.91826799612588,-17.92587500145394,0
1767372075.640853,1,left_wrist,0.9243,0.4265,0.0927,70.84,-0.77,17.92,0.6494332105564099,0.5602356479738387,-0.3902932830409307,0.3347292592213278,81.75101352186223,-61.88376490141542,-0.3092785741998651,0
1767372075.640853,2,right_wrist,0.7891,-0.2494,-0.5109,-1.75,0.91,-1.68,0.16638945032963892,-0.8707848833395244,0.01301719330191757,-0.46247031304172587,-149.7178822394717,-53.234552353484474,-17.15766096775974,0
1767372075.690989,1,left_wrist,0.9399,0.5924,0.1527,-17.15,10.99,18.9,0.6553003742305258,0.5500828941949205,-0.3913423357879448,0.33888258330505555,79.00718464012834,-62.34032728072757,1.6786002096205075,0
1767372075.690989,2,right_wrist,0.7749,-0.3479,-0.4885,-0.28,-3.5,1.75,0.1707711725702938,-0.8706282733968601,0.015643139593488772,-0.4610844915681158,-148.88182955936426,-52.89426956228864,-17.82956397875616,0
1767372075.743246,1,left_wrist,1.1039,0.1879,0.2542,2.66,-12.46,28.42,0.648110760724976,0.5449586818272901,-0.40287501985796914,0.34736752195332876,79.19156350413851,-64.26568867566196,1.473439043219513,0
1767372075.743246,2,right_wrist,0.793,-0.2762,-0.5007,2.87,-5.74,1.4,0.16840268611272144,-0.8712425624061776,0.012756237164703674,-0.46088416242623914,-149.51595863079615,-53.01446577509242,-17.15553115112993,0
1767372075.8160572,1,left_wrist,1.1756,0.3094,0.1215,65.38,-6.86,57.26,0.6208799711884465,0.5515220921969619,-0.4108435729651005,0.37621669520236584,81.81210227977759,-67.69139652426382,2.1124512699720737,0
1767372075.8160572,2,right_wrist,0.7735,-0.264,-0.5324,2.94,-3.29,0.63,0.16766661850745718,-0.8718488254896992,0.011948102889825257,-0.46002692678564044,-149.76718272113612,-52.95297203299848,-16.89570121856533,0
1767372075.8665118,1,left_wrist,1.0204,0.4392,0.1459,8.61,-14.49,67.76,0.6071162818661311,0.5422363712133836,-0.42752915194426444,0.3932026986990352,81.80543196893902,-71.00331792072397,2.4290196850137975,0
1767372075.8665118,2,right_wrist,0.7808,-0.3011,-0.4992,-5.95,0.21,2.73,0.16830215013612326,-0.8704444100774129,0.014944789410841838,-0.462360863929905,-149.25409114248558,-53.1194446086453,-17.618324246518977,0
1767372075.940334,1,left_wrist,1.1663,0.1254,0.204,17.29,-5.95,18.48,0.6065691765858114,0.511698310830202,-0.4569368099870343,0.40180520702002054,76.95541650246444,-74.91342880742833,4.366756842140672,0
1767372075.940334,2,right_wrist,0.7906,-0.2938,-0.49,-0.77,0.14,5.81,0.16857097657873266,-0.8687420313608267,0.016307065368806276,-0.46540862521166726,-148.86357132051432,-53.43122375584562,-18.114668171803704,0
1767372075.993223,1,left_wrist,0.9638,0.061,0.1591,45.01,-7.63,7.14,0.593361298773221,0.5204797719880079,-0.4535896251654389,0.41385943025590755,79.08398534312794,-75.71862741743399,4.409908571282765,0
1767372075.993223,2,right_wrist,0.8072,-0.284,-0.5041,0.14,-0.63,3.64,0.16548547432469293,-0.8686108765494008,0.015160911935956312,-0.46679743966401865,-149.3697286218895,-53.698505996912075,-17.784976102478566,0
1767372076.069636,1,left_wrist,1.1082,-0.0483,0.1444,-40.53,-6.37,-3.29,0.6008196680147225,0.5088674912763963,-0.4635235514411212,0.40646712057453727,77.41241084831788,-76.08747417004756,3.97861676520318,0
1767372076.069636,2,right_wrist,0.8154,-0.2401,-0.5104,-7.63,0.77,-0.21,0.15500336454263988,-0.8691900696799676,0.012253258490807432,-0.4693958216756431,-151.21051711049202,-54.31043405572768,-16.615168104633852,0
1767372076.1399271,1,left_wrist,1.0228,0.304,0.0942,-35.91,-2.03,-9.66,0.6034992580823899,0.5047301446673924,-0.4650853394505306,0.40587159741255946,75.97154328231093,-76.18422645155863,4.900868063175865,0
1767372076.1399271,2,right_wrist,0.7989,-0.327,-0.489,-1.68,1.61,-3.15,0.1577688324858908,-0.8680457721692992,0.013628019000075866,-0.4705526644416941,-150.52860792508386,-54.35293897852096,-17.17948977063699,0
1767372076.1918058,1,left_wrist,1.0228,0.019,0.1523,-28.49,6.79,-4.27,0.6112994113833714,0.49385422108831256,-0.468687490514703,0.4034266651953364,72.09869487693723,-76.284423541321,7.342653077152076,0
1767372076.1918058,2,right_wrist,0.7715,-0.2796,-0.5095,0.49,-2.45,-0.84,0.15770703364299135,-0.8703413671609147,0.013635914570957183,-0.4663136905365441,-150.86695775364763,-53.84299040462459,-16.829311924264097,0
1767372076.264162,1,left_wrist,1.0375,0.0781,0.1113,2.66,6.79,0.91,0.6107912062413368,0.49024350367780517,-0.4685434323679305,0.4087327506633658,69.60441754686289,-76.68573527832292,9.977314836782131,0
1767372076.264162,2,right_wrist,0.8086,-0.3089,-0.5017,6.51,-1.89,-0.98,0.16628883155949806,-0.8674978544433813,0.014760572818561751,-0.46859110376187774,-149.1180423151866,-53.910176217483915,-17.941215548953217,0
1767372076.316255,1,left_wrist,1.1058,0.2211,0.1576,-22.82,4.41,-29.47,0.623241517184851,0.4869118405770968,-0.4639714343582043,0.3990205243625189,68.06699629448141,-75.21902532932317,10.283812668899257,0
1767372076.316255,2,right_wrist,0.8174,-0.3045,-0.4914,4.06,-5.11,-0.98,0.16853005505871696,-0.8663809596295007,0.013014721768193339,-0.46990666131761494,-148.75890936252472,-54.08124195363895,-17.964804068042007,0
1767372076.38973,1,left_wrist,1.4157,0.3084,0.1991,27.93,-0.77,-75.81,0.6408870261135307,0.5099250286913097,-0.43582703045991333,0.3732225668338067,73.0487088070854,-69.92812543394889,5.670199385695773,0
1767372076.38973,2,right_wrist,0.8174,-0.3192,-0.469,0.84,-2.03,-3.36,0.17020771517169522,-0.8649294786939097,0.011988651831801776,-0.4719985199230699,-148.3742411940078,-54.332042683043966,-18.12717828229793,0
1767372076.440855,1,left_wrist,1.1844,0.2718,0.0395,41.02,-15.26,-75.32,0.6380502719293982,0.5372691943045901,-0.41975331917199826,0.3578279116924902,79.6577757594715,-66.94762079362611,0.816994380510479,0
1767372076.440855,2,right_wrist,0.7832,-0.2991,-0.4895,2.17,-4.13,-3.5,0.17063802739791092,-0.8673972556456868,0.010782657779157328,-0.4673204455138875,-148.77776603847695,-53.80628381930733,-17.5629888093933,0
1767372076.4919481,1,left_wrist,1.1341,0.1884,0.1391,-92.05,-6.65,-45.99,0.6640796266797099,0.5178861115951379,-0.4269912342123939,0.3293489194632073,76.32233221904993,-65.263640807145,-0.6624413160783937,0
1767372076.4919481,2,right_wrist,0.7969,-0.3231,-0.4748,-1.19,-4.2,0.42,0.17334167277973475,-0.8667262485024387,0.012131191653727958,-0.46753728067810035,-148.18999148035073,-53.7309525714211,-18.031436455575975,0
1767372076.566208,1,left_wrist,1.0248,0.4499,0.1279,20.86,-0.49,-7.14,0.661790686947432,0.5226520446395394,-0.4218498357036911,0.33303249544229707,76.61446764414622,-65.02238270005523,-0.022490190187797323,0
1767372076.566208,2,right_wrist,0.7784,-0.2884,-0.5022,-1.75,1.4,-1.61,0.16832366368840548,-0.8686493978477403,0.006793878861536331,-0.4659068695257515,-149.59868684086246,-53.81668840082405,-16.598712519437793,0
1767372076.6420999,1,left_wrist,0.9418,0.51,0.3953,-34.65,23.52,22.61,0.6842758058267192,0.4906973614606026,-0.4177708520179736,0.3412480567270284,66.332116179756,-65.04507928534673,7.766882430271936,0
1767372076.6420999,2,right_wrist,0.8208,-0.3372,-0.4358,0.56,-3.36,3.01,0.17137559653503742,-0.8675290673788074,0.008276712589855932,-0.4668567426886126,-148.8810616758618,-53.82197157085623,-17.18180844923695,0
1767372076.714218,1,left_wrist,0.7676,0.368,0.1742,11.9,33.25,34.58,0.6849388496670351,0.4830987674723977,-0.41010196434836055,0.35957020444005766,61.781510349323696,-65.39577095700889,13.377358489524866,0
1767372076.714218,2,right_wrist,0.7945,-0.2835,-0.5251,10.29,-7.07,-4.41,0.17521181878903958,-0.869406367096959,-0.0021050540186133464,-0.46198371849609965,-149.39409887389075,-53.5177247209403,-15.433680535540363,0
1767372076.7666361,1,left_wrist,0.7501,0.4836,0.0307,0.91,20.16,50.68,0.6796688461566126,0.47443164107081365,-0.41397186817375176,0.37628735014045755,58.15199753226228,-66.89289146918894,17.60512128354575,0
1767372076.7666361,2,right_wrist,0.7725,-0.3084,-0.5095,2.45,-4.2,-3.29,0.17757352181620265,-0.8713656603673798,-0.0023904554192019888,-0.45736617278193964,-149.35121618900735,-52.93148843605821,-15.22232779801139,0
1767372076.841148,1,left_wrist,0.8042,0.4875,0.0639,-31.92,-8.82,34.37,0.6764806368783414,0.4522518092876351,-0.43709524701300195,0.383131823219342,52.982050429942795,-69.70464580168208,20.771028685235557,0
1767372076.841148,2,right_wrist,0.7886,-0.3387,-0.4582,1.82,-3.57,-3.08,0.18039925226081754,-0.8702794888553401,-0.0031818506306384425,-0.45832259041857193,-148.85628860516044,-53.02380745811868,-15.409523401076415,0
1767372076.897758,1,left_wrist,0.7305,0.3504,0.101,-9.24,-22.82,28.91,0.6691444276944871,0.4512250671045042,-0.4498798866660214,0.3824261514009215,54.105748978030526,-71.296335512722,19.2650304939145,0
1767372076.897758,2,right_wrist,0.7701,-0.324,-0.5266,0.56,0.07,-4.06,0.18138151460605326,-0.8716924616404553,-0.0032886017483990957,-0.45523860071061417,-148.92343141964457,-52.64100471794041,-15.230546139284042,0
1767372076.9662359,1,left_wrist,0.7247,0.3587,0.1039,-11.62,-16.59,24.29,0.6647747356977807,0.44913762439442473,-0.45963102335601896,0.38090585122832826,54.832349505721965,-72.41323392405785,18.037608822258314,0
1767372076.9662359,2,right_wrist,0.8106,-0.2913,-0.5012,-0.42,0.14,-1.19,0.17662455638260485,-0.8690380509331428,-0.0052591324089608675,-0.4621135938698161,-149.38239522011654,-53.61473450808204,-15.056594802105902,0
1767372077.0219169,1,left_wrist,0.5646,0.2508,0.0937,-14.21,-2.87,4.97,0.6673483081472341,0.4475582819300665,-0.46151218385586257,0.37595787535497127,55.29147013334076,-72.27051032487273,16.930855288478924,0
1767372077.0219169,2,right_wrist,0.7945,-0.2889,-0.4978,-5.18,-1.89,-0.49,0.17152724203800224,-0.8689076836396422,-0.006719988129616634,-0.4642549776904561,-150.2244521064734,-54.00758075262509,-14.544694533028641,0
1767372077.090903,1,left_wrist,0.5788,0.1884,0.0117,20.58,-0.42,-15.61,0.6703938526944856,0.4573236337849792,-0.4561661713302213,0.36515695308329255,59.411202664938926,-71.01641373252407,12.853774890853732,0
1767372077.090903,2,right_wrist,0.7881,-0.3157,-0.4748,3.57,0.28,-0.98,0.17624423666288938,-0.867213178222189,-0.006129097342172218,-0.4656626533518181,-149.24904025956153,-54.078154834633935,-15.168508394063888,0
1767372077.143326,1,left_wrist,0.6159,0.3426,0.0151,5.18,1.68,-31.01,0.6743029284605963,0.46808224295676576,-0.4478597071193268,0.35445205209875447,62.888749822339804,-69.35967026607403,9.59335732340928,0
1767372077.143326,2,right_wrist,0.7823,-0.284,-0.5231,2.24,-4.06,0.14,0.17542309060615857,-0.8697358443399524,-0.00717259216775465,-0.4612318877463359,-149.80305701668988,-53.59251690450099,-14.573637093850264,0
1767372077.214814,1,left_wrist,0.5944,0.1591,0.0005,17.85,13.93,-39.62,0.6769301674101352,0.4800329348573462,-0.43550772451910774,0.34880790098063713,65.21484858196227,-67.59235733743394,8.162314784984265,0
1767372077.214814,2,right_wrist,0.8086,-0.2855,-0.4831,-1.05,-2.66,-1.33,0.17641837656795706,-0.8675942348106029,-0.00978171595366526,-0.46482374957131095,-149.56850673214842,-54.09672863529137,-14.520819465398125,0
1767372077.266628,1,left_wrist,0.4207,0.3728,0.0859,55.3,0.21,-52.64,0.674406275861613,0.5085192637627838,-0.41290110482523673,0.34073011474585746,70.67726012669569,-64.61690995028472,5.306491822359773,0
1767372077.266628,2,right_wrist,0.8028,-0.3006,-0.4939,3.43,-9.52,-0.42,0.18068493917583256,-0.8676586872639822,-0.01007134165774171,-0.4630549894424869,-148.9780728153446,-53.82198244166014,-14.706507230834198,0
1767372077.342026,1,left_wrist,0.8594,0.5017,0.0952,68.95,-18.41,-40.25,0.6708439273016603,0.5489882673655553,-0.38052154716838626,0.32215471382245536,77.64563404121193,-59.79825192488874,1.6434647542468341,0
1767372077.342026,2,right_wrist,0.8135,-0.2791,-0.4758,7.49,-6.3,-1.96,0.18153071333276338,-0.8668497569428111,-0.014348095708498645,-0.4641252321891444,-149.08315816567264,-54.0825414229436,-14.172665325441722,0
1767372077.415072,1,left_wrist,0.8091,0.5241,0.0522,64.47,-3.22,-33.81,0.6584192118344084,0.5765593147752339,-0.36345447653994806,0.3193185580518946,82.3329879242221,-57.867784302296094,0.14917863738293022,0
1767372077.415072,2,right_wrist,0.814,-0.3348,-0.4841,0.21,-2.87,-0.91,0.18258164256163076,-0.868674611940634,-0.012779192661353427,-0.4603314616710548,-149.05840152765546,-53.554567965852584,-14.216682330454164,0
1767372077.4673998,1,left_wrist,0.9077,0.5651,0.0029,23.45,-15.4,-17.36,0.6502230791933507,0.5902868641859645,-0.3615978382371068,0.3130788537031359,85.6029142058839,-57.124408904488654,-2.0852019958866936,0
1767372077.4673998,2,right_wrist,0.813,-0.2523,-0.5383,2.45,-4.06,-2.1,0.17905468470603325,-0.8703882610020802,-0.016405621888045358,-0.4583607210102805,-150.08997688880103,-53.49246119239983,-13.173519914412113,0
1767372077.540149,1,left_wrist,1.281,0.4485,0.3484,60.55,-27.58,39.27,0.612968659599976,0.6075859487959098,-0.3785104275269628,0.33442277647812585,92.89457775362968,-60.50646097645735,-5.825886293352511,0
1767372077.540149,2,right_wrist,0.7925,-0.2874,-0.4997,3.29,-4.9,-1.47,0.17907536932277232,-0.8694389988305213,-0.019164523997223668,-0.460044085316237,-150.1833224883392,-53.78680983237787,-12.854845029781117,0
1767372077.5920472,1,left_wrist,1.0736,0.6852,0.1503,9.8,-1.82,26.39,0.6086576922944299,0.6045777352856125,-0.38260841616472074,0.3429757651608387,92.87825642240563,-61.6986440981481,-5.461398965955516,0
1767372077.5920472,2,right_wrist,0.793,-0.325,-0.4992,2.73,-0.28,-1.12,0.1840671902438871,-0.8686209295161273,-0.017865100772901602,-0.45967139181880123,-149.23842850426212,-53.62350186061731,-13.473280010974594,0
1767372077.643177,1,left_wrist,1.0155,0.2054,0.2006,-30.94,7.56,20.37,0.615294878507313,0.589101623342914,-0.3915365942398909,0.3479519869586053,90.08651959728378,-63.09766405011504,-4.198142463470178,0
1767372077.643177,2,right_wrist,0.7867,-0.2806,-0.5256,-1.05,-0.77,-0.14,0.18091894288022106,-0.8705724275605493,-0.01877402656182712,-0.4571865269286609,-150.02999579645024,-53.40035057315244,-12.863814498798007,0
1767372077.7154298,1,left_wrist,1.1102,0.2928,0.1615,1.05,8.47,32.9,0.6115852201797632,0.5796548854891147,-0.39862389705413254,0.3620258566506654,88.61031988058676,-65.13282527203354,-2.6318322538909724,0
1767372077.7154298,2,right_wrist,0.7593,-0.2826,-0.5324,2.1,0.91,0.84,0.1840343894409509,-0.8707433339375961,-0.019095185167214448,-0.45560154061390784,-149.62448602463684,-53.17332036562571,-12.96113854187168,0
1767372077.7698,1,left_wrist,1.2127,0.2201,0.2479,-70.42,-9.1,36.05,0.6220454577668276,0.5528855266564557,-0.42195980138876626,0.3596205902022635,85.16146238311644,-67.31133174236444,-2.8517130844065286,0
1767372077.7698,2,right_wrist,0.794,-0.3255,-0.4709,-3.36,1.19,-0.7,0.18533197115785047,-0.8690996289244151,-0.017592283081970576,-0.45826674224315406,-149.098280752814,-53.425210128605286,-13.517860285345584,0
1767372077.838337,1,left_wrist,1.1668,0.1864,0.1064,-1.4,-3.85,29.75,0.6113528024937442,0.5300518056201895,-0.4444485274422866,0.38439347119352174,82.0077182203017,-71.9759297180642,-0.2150680514483829,0
1767372077.838337,2,right_wrist,0.8247,-0.3016,-0.5007,-0.35,0.49,-1.82,0.18420351550893296,-0.8673046640318349,-0.019207546309580246,-0.46204194050707287,-149.14744077191096,-53.95337933260802,-13.453195461114912,0
1767372077.891187,1,left_wrist,1.0165,0.2835,0.0425,30.87,5.95,27.51,0.5985786405178615,0.5297080909972307,-0.44685708310547867,0.4017856352911606,81.83692338057367,-73.86641055456846,1.565794092084181,0
1767372077.891187,2,right_wrist,0.8267,-0.2899,-0.4758,-1.68,-0.49,0.91,0.18332631167963725,-0.8657995233493715,-0.01946772391037653,-0.4651920641409211,-149.09105933721798,-54.35703668649806,-13.582666481104715,0
1767372077.942304,1,left_wrist,1.0258,0.1625,0.0595,-0.49,-1.68,13.51,0.594501440759822,0.5245561071449802,-0.4528180019850195,0.4078783942178044,81.15064904255125,-75.08575365020305,2.207062425219177,0
1767372077.942304,2,right_wrist,0.7774,-0.306,-0.508,2.52,0.56,-0.42,0.18531677619605402,-0.8671193239817894,-0.01879447338505685,-0.4619616198428659,-148.9261512056484,-53.912417324837286,-13.612077502655715,0
1767372078.0185091,1,left_wrist,1.0287,0.1684,0.1,-20.93,-2.66,1.26,0.5983208170974681,0.516322277501696,-0.4585031841511125,0.40644598128972886,79.28809799712153,-75.55286112064402,2.963721139118235,0
1767372078.0185091,2,right_wrist,0.8154,-0.3318,-0.4621,-0.14,-2.38,0.21,0.1885790475938789,-0.8678915575551823,-0.017011671399141864,-0.45925242532754584,-148.4190549084438,-53.4732144066832,-13.969310674731476,0
1767372078.093462,1,left_wrist,1.0106,0.1161,0.1396,17.22,-1.54,-10.22,0.5940202646090751,0.5195746702088382,-0.4513762463767396,0.4164631694615821,77.70257563993711,-75.7011531727732,5.9793348379875635,0
1767372078.093462,2,right_wrist,0.8198,-0.2572,-0.5085,1.89,-5.53,0.77,0.1852956404048498,-0.8689481458002457,-0.02003326176721337,-0.45846844382164176,-149.27689311165247,-53.53256040976815,-13.137105623870962,0
1767372078.1685472,1,left_wrist,0.9862,0.1039,0.1205,-25.9,8.19,3.43,0.6003842608986364,0.5076443642204943,-0.4559322581564567,0.41708717879206303,73.2835506239886,-76.15173889451665,9.11622426072775,0
1767372078.1685472,2,right_wrist,0.7901,-0.304,-0.4724,4.76,-3.29,-2.59,0.18731824729153473,-0.8665751069441658,-0.023113483380506228,-0.4619796804431489,-148.9098690831271,-54.03143292867868,-13.08934635793031,0
1767372078.239538,1,left_wrist,1.035,0.1791,0.0976,-1.75,3.01,-7.84,0.6000009661997788,0.5091836390866223,-0.4507442804696556,0.4213792304679107,71.99615846538553,-75.93315582052567,11.061442086737523,0
1767372078.239538,2,right_wrist,0.7998,-0.2826,-0.5012,1.54,-4.27,-0.84,0.1835586577835791,-0.8681337396937543,-0.026305611442261616,-0.4603890137315143,-149.93336708501195,-53.999875569444185,-12.113172919514959,0
1767372078.2900329,1,left_wrist,1.1463,0.1176,0.144,-36.4,2.45,-21.49,0.6116815886469095,0.5003408851365423,-0.4535213838858317,0.41209584701796553,69.7420678593962,-75.28429556269637,11.423650289699225,0
1767372078.2900329,2,right_wrist,0.7979,-0.2904,-0.5148,5.95,-2.24,-4.83,0.18357998224414263,-0.8699192307930618,-0.029562157971128745,-0.45679864364043177,-150.42696434297136,-53.66919689534123,-11.31945015516403,0
1767372078.343285,1,left_wrist,1.2751,0.2469,0.2718,-30.03,2.31,-71.12,0.6325375006318298,0.5032339129966906,-0.44161164698917776,0.3893983722975523,70.53165894599412,-71.91347811778387,8.922408972807904,0
1767372078.343285,2,right_wrist,0.8203,-0.2821,-0.487,-3.78,-3.15,-1.26,0.18157582944762593,-0.8690707030389919,-0.03034143618587554,-0.4591576292842118,-150.68376431223064,-54.00803641165579,-11.18609607985808,0
1767372078.395295,1,left_wrist,1.5792,0.1059,0.3875,-15.33,-3.22,-116.55,0.6544043375165933,0.5184655676740102,-0.41987617088053303,0.3558825920196667,73.87289070987157,-66.71694396937572,4.410834075619743,0
1767372078.395295,2,right_wrist,0.8125,-0.306,-0.49,4.41,-0.84,-0.21,0.1860868857684562,-0.8672566707833442,-0.030207915323317625,-0.4607873910803188,-149.76804466207724,-54.14329260427372,-11.731191159008226,0
1767372078.465306,1,left_wrist,1.3723,0.2137,0.2001,-15.96,4.41,-91.14,0.6714728738992768,0.5269189460189447,-0.40261666729024126,0.33072711283447803,74.72616147125936,-62.776034845983645,2.4876282324572494,0
1767372078.465306,2,right_wrist,0.7862,-0.3065,-0.4924,-0.7,-2.59,1.47,0.1922105160302753,-0.8685992085101002,-0.02780789766965065,-0.4558697767237887,-148.8493673106541,-53.38162242145915,-12.287143883012796,0
1767372078.518823,1,left_wrist,1.1209,0.4309,0.162,-8.96,1.47,-52.64,0.6802820442979507,0.5305992681126221,-0.3938605783793445,0.3171034558039995,74.98064494493224,-60.73666735407453,1.5796595989748012,0
1767372078.518823,2,right_wrist,0.8101,-0.285,-0.4929,4.34,-3.71,0.98,0.1916259635458035,-0.867783892555548,-0.030525416803720007,-0.4574918631464858,-149.0467970547324,-53.67859570492612,-11.92155539580966,0
1767372078.593385,1,left_wrist,0.7915,0.6417,0.0181,16.52,7.28,24.01,0.678780627059805,0.5340491580131962,-0.38264480853206345,0.3280721074049951,73.90504458800059,-60.44435292493947,4.264013526166286,0
1767372078.593385,2,right_wrist,0.8325,-0.2616,-0.4821,-2.38,-4.2,1.47,0.18849431338333938,-0.8676816197077972,-0.031785789178526286,-0.45889886058879625,-149.59747120403588,-53.933972410464435,-11.546527333838986,0
1767372078.664814,1,left_wrist,0.7466,0.5641,0.0234,-6.23,2.03,43.4,0.6737313381577241,0.527815529773721,-0.3919679261774112,0.3374285040746678,73.12005894639871,-62.17313042892056,5.026413459197118,0
1767372078.664814,2,right_wrist,0.7691,-0.3074,-0.5129,7.84,-3.85,-1.75,0.1966483180237373,-0.8682595359436209,-0.03386259093635016,-0.45421156105550714,-148.6498955174086,-53.32775808180634,-11.575100315984766,0
1767372078.716219,1,left_wrist,0.67,0.7222,0.102,-11.48,-25.06,45.71,0.6664923933419427,0.5226598732714552,-0.4086358997565122,0.340045949717654,74.05041875016289,-64.17939374742174,3.4381800299731755,0
1767372078.716219,2,right_wrist,0.7901,-0.3177,-0.4919,-2.03,-4.41,-1.19,0.19897800412846384,-0.8678388208967336,-0.032773727622645,-0.4540808491836415,-148.17121557654553,-53.24297814566498,-11.941323284978413,0
1767372078.7910552,1,left_wrist,0.731,0.469,0.2079,-8.89,-23.87,44.03,0.6563692942185522,0.5054961888831783,-0.44133658859228286,0.3447824940471134,74.53536246651763,-68.11471927983351,0.9870837407449226,0
1767372078.7910552,2,right_wrist,0.7959,-0.264,-0.5104,4.69,-5.95,-3.15,0.19582626539238895,-0.8691552406596995,-0.03775486933811552,-0.4525437119853851,-149.19989577795005,-53.26862515763272,-10.755546058666837,0
1767372078.846668,1,left_wrist,0.6573,0.3548,0.0981,-23.66,-7.49,40.11,0.6561708908463003,0.4936337693426099,-0.45267549803844337,0.3476353797389255,72.84484078930079,-69.59870245514519,1.529513567784535,0
1767372078.846668,2,right_wrist,0.7993,-0.2669,-0.5144,3.64,-4.2,-3.01,0.19231899700944532,-0.8700841017453981,-0.04235024543011072,-0.4518556362282029,-150.20691732715716,-53.3785611237896,-9.660648186568798,0
1767372078.916595,1,left_wrist,0.53,0.3392,0.0068,-6.93,-5.6,28.35,0.6525920341515242,0.4901202298614507,-0.45983820651010987,0.34993516696110993,73.08586256593058,-70.59507626497751,1.03093655189941,0
1767372078.916595,2,right_wrist,0.7808,-0.3084,-0.5012,2.38,-2.59,-1.68,0.20031722463684112,-0.8691973966834249,-0.041539632242267206,-0.45015925411539376,-148.86001965182737,-53.053462247545255,-10.364381919296891,0
1767372078.9686341,1,left_wrist,0.4153,0.3284,0.0181,0.63,3.29,4.76,0.6534599700921431,0.4917873787345481,-0.45758060674423484,0.3489344206812442,73.21762322611173,-70.25818984734902,1.0117916576823205,0
1767372078.9686341,2,right_wrist,0.8037,-0.3221,-0.4797,-0.07,-1.33,0.35,0.20240150567414214,-0.8676753920092611,-0.04094998073015601,-0.45221249836842753,-148.31708667903297,-53.25672064616339,-10.78997316651382,0
1767372079.040919,1,left_wrist,0.6778,0.2762,0.0903,9.8,25.48,-25.41,0.6666287164065033,0.5036379859798196,-0.4271879780923268,0.34563762080219007,71.24667508205201,-66.59269991834215,4.4072283428303445,0
1767372079.040919,2,right_wrist,0.7998,-0.2762,-0.5212,-1.26,-0.91,-2.45,0.1973632750837393,-0.8688841654826024,-0.04381112280621522,-0.45185022976676753,-149.43771169424315,-53.3699280208342,-9.865187749756602,0
1767372079.093256,1,left_wrist,0.8701,0.3353,0.0254,5.6,16.94,-26.67,0.6701810968221209,0.5093153075035097,-0.41773347202204636,0.3419853233068793,71.58105565721624,-65.26748210366424,4.505793189172668,0
1767372079.093256,2,right_wrist,0.7764,-0.2889,-0.509,-1.19,-1.75,-2.94,0.19390059016736153,-0.8710218709266381,-0.045626365634505124,-0.4490453164873164,-150.35507526844927,-53.12537970753587,-9.07601060943126,0
1767372079.168772,1,left_wrist,0.7593,0.2469,0.0732,31.08,32.9,-25.13,0.6705095370631556,0.5169376469179645,-0.401254423610383,0.349553025218449,70.82203867576045,-64.09033349454486,7.08706844904139,0
1767372079.168772,2,right_wrist,0.7593,-0.3074,-0.5129,-6.72,1.33,0.42,0.1974406852190724,-0.872694874380978,-0.040043244920107766,-0.44476664733954613,-149.58750496724826,-52.38252160106837,-9.97583196060757,0
1767372079.244766,1,left_wrist,0.5885,0.4704,0.0986,38.64,-10.92,-33.11,0.6749140911196255,0.5418795599814773,-0.3724087264674811,0.3349167844902955,74.31381577153846,-59.957801083868596,5.556888130215497,0
1767372079.244766,2,right_wrist,0.8174,-0.3074,-0.487,6.09,-3.43,0.21,0.2003655333402983,-0.8710160418722324,-0.04178308363473653,-0.44658580561014244,-149.09889257916427,-52.62792785495678,-10.073896980990977,0
1767372079.317337,1,left_wrist,0.7725,0.8325,0.121,52.57,44.1,-25.69,0.6742375532107597,0.5571177656977326,-0.3425205608733693,0.34307897394525194,74.35232207652719,-57.581111195183844,8.688450671482308,0
1767372079.317337,2,right_wrist,0.7837,-0.3587,-0.4792,-4.27,4.2,-3.85,0.1991903789720357,-0.8689051760599705,-0.04355007597902161,-0.4510325695816098,-149.15128347039322,-53.24088153516976,-10.007855772471427,0
1767372079.3716311,1,left_wrist,0.6163,0.2733,-0.0386,-65.38,10.64,-32.34,0.6935699408367401,0.5422344074847107,-0.3439347146375387,0.3265754071797518,71.60967658354225,-56.2269875347163,8.276157663184406,0
1767372079.3716311,2,right_wrist,0.7842,-0.3177,-0.5183,-0.21,-0.98,-1.68,0.20100798510723492,-0.8703570475569669,-0.04237429731683408,-0.44752521562248715,-148.97211928817865,-52.75441056224298,-10.101256598324996,0
1767372079.440958,1,left_wrist,1.1361,0.7076,0.2523,93.45,-30.1,35.42,0.6365028810732355,0.5837598360720899,-0.36556269433966876,0.34706260628549324,84.03005390175198,-60.52446007843093,1.7481972731763527,0
1767372079.440958,2,right_wrist,0.7969,-0.2791,-0.5017,0.28,-1.82,-4.41,0.19697007361851626,-0.8698363476395159,-0.04652192061491412,-0.44991469116507327,-149.83515142787093,-53.22868359415823,-9.257990980114956,0
1767372079.491987,1,left_wrist,1.0228,0.6295,0.1342,-45.43,-15.68,14.28,0.6458743896138187,0.5699107446856235,-0.37789828567046296,0.3394715033992992,82.3066372312024,-61.05522207875965,0.9205427787731143,0
1767372079.491987,2,right_wrist,0.7788,-0.3133,-0.49,-1.05,-3.29,-1.68,0.19989464082443478,-0.8693058660525774,-0.045457464261840365,-0.4497588940300481,-149.25424357845665,-53.14247016393573,-9.672031712281026,0
1767372079.5662239,1,left_wrist,1.1561,0.0317,0.143,-21.84,-55.79,5.74,0.6399411062632727,0.5685856106915066,-0.40073118396096774,0.32649701687817345,86.04152181762473,-62.14976531472343,-4.643848097130224,0
1767372079.5662239,2,right_wrist,0.853,-0.225,-0.4782,-5.32,-0.98,-0.35,0.1964959162029503,-0.8671706929204487,-0.04822041084833782,-0.455059486477372,-149.7259632395731,-53.918367987234475,-9.30290712849323,0
1767372079.616842,1,left_wrist,1.1912,0.6466,0.3113,-71.75,-29.82,35.07,0.6492616279682124,0.54429984871001,-0.42625507059465895,0.31702307161257076,84.2326845841843,-63.97639163818129,-6.854001130223183,0
1767372079.616842,2,right_wrist,0.833,-0.2645,-0.4948,3.29,-6.3,-1.89,0.1945359749995291,-0.867006609332878,-0.052170385688930954,-0.455777955435711,-150.33977683150331,-54.156848179541576,-8.531043092213528,0
1767372079.667395,1,left_wrist,1.1434,0.2811,0.2596,-70.07,2.66,34.65,0.6618638803022977,0.5144013338420348,-0.44375634688785504,0.3168718609934728,79.10371160028659,-65.9810961108337,-5.227524248543878,0
1767372079.667395,2,right_wrist,0.7974,-0.3011,-0.4743,1.12,-5.25,1.05,0.19784984353358104,-0.8663435365404467,-0.05132921283820648,-0.45570783185911934,-149.6890417240256,-54.08714133512341,-8.96328046932485,0
1767372079.739933,1,left_wrist,1.1868,0.2069,0.1747,28.28,10.92,39.55,0.6438631662803838,0.5016921660597946,-0.4583701690783448,0.35162761797208114,76.71907737612463,-70.57419785508698,-1.2269066124518209,0
1767372079.739933,2,right_wrist,0.774,-0.3074,-0.4948,4.69,-6.02,1.33,0.20320238843185928,-0.8678119276606278,-0.04992343460111001,-0.4506871400685423,-148.95592748715282,-53.37070019309191,-9.309201007199913,0
1767372079.7940428,1,left_wrist,1.0165,0.0893,0.1308,43.89,3.29,43.4,0.6270524420033737,0.5017598061016549,-0.4620073027237467,0.3762865718948305,76.12063917464806,-73.14005337954393,1.633840725333056,0
1767372079.7940428,2,right_wrist,0.7759,-0.2494,-0.5417,4.62,-5.88,1.19,0.2016213110015241,-0.8700627895809516,-0.05241558162208751,-0.44675742404559743,-149.6643947562667,-52.99188052062842,-8.497236740526013,0
1767372079.867305,1,left_wrist,1.0619,0.0346,0.1684,-32.13,-3.29,18.62,0.6296607854327484,0.4866908561404466,-0.4737259326359557,0.37715122508840854,73.14432060336243,-74.51178298623329,2.9705031428676323,0
1767372079.867305,2,right_wrist,0.7832,-0.2938,-0.5114,4.13,-1.05,1.96,0.20241969972181742,-0.8697905442743826,-0.052857369423154825,-0.44687444853455927,-149.5516318065191,-53.01309983672228,-8.503444433443148,0
1767372079.923299,1,left_wrist,0.9994,-0.1288,0.1391,-4.97,3.57,15.61,0.6276884652792117,0.47865979222989713,-0.47887969342719344,0.38414350584246065,70.3657122493273,-75.67841735145747,5.522152263696093,0
1767372079.923299,2,right_wrist,0.8145,-0.3133,-0.4612,-4.69,-0.49,3.29,0.20271936746841063,-0.8685513592309557,-0.05054860498076825,-0.4494087593335992,-149.16871221368388,-53.24135632718629,-9.075820644174845,0
1767372079.992739,1,left_wrist,1.0765,0.3226,0.2054,-57.33,4.48,-14.77,0.6338847636125143,0.47148570564143333,-0.4755969767327914,0.3869093583235423,65.84525272868736,-75.41879775500166,9.61227998068111,0
1767372079.992739,2,right_wrist,0.8037,-0.2957,-0.4982,4.83,-1.33,0.63,0.2035664600348511,-0.8667662599718313,-0.05265464590310892,-0.4522216659870923,-149.00322046907027,-53.64681568297322,-9.010523802750328,0
1767372080.064217,1,left_wrist,1.0106,-0.0732,0.1401,-32.83,8.89,7.0,0.6398986334684379,0.45650959320226875,-0.4822303015510161,0.38675918407394166,60.78847137936685,-75.9952288528278,13.06052707342745,0
1767372080.064217,2,right_wrist,0.8037,-0.2977,-0.4973,-6.79,0.0,-2.31,0.19969048967584263,-0.8663302490666697,-0.05546692838682056,-0.4544436463858149,-149.76796805086002,-54.051889987506506,-8.363736326764252,0
1767372080.143466,1,left_wrist,1.1068,-0.1186,0.1303,9.17,-2.59,-37.94,0.6534429572201209,0.46855371041942595,-0.4648633616862983,0.3706369882692843,64.32483169658602,-72.71720467783277,9.445187367721319,0
1767372080.143466,2,right_wrist,0.8135,-0.3221,-0.4841,-0.63,-1.12,-1.33,0.20244814598715946,-0.865118592206632,-0.05447130953721376,-0.455650574499888,-149.1228956017484,-54.13882537941804,-8.861392862122536,0
1767372080.216146,1,left_wrist,1.3596,0.1566,0.2064,-69.93,-3.36,-46.2,0.672957448963,0.4553079738578779,-0.46962421180713276,0.3453636062343201,63.42164611317789,-71.18552799125462,6.620557487479389,0
1767372080.216146,2,right_wrist,0.8013,-0.3304,-0.4846,-2.17,0.77,-1.75,0.20180502916451448,-0.8642004719233164,-0.05425626067620986,-0.4576991727203162,-149.0876727891489,-54.388711513166534,-8.986676739012257,0
1767372080.268536,1,left_wrist,1.4362,0.1088,0.2503,2.31,10.29,-52.22,0.6813273936105027,0.46208361356723343,-0.4579513905486592,0.3354880633988584,64.53645586690709,-69.0794922314422,5.45275039837057,0
1767372080.268536,2,right_wrist,0.772,-0.2767,-0.5144,0.49,-1.89,-0.42,0.19996295846373768,-0.8663794169537594,-0.05515798602728162,-0.45426767186176437,-149.7062508369548,-54.01739702946131,-8.426455309922527,0
1767372080.341991,1,left_wrist,1.1331,0.2738,0.1298,26.46,8.26,-8.54,0.679302983485312,0.47475226109801677,-0.4453711674597924,0.3388248373507704,66.04054503248706,-67.94130922054299,5.7225945137814875,0
1767372080.341991,2,right_wrist,0.7954,-0.3245,-0.4797,5.39,-4.62,0.49,0.20575549270019902,-0.8656651034152194,-0.05457589651657363,-0.4531115508042452,-148.70789455160053,-53.79844626500495,-8.958454175168972,0
1767372080.414241,1,left_wrist,1.0331,0.2562,0.2479,-17.08,16.17,35.42,0.6809928237146872,0.4570998665196499,-0.45098532829177906,0.3520237488329041,60.10941559558054,-69.39935283005495,11.003990942605968,0
1767372080.414241,2,right_wrist,0.8374,-0.3162,-0.4621,-4.97,-4.9,2.17,0.20522332840064816,-0.8672716019516433,-0.05591284675587318,-0.45010788428558357,-149.094734486942,-53.48304573288776,-8.481159053282115,0
1767372080.467038,1,left_wrist,0.9677,0.6734,0.2884,-36.89,-2.24,22.61,0.6863516178591104,0.4437743412254122,-0.4586701147663735,0.34872269291277136,57.347422127249814,-69.90534667108159,12.0286550340075,0
1767372080.467038,2,right_wrist,0.8091,-0.2743,-0.5051,7.49,-7.21,-3.08,0.20342539607684237,-0.8676410148250342,-0.061647051013856376,-0.44946281128215654,-149.89238033649139,-53.612755826828874,-7.34961430337017,0
1767372080.54101,1,left_wrist,0.9726,0.6271,0.2274,-43.33,2.66,19.18,0.688083174015792,0.4303135881741585,-0.4648893569961282,0.35390626897635,53.12037905468672,-70.79478645936541,15.324517079297928,0
1767372080.54101,2,right_wrist,0.8179,-0.2503,-0.4919,-1.47,-4.83,-0.84,0.1995048503054234,-0.8677921947543399,-0.06429020897453427,-0.450556645115869,-150.72873916821692,-53.865163553462395,-6.640924551367667,0
1767372080.59231,1,left_wrist,0.7008,0.3821,0.1771,-31.08,9.17,9.1,0.6960349576879222,0.4201527094239776,-0.46573079646006077,0.3494307709242853,50.59222022109091,-70.38308872590714,16.450808110826717,0
1767372080.59231,2,right_wrist,0.7779,-0.2874,-0.4934,7.7,-2.66,-5.18,0.20548124278650765,-0.8668158696449916,-0.06574045930408852,-0.4495396523166747,-149.84263109950655,-53.741131777009386,-6.87278685184277,0
1767372080.643272,1,left_wrist,0.5841,0.3572,0.019,-12.67,-14.21,7.35,0.6940142804154039,0.4205322702047674,-0.47270544044982366,0.3435787462359275,52.395280857111,-70.92656998170743,14.04810328391169,0
1767372080.643272,2,right_wrist,0.7666,-0.2938,-0.4978,-6.79,-3.71,-2.94,0.20408042797768478,-0.8695034031298247,-0.06419843655254377,-0.4451893660076661,-150.22081751735908,-53.16742063224624,-6.712098567091338,0
1767372080.717813,1,left_wrist,0.5441,0.2313,-0.0205,-8.4,-23.17,12.53,0.6874434959631939,0.42179027602596286,-0.48417422738962534,0.33924875893583395,55.106832760201435,-72.1511667258838,10.905658564844455,0
1767372080.717813,2,right_wrist,0.794,-0.2577,-0.5519,7.14,-0.7,-1.75,0.20735899178084677,-0.8685694941222648,-0.07043599548266088,-0.44455376834325727,-150.15874687701105,-53.27001329964153,-5.951319014518607,0
1767372080.7931678,1,left_wrist,0.5641,0.1527,0.0205,14.07,-1.54,5.53,0.6786721313842177,0.42503325925925606,-0.4952214642242388,0.3369073581527398,58.64510993492859,-73.45164112049858,7.327778945243831,0
1767372080.7931678,2,right_wrist,0.8218,-0.3806,-0.4548,-9.1,0.07,-0.07,0.20714496892564954,-0.8679932209120216,-0.06724187635841582,-0.446270389297078,-149.8545587189514,-53.37689506788227,-6.560239732548814,0
1767372080.868524,1,left_wrist,0.6324,0.3109,0.042,31.29,9.73,-10.01,0.6765535153107861,0.43841310801286487,-0.4846956731854217,0.3393219592635417,61.12734935858803,-72.43430048678619,6.496257989483737,0
1767372080.868524,2,right_wrist,0.7896,-0.2743,-0.5017,-4.06,-5.11,-1.4,0.2059956766800829,-0.8691891635977994,-0.06918489151789228,-0.4441727477670488,-150.32323275936798,-53.19163006990657,-6.009478530175168,0
1767372080.9405708,1,left_wrist,0.7657,0.2279,0.103,15.54,0.56,-23.87,0.6797760928975652,0.4549178689493169,-0.4721553277473764,0.3286693513476733,65.52765747601713,-70.21254772264781,2.922373291310427,0
1767372080.9405708,2,right_wrist,0.8194,-0.3113,-0.4763,2.45,-0.35,-1.96,0.20832861096054586,-0.8671743306080604,-0.0700286577737967,-0.4468823752175874,-149.82566331729072,-53.53574501515402,-6.253954125578961,0
1767372080.9935548,1,left_wrist,0.2865,0.2059,-0.041,30.66,1.33,-31.08,0.6775473800799465,0.4734897607696522,-0.46083400501552085,0.3230619352607994,69.7471458050752,-68.4983139310351,0.2155924833069651,0
1767372080.9935548,2,right_wrist,0.7852,-0.284,-0.5358,-5.46,0.98,1.96,0.20459665013417355,-0.8693443998635382,-0.0687213253423287,-0.44458734195090743,-150.5102446480099,-53.23712457949129,-5.988101816111601,0
1767372081.068445,1,left_wrist,0.5817,0.4211,-0.0068,18.55,1.05,-35.63,0.6787530165563536,0.4892321225881966,-0.4492435271458527,0.3132515380026916,72.90879905840316,-66.39906956610855,-2.0508895164808925,0
1767372081.068445,2,right_wrist,0.8467,-0.2562,-0.49,4.27,-5.11,1.89,0.20853832332766872,-0.8690056158473828,-0.06942147505095311,-0.4433076427619377,-149.94374519034915,-53.075490075815864,-6.138225191800452,0
1767372081.1382442,1,left_wrist,0.7906,0.6461,0.1688,6.02,34.09,-36.26,0.6747464844278808,0.522914985201194,-0.4163193584530091,0.3129781011213495,76.54580058755782,-62.765618877263314,-1.6325266322235081,0
1767372081.1382442,2,right_wrist,0.7901,-0.2899,-0.5041,1.19,-3.57,0.07,0.20763440008352857,-0.867991848007691,-0.07130832013329239,-0.4454135507300092,-150.12962301197052,-53.402432050305876,-5.8895951788663705,0
1767372081.190978,1,left_wrist,0.692,0.407,-0.0293,31.43,10.43,-15.26,0.6698194521509198,0.5361805911799291,-0.406097844522405,0.3145422321985395,78.37780817062672,-61.80289789230023,-1.7112905401725744,0
1767372081.190978,2,right_wrist,0.7413,-0.3597,-0.4968,6.51,-3.64,-3.29,0.21325584987158147,-0.8682295479443394,-0.07170559117771608,-0.44221906648828657,-149.35176206021856,-52.98506339192361,-6.111901521175327,0
1767372081.269554,1,left_wrist,0.978,0.3924,-0.0073,70.49,-10.43,14.84,0.6464662050913605,0.5556338609435819,-0.4058005852536783,0.3296639853782569,83.27090543670542,-63.0014072902131,-3.1214567877105006,0
1767372081.269554,2,right_wrist,0.7666,-0.2611,-0.5231,-4.06,-3.99,-2.8,0.20709709229468007,-0.8694150909766172,-0.07615414672802857,-0.4420732290937047,-150.77690276395865,-53.152346331290104,-4.848355132240298,0
1767372081.3427231,1,left_wrist,1.2595,0.3831,0.1674,59.29,-19.74,33.32,0.6185674669332135,0.5620842477816219,-0.4191102932355488,0.35465779189467755,87.58122248155153,-66.51883421533958,-4.662897596582313,0
1767372081.3427231,2,right_wrist,0.7793,-0.3362,-0.469,2.8,-1.89,-0.63,0.2115154538693584,-0.8682360621050541,-0.07545816204321054,-0.44241769744869897,-149.9300307202117,-53.1460654084267,-5.3694253979094,0
