timestamp,node_id,node_name,ax,ay,az,gx,gy,gz,qw,qx,qy,qz,roll,pitch,yaw,rep_number
1767650368.2758741,1,left_wrist,0.3704,-0.1684,-0.6866,-53.97,-47.67,-28.7,0.24401515552805103,-0.5574376119632126,-0.7873486105006228,-0.09900544522454499,-172.32029829779802,-29.645269720000307,107.36837214785878,1
1767650368.2758741,2,right_wrist,0.3684,0.3084,-0.7881,83.44,-52.71,8.68,-0.14961704897440728,-0.9611572977898525,0.18863635259298733,-0.1349359627449731,165.55367448088276,-18.41127761070674,-19.85403282747742,1
1767650368.32698,1,left_wrist,0.2904,0.0859,-0.7549,-44.59,-47.46,-22.96,0.21130679572188982,-0.5558163411298913,-0.796859844296054,-0.10692063207443274,-175.84522256643305,-27.104850575742024,109.2059058108167,1
1767650368.32698,2,right_wrist,0.3094,0.2816,-0.7037,67.55,-60.34,9.45,-0.1197029298962886,-0.9669860463115075,0.19197353929455319,-0.11728322567104825,168.82407706981235,-15.82988385447512,-20.89899038144766,1
1767650368.416256,1,left_wrist,0.2586,-0.0102,-0.6588,-50.68,-43.12,-24.5,0.17824573270374158,-0.5539432113358701,-0.8049841475955847,-0.1156542239073871,-179.28981748860812,-24.52572261491079,110.77866694543357,1
1767650368.416256,2,right_wrist,0.2767,0.1825,-0.8218,21.28,-50.12,8.96,-0.07029328112484251,-0.9725296371369724,0.20091655687507196,-0.09422046854266156,174.19447742093192,-12.210889864077787,-22.723722382621194,1
1767650368.483021,1,left_wrist,0.1157,0.1898,-0.6193,-29.4,-35.56,-17.78,0.13107940192438805,-0.5476927196004739,-0.8170991847394713,-0.1232874591589617,176.45775562137706,-20.441878643061372,112.97184777977917,1
1767650368.483021,2,right_wrist,0.1972,0.1088,-0.7959,73.43,-50.68,8.47,-0.038507411311214206,-0.9750937686709239,0.20259113094334982,-0.08164652617434545,177.55432341209803,-10.06868139041853,-23.258762292400114,1
1767650368.5428212,1,left_wrist,0.1054,0.1513,-0.568,-29.26,-6.65,-9.59,0.11644367842017829,-0.5458373974641592,-0.8188761178245176,-0.13395636954687287,174.3760327221466,-19.690715110512066,113.60439125781392,1
1767650368.5428212,2,right_wrist,0.0913,0.0444,-0.7237,2.59,-38.92,6.44,-0.03446806272550944,-0.9761392006582545,0.20567369753798526,-0.06051895348787474,177.54853463318935,-7.604150507211611,-23.63356467684631,1
1767650368.611295,1,left_wrist,0.0332,0.2079,-0.5031,-7.42,-5.39,-0.42,0.10808751233004742,-0.5459254516650691,-0.8195317386676636,-0.13656580911395186,173.57220627720588,-19.042644168137066,113.74061034734986,1
1767650368.611295,2,right_wrist,0.0547,0.1649,-0.4699,21.14,-0.84,4.27,-0.021555600584271417,-0.9767802014278831,0.20814186706019072,-0.0459647403849215,178.6769981311844,-5.6682390743777455,-23.99295519340427,1
1767650368.6642408,1,left_wrist,0.0478,0.264,-0.4363,-19.81,12.39,4.9,0.10420532680232182,-0.5472270491365018,-0.8170493144617776,-0.14870852126531744,172.13937893116784,-19.453178555503094,113.72425357556737,1
1767650368.6642408,2,right_wrist,0.0083,-0.0771,-0.5549,-50.33,21.84,-10.22,-0.04041370595473775,-0.9767323771683323,0.20477125085823944,-0.04928823981493657,176.60961871725303,-6.478707438843494,-23.48912110635518,1
1767650368.716358,1,left_wrist,0.1088,0.1518,-0.4563,28.49,26.88,8.82,0.11677526632255442,-0.5466325095598982,-0.816117861855566,-0.14665630647143563,173.14835460230546,-20.544757529307184,113.61513852794847,1
1767650368.716358,2,right_wrist,0.0888,0.0605,-0.6783,-40.04,40.53,-7.14,-0.06594712298064685,-0.9751327496993728,0.20156053285639097,-0.06434632102120183,174.03716481755256,-8.74731587309306,-22.900738545891667,1
1767650368.768277,1,left_wrist,0.1074,0.2206,-0.5192,53.13,35.56,34.93,0.14009768044327067,-0.5532459561979522,-0.809711374009326,-0.13659810644719073,175.89993541746728,-22.211218863410178,112.1184345553609,1
1767650368.768277,2,right_wrist,0.1362,0.1254,-0.7579,-85.12,42.91,-15.96,-0.11110207407372268,-0.9714892766479025,0.19537918666648899,-0.07544460161067483,169.05616708259345,-10.952860569054828,-21.690081123979915,1
1767650368.823172,1,left_wrist,0.3143,0.1401,-0.6983,92.33,64.89,35.56,0.22304309491606372,-0.555320482915585,-0.7949922294174866,-0.09928894314312989,-174.17515799149163,-27.704360172733484,108.6921105693465,1
1767650368.823172,2,right_wrist,0.2508,0.2957,-0.8608,-49.56,40.67,-15.05,-0.14034748223350854,-0.9679263429338771,0.18827640490834377,-0.08929263261968931,165.85512180649133,-13.04437470230315,-20.38958741611505,1
1767650368.8763819,1,left_wrist,0.3143,0.0317,-0.8223,17.57,61.18,26.88,0.24495457488817812,-0.5600600309648752,-0.7842276299529717,-0.10638158851662245,-172.851710189912,-30.222575272413152,107.0019765253692,1
1767650368.8763819,2,right_wrist,0.3211,0.303,-0.8691,-80.22,48.65,-22.47,-0.18226931098841329,-0.9611677773785019,0.17871664957326835,-0.10485590668333929,161.05472961221724,-15.469023539838135,-18.469856361134372,1
1767650368.931067,1,left_wrist,0.4319,-0.0576,-0.855,80.22,68.67,26.6,0.2844697954257435,-0.5570851477818998,-0.774644458579938,-0.09305394350939296,-168.11315891903973,-32.98393362703521,105.02565057646768,1
1767650368.931067,2,right_wrist,0.2191,0.3187,-0.9487,-66.85,47.74,-13.02,-0.21326366362091626,-0.9549887373419278,0.17184332875641364,-0.11395170771414648,157.3679497120437,-16.914304945750533,-16.993072796831534,1
1767650369.0122728,1,left_wrist,0.4548,-0.0044,-0.8735,49.28,62.79,22.4,0.3141844801980453,-0.5555256163755117,-0.7644825120942982,-0.09080688660714563,-165.026946395516,-35.539789512523164,103.1672359118153,1
1767650369.0122728,2,right_wrist,0.4841,0.6046,-0.8496,-62.44,41.23,-5.46,-0.26522496235235704,-0.9389742160819007,0.16499575822231496,-0.14408171517307228,151.149026516876,-20.983557426399972,-14.477802624275665,1
1767650369.0660422,1,left_wrist,0.4895,-0.2786,-0.7701,87.22,39.97,17.78,0.34846927101472147,-0.5489515179233079,-0.7570276720960731,-0.06426898014567636,-159.14607141836203,-36.738435932121696,101.11170085181672,1
1767650369.0660422,2,right_wrist,0.3933,0.3831,-0.7549,-50.19,39.27,-6.23,-0.2873274743783623,-0.9302691997622549,0.16239476632786184,-0.1602188450537728,148.37317285699316,-23.042528050876104,-13.196121068504128,1
1767650369.12549,1,left_wrist,0.5758,-0.2499,-0.569,41.16,56.14,21.21,0.41270717579321503,-0.5382915935850726,-0.7326732438144212,-0.05572131659324907,-150.9581793158102,-41.66296817182926,96.13420165314683,1
1767650369.12549,2,right_wrist,0.5075,0.588,-0.6769,-64.33,35.07,-4.76,-0.31914640003339056,-0.9181678047439349,0.16039284680923074,-0.17142809679239057,144.24321069278201,-24.65649498406344,-11.752512635211747,1
1767650369.176747,1,left_wrist,0.6534,-0.386,-0.3353,68.46,55.51,8.19,0.44967741543255113,-0.5259833517525226,-0.7204649337451652,-0.04540941502218968,-145.42656253933967,-44.084843943497816,93.37307940230289,1
1767650369.176747,2,right_wrist,0.4631,0.5163,-0.4299,-83.16,35.07,-4.76,-0.3577258548980795,-0.9020728894592691,0.15971358775556033,-0.18107535648533296,139.10846409126913,-26.164746757854072,-10.177758266196875,1
1767650369.231304,1,left_wrist,0.67,-0.205,-0.6393,51.03,94.78,32.48,0.48848219191170944,-0.5230516071087283,-0.6967806102412047,-0.04794732190647192,-139.39631595234883,-46.96086370120347,87.9515437298742,1
1767650369.231304,2,right_wrist,0.5461,0.611,-0.4778,-44.1,57.12,-0.56,-0.3813366641992783,-0.8886397586951074,0.15418245531952948,-0.20280408840876385,135.53974937188468,-28.55684307773673,-7.809691093716202,1
1767650369.316138,1,left_wrist,0.7701,-0.4509,-0.7588,64.12,71.05,18.2,0.5210988596382333,-0.5141396275826533,-0.6800433851432284,-0.04071137624598224,-133.35241809740026,-48.642580423636005,83.76457534474802,1
1767650369.316138,2,right_wrist,0.5983,0.6315,-0.5114,-50.12,54.11,11.76,-0.4472960471292041,-0.8451836337173793,0.15669220257997893,-0.24705955794000492,125.14509240229597,-33.903581804297346,-3.0284935012230902,1
1767650369.366281,1,left_wrist,0.7896,-0.4826,-0.6676,53.27,82.32,28.07,0.5540469321094279,-0.5095491535207904,-0.6572800283761823,-0.03707588790820536,-126.61296595136523,-50.006016905668076,78.03733227994448,1
1767650369.366281,2,right_wrist,0.6866,1.0458,-0.6163,-49.56,65.17,13.09,-0.471418324890059,-0.8265317415230807,0.15170130492719733,-0.2675757038597856,120.56837528745878,-35.82766146230366,0.1065871316414015,1
1767650369.420379,1,left_wrist,0.9145,-0.5671,-0.6695,25.34,66.78,26.67,0.5757103109234791,-0.5107432379751673,-0.6373453506547674,-0.038599051254972525,-121.80128335236408,-50.64943999696463,73.07370695877847,1
1767650369.420379,2,right_wrist,0.6237,0.7379,-0.5095,-38.85,71.19,3.01,-0.48664505832164034,-0.8116544060760921,0.14312014639718895,-0.28967280853342176,116.88845683982774,-37.55522648690542,3.587637594204912,1
1767650370.915887,1,left_wrist,0.3684,-0.204,-0.6832,-27.23,-43.12,-26.81,0.28622516902099493,-0.47774634669540667,-0.8292352846405585,-0.04692998556560015,-166.76279309366316,-31.301218092237516,116.38125707775998,2
1767650370.915887,2,right_wrist,0.3553,0.3875,-0.7393,76.44,-49.56,12.18,-0.157174465542998,-0.9598570493571322,0.2028056646154723,-0.1133159061234101,164.54216199837265,-16.33696542484631,-21.62870728217829,2
1767650370.9867609,1,left_wrist,0.2977,-0.0566,-0.67,-67.41,-29.82,-19.53,0.2326083821168641,-0.475116706599065,-0.8453733248024415,-0.07417140548687529,-173.80363564256245,-27.630129589422065,119.801188433152,2
1767650370.9867609,2,right_wrist,0.3396,0.307,-0.7774,43.54,-45.85,3.36,-0.13814233333043402,-0.9637179583288051,0.20498511051317372,-0.10072485792734957,166.56204238190173,-14.523374568427634,-22.295914552936832,2
1767650371.061286,1,left_wrist,0.3065,-0.019,-0.8091,86.87,-10.22,5.88,0.24223458465877354,-0.4686733411808939,-0.8485835100284032,-0.0396702882445256,-169.7063744044296,-26.63449678661124,119.73340301352059,2
1767650371.061286,2,right_wrist,0.2294,0.3421,-0.712,56.07,-55.09,3.01,-0.10429877603210533,-0.9704439219075756,0.20720550962763068,-0.06652996716369196,169.77478309366816,-9.924467643398245,-23.21504818748804,2
1767650371.11216,1,left_wrist,0.1937,0.2172,-0.7247,-6.58,-34.16,-11.83,0.22420189397132909,-0.46510393093073243,-0.8554916233832118,-0.03931827175253451,-171.0430563441798,-24.845942689251896,120.96001776454443,2
1767650371.11216,2,right_wrist,0.1332,0.1962,-0.73,33.53,-33.32,6.44,-0.09159842939456832,-0.9718605757226997,0.20995981641428182,-0.05489648968442476,170.98755122656124,-8.346975790127987,-23.722547240106238,2
1767650371.162417,1,left_wrist,0.1791,0.0161,-0.6261,-24.08,-28.14,-15.19,0.20398061291756747,-0.4621484855660264,-0.8618164603975316,-0.04564072118921653,-173.13515167852563,-23.189488615470008,122.18508135470373,2
1767650371.162417,2,right_wrist,0.1088,0.1039,-0.7105,39.13,-22.61,10.85,-0.06850847887814704,-0.9728229267562682,0.2149808344606534,-0.05201328978032253,173.57580084697264,-7.507470559559236,-24.500726741827176,2
1767650371.219929,1,left_wrist,0.1503,-0.0351,-0.632,-40.67,-15.96,-8.68,0.18488125175068693,-0.4631304519143462,-0.8648710705485095,-0.05768135391084026,-175.58147782332676,-21.914641708607444,122.80685873071764,2
1767650371.219929,2,right_wrist,0.0849,0.1259,-0.6866,24.64,-14.35,8.19,-0.061127887928673595,-0.9729259756964351,0.21792121841549386,-0.04678428899562211,174.3043152239681,-6.758079208510904,-24.91350984179847,2
1767650371.2723358,1,left_wrist,0.0888,0.1269,-0.4895,-8.05,13.86,0.35,0.1757942024163643,-0.46415356065341085,-0.8653731929647968,-0.06918892561290152,-177.32154830468528,-21.622136749201545,123.07356867456429,2
1767650371.2723358,2,right_wrist,0.0415,-0.0332,-0.5563,-5.53,-1.82,4.69,-0.058229318734219555,-0.9726219603226901,0.22035542886681153,-0.04538010254196995,174.61301906058637,-6.542354799420048,-25.22253828941491,2
1767650371.331894,1,left_wrist,0.1293,0.0859,-0.5329,-3.5,15.82,-0.14,0.17668959813203997,-0.46354779768161264,-0.8649459012455137,-0.0759790306272113,-177.9978088568073,-22.091927056039033,123.23299639963922,2
1767650371.331894,2,right_wrist,0.0132,0.0239,-0.5744,-0.84,13.23,-0.21,-0.05650225891500641,-0.9727239095527276,0.2199661111988572,-0.04722923296021952,174.85030060746587,-6.7039480435424705,-25.182620922725445,2
1767650371.421976,1,left_wrist,0.2328,0.0288,-0.568,39.69,36.33,9.17,0.19658673294382065,-0.4618184080171961,-0.8619089707743071,-0.07204401811193263,-176.40092288689962,-23.917589877931903,122.8718629466176,2
1767650371.421976,2,right_wrist,0.1503,0.1059,-0.6207,-56.28,35.91,-8.68,-0.10776540335432297,-0.9685818770331704,0.2138833662665294,-0.06700500695677716,169.45841054042077,-10.130927677270286,-23.96754335484708,2
1767650371.47725,1,left_wrist,0.2323,-0.1288,-0.5051,86.73,43.75,31.15,0.2516754554687421,-0.46624856116363034,-0.847242232539142,-0.03810962778007816,-168.94171520665347,-27.51606281998328,119.63534786712809,2
1767650371.47725,2,right_wrist,0.1718,0.263,-0.5578,-61.11,22.75,-14.98,-0.1405049087956775,-0.9654142732497917,0.20782453145926655,-0.07101137749425201,165.72756363998437,-11.274607204175805,-22.88124364560033,2
1767650371.572227,1,left_wrist,0.2123,-0.0786,-0.5495,87.99,58.45,28.91,0.2868514955652457,-0.46642542434840883,-0.8366468116581396,-0.01362554790304333,-163.66200962063067,-29.518027402690798,117.3896847849464,2
1767650371.572227,2,right_wrist,0.4577,0.3523,-0.6281,-88.34,47.25,-11.62,-0.23571995463203618,-0.9482557050023988,0.192982270235228,-0.08947102488253894,154.704671911288,-15.109368072928739,-19.597344567619416,2
1767650371.6277592,1,left_wrist,0.5963,-0.4363,-0.771,69.09,77.7,20.44,0.3687273228416086,-0.45969231890585827,-0.807660347077481,0.020196462256979998,-152.9333533069457,-35.24293993446423,111.96219719448975,2
1767650371.6277592,2,right_wrist,0.4182,0.5919,-0.7862,-71.33,75.32,-7.0,-0.2750722131944601,-0.9363605626701612,0.184821498485119,-0.11578077518325605,150.11333913430317,-18.572454332841648,-17.333866140371015,2
1767650371.6780858,1,left_wrist,0.7105,-0.4036,-0.8984,82.53,78.75,22.26,0.4104975322119583,-0.45347697622761335,-0.790421752434373,0.03292204972245438,-147.29320087263966,-38.24851348941889,108.69328806925314,2
1767650371.6780858,2,right_wrist,0.4519,0.6832,-0.8325,-69.44,82.74,-0.91,-0.3134777594269932,-0.9214992119527872,0.17749703889662144,-0.14514026973226862,145.3486677628263,-22.25788812994754,-14.781955768407748,2
1767650371.765242,1,left_wrist,0.6354,-0.3245,-0.8135,38.29,71.82,27.72,0.43889042770128955,-0.4568557689736576,-0.7729650620577417,0.034394936629376344,-143.43652096111538,-40.32082071936463,104.99873606609054,2
1767650371.765242,2,right_wrist,0.5851,0.7413,-0.7852,-51.03,56.84,-0.84,-0.3669000195520468,-0.8953231057827872,0.16699234840560936,-0.1894583528856708,137.98253382218928,-27.502794407544584,-10.39220432458291,2
1767650371.823267,1,left_wrist,0.53,-0.4953,-0.5305,38.22,51.94,15.54,0.4896256110381409,-0.4517402868178504,-0.7437748191193801,0.05474022949519806,-134.48929176477196,-42.756626353306025,98.80521288705401,2
1767650371.823267,2,right_wrist,0.5607,0.65,-0.671,-40.81,47.74,-5.88,-0.388390983866289,-0.8832577014793531,0.16106534840949382,-0.2075240467283592,134.67075341757456,-29.45284508791348,-8.142021960792265,2
1767650371.877478,1,left_wrist,0.5978,-0.4172,-0.4821,81.13,61.81,27.72,0.5219828002456435,-0.444111693871404,-0.7246577453470966,0.07190209818114607,-128.067483075332,-43.84045630031859,94.8193786259991,2
1767650371.877478,2,right_wrist,0.5475,0.7335,-0.6578,-48.65,28.42,-11.76,-0.41377756169796803,-0.8715761985330029,0.15476141474182847,-0.2125840165514599,130.87000798085873,-29.910059854339284,-6.215485579476982,2
1767650371.934595,1,left_wrist,0.6681,-0.5446,-0.4592,46.34,50.05,8.61,0.5431377809070974,-0.4386061730694532,-0.7117108776966207,0.07806152999390144,-124.10042493012358,-44.800273385010044,92.03946219710112,2
1767650371.934595,2,right_wrist,0.5851,0.6744,-0.5368,-72.31,23.73,-8.47,-0.4447590286528224,-0.8546653253775928,0.1548901105824008,-0.21850776112711212,126.30850808729713,-30.749098486224064,-4.698172175051399,2
1767650372.023131,1,left_wrist,0.7408,-0.753,-0.3543,56.77,68.67,13.58,0.5763368055416072,-0.431935628496101,-0.688057782597276,0.08856628715879131,-117.30749776938957,-45.77416500828619,86.92092320007964,2
1767650372.023131,2,right_wrist,0.6202,0.7876,-0.4529,-29.33,55.3,1.4,-0.4826078323778651,-0.8275595608570717,0.14459004808057008,-0.2476460606544098,119.50688577340189,-33.32889864775927,-0.01933080036840944,2
1767650372.082238,1,left_wrist,0.7793,-0.6315,-0.3201,46.62,62.79,22.68,0.6240653414826214,-0.425951099149123,-0.6479969818704157,0.09595843986156427,-107.16824355794041,-46.63862626710461,78.08255984102613,2
1767650372.082238,2,right_wrist,0.6861,0.9209,-0.3865,-1.19,56.49,7.7,-0.4883612759375574,-0.8185025251791433,0.1350646854831891,-0.27076634055091475,117.39349764780768,-35.11129951470187,3.038527269930384,2
1767650373.5288792,1,left_wrist,0.4646,-0.4485,-0.6798,-39.34,-50.19,-25.83,0.29606500899330807,-0.38446148496354265,-0.8741942749666378,-0.01786747449905679,-166.59375657119932,-32.09843111954471,128.6483583246054,3
1767650373.5288792,2,right_wrist,0.3865,0.2879,-0.812,68.74,-62.58,17.99,-0.10699348463057529,-0.9617896133266473,0.20777693733227595,-0.1426249566394492,171.105824676858,-18.591092527825953,-22.922105956291855,3
1767650373.613257,1,left_wrist,0.3206,-0.0854,-0.6939,-49.0,-60.62,-20.58,0.2600702699852962,-0.38333711404488524,-0.885734416050054,-0.029843858496919128,-170.3635088574718,-28.91993100884216,130.70456461963613,3
1767650373.613257,2,right_wrist,0.2621,0.2098,-0.7691,43.82,-52.64,14.91,-0.05277130794779252,-0.9689774675043316,0.21691966671148552,-0.10603638394508548,176.68685183739834,-13.202185283209559,-24.85337542680285,3
1767650373.6680372,1,left_wrist,0.2469,-0.1176,-0.5773,-61.53,-55.93,-21.0,0.22432109358920832,-0.3836994049232999,-0.8947398184108751,-0.04353700704597359,-173.99322669900133,-25.774367348866136,132.20139487597777,3
1767650373.6680372,2,right_wrist,0.2367,0.0005,-0.7471,50.68,-45.85,8.82,-0.024656272163339606,-0.9705368571434766,0.21961010018377772,-0.09602958432869123,179.66794932592325,-11.3750255484678,-25.46693335907977,3
1767650373.7189388,1,left_wrist,0.1786,0.0625,-0.5949,-29.89,-32.06,-17.64,0.2021542307291734,-0.3799075813284445,-0.9010572038380058,-0.05384990305564139,-176.45325595495464,-23.904978420406984,133.52602339498512,3
1767650373.7189388,2,right_wrist,0.1952,0.1708,-0.7261,31.57,-39.27,0.35,-0.012266267705026267,-0.9722859103434317,0.2183447111391282,-0.08267547606033718,-179.28816783412321,-9.562591350943723,-25.373231268098827,3
1767650373.771887,1,left_wrist,0.2006,0.0151,-0.61,-39.76,-24.92,-13.86,0.1808282056216504,-0.37827572247818664,-0.9053181246298154,-0.06788026997599524,-179.13947886658784,-22.257453769491857,134.47673363955013,3
1767650373.771887,2,right_wrist,0.1952,0.1708,-0.7261,31.57,-39.27,0.35,0.00019280950102120608,-0.9736473735021293,0.21712911641834254,-0.06975458193044606,-178.22621252025164,-7.80193325619382,-25.26414327706728,3
1767650373.828359,1,left_wrist,0.1249,0.0927,-0.6442,-2.59,-13.58,-4.48,0.15542115135102877,-0.3757938786929374,-0.9103521726127852,-0.07669516457261229,178.6088134653416,-19.914598219463077,135.38252209327553,3
1767650373.828359,2,right_wrist,0.0786,-0.1327,-0.7218,5.67,-26.81,1.96,0.010131569563416204,-0.9740851349438783,0.21809742255287878,-0.05906788852954929,-177.37583562390256,-6.353072850382059,-25.38639605770336,3
1767650373.8823,1,left_wrist,0.1083,0.2733,-0.6232,-0.07,2.38,-2.87,0.1528743747615844,-0.3739541006092632,-0.9112030716513114,-0.0806022232446889,178.01709031689612,-19.808790156163802,135.72016203027778,3
1767650373.8823,2,right_wrist,0.0542,-0.0264,-0.6686,28.56,-11.76,5.39,0.023597674188196173,-0.9739079803855007,0.21969135944778623,-0.05178901522839083,-176.04331402074735,-5.192778555096702,-25.60319924043093,3
1767650373.9631019,1,left_wrist,0.0703,0.162,-0.5895,16.24,11.06,2.52,0.15554759039344473,-0.37305361482475274,-0.9113638107992718,-0.07779429255676425,178.4304785902003,-19.97217627355576,135.75431188792348,3
1767650373.9631019,2,right_wrist,0.0869,-0.0405,-0.6578,-14.14,19.39,-6.86,0.007500685148945809,-0.9743624529844639,0.21660449689023906,-0.06036589983857834,-177.64808230698137,-6.568279122944782,-25.201502239788372,3
1767650374.020004,1,left_wrist,0.1122,0.2045,-0.5485,24.43,21.07,6.86,0.16469955825067067,-0.37275608308607633,-0.9101621831465423,-0.07437579178926608,179.22751621430191,-20.809053727170557,135.59882695064564,3
1767650374.020004,2,right_wrist,0.0712,0.0893,-0.6251,-30.87,27.72,-7.77,-0.013278469627406194,-0.9743858923896076,0.21389540782553898,-0.06815107825712206,-179.81037407038954,-7.9605540137283635,-24.77536139235144,3
1767650374.08783,1,left_wrist,0.2562,0.0478,-0.5485,67.97,40.67,17.5,0.20663794766168614,-0.37251807636744344,-0.9031659006874653,-0.05312623834853532,-176.3496220752528,-24.383217537557076,134.38287545450862,3
1767650374.08783,2,right_wrist,0.1401,0.0351,-0.611,-56.49,35.91,-14.63,-0.044643963829648144,-0.9735523349310384,0.20876516518725705,-0.08136260472869224,176.91569676443947,-10.198659656725528,-23.93073862936514,3
1767650374.167119,1,left_wrist,0.1918,0.0737,-0.4675,83.02,49.84,28.84,0.23768633918689452,-0.3741372758484476,-0.8958938758428879,-0.030011101476673022,-172.02075053831894,-26.637230804669567,132.7760241201071,3
1767650374.167119,2,right_wrist,0.2952,0.2552,-0.692,-73.15,56.28,-25.13,-0.1219171607478428,-0.9672377847381365,0.190397155378185,-0.11548245283999792,168.50623230026775,-15.65375511870491,-20.687002312782486,3
1767650374.227469,1,left_wrist,0.5397,-0.1274,-0.6412,85.47,85.96,32.55,0.33218648596350725,-0.3746167019528549,-0.8654792054571707,0.0161310285601078,-160.43298619485589,-34.257636094238094,127.10596616283871,3
1767650374.227469,2,right_wrist,0.3143,0.3084,-0.5797,-70.56,63.49,-28.28,-0.16207378392956479,-0.9609140898800627,0.17806549623900436,-0.13663410804729745,163.8928040783317,-18.681478447897124,-18.330087927554548,3
1767650374.312704,1,left_wrist,0.6217,-0.347,-0.7296,114.94,96.46,27.51,0.38996718439294414,-0.36802995618037776,-0.8426436304666478,0.049307793344421154,-151.82369688273585,-38.382854661115104,122.82828638649399,3
1767650374.312704,2,right_wrist,0.5675,0.6617,-0.8057,-102.34,79.38,-9.24,-0.2606371848387581,-0.9319438251693796,0.16321346914563264,-0.1921206082059902,151.8382221327981,-26.306329738707543,-13.158102315436002,3
1767650374.3641238,1,left_wrist,0.5963,-0.3572,-0.7432,84.77,91.0,29.12,0.4319244236836129,-0.3664747047371411,-0.8210953183179863,0.07028556928480283,-145.0017896054223,-41.13127470252407,118.40284455134115,3
1767650374.3641238,2,right_wrist,0.6739,0.5763,-0.8003,-91.42,82.81,-11.55,-0.3067530806617215,-0.9125528559246839,0.15655037575808498,-0.22054888913401702,145.51493751199007,-29.905414326568007,-9.99235035246675,3
1767650374.4243999,1,left_wrist,0.7779,-0.6525,-0.6217,22.61,84.0,16.66,0.5068324821669515,-0.3668193634489868,-0.7725781235266131,0.10810843014059525,-130.6608665334181,-44.734521769810854,107.79748520572953,3
1767650374.4243999,2,right_wrist,0.6466,0.7266,-0.855,-37.31,58.38,-17.08,-0.3309769171359095,-0.9013952820227985,0.1443149672023782,-0.23898538890824525,141.6370068736135,-31.760547167332064,-6.888147085686861,3
1767650374.476477,1,left_wrist,0.8423,-0.5475,-0.5968,153.86,88.9,30.1,0.556536587758721,-0.3452630054393871,-0.7409437674196497,0.1485355751421771,-119.09962255988053,-46.232850880747414,101.8562826382715,3
1767650374.476477,2,right_wrist,0.6842,0.7828,-0.7164,-54.39,62.44,-28.49,-0.36253582563600584,-0.8866512848675102,0.1287433587932926,-0.25659778202438577,136.38748271464718,-33.25551105178429,-2.8959965634090943,3
1767650374.533497,1,left_wrist,0.8872,-0.53,-0.6266,23.17,78.26,26.39,0.5809112336971699,-0.35265705940765185,-0.7185276147085657,0.14796352224652937,-114.32240761654757,-46.92335766504973,96.41854369813299,3
1767650374.533497,2,right_wrist,0.6066,0.6559,-0.5592,-68.74,58.24,-16.87,-0.3970161884099057,-0.8676898227375048,0.12010539157767408,-0.2739839640785593,130.62698070228612,-34.808387137702866,0.6366841376127022,3
1767650374.588033,1,left_wrist,0.7686,-0.5558,-0.5002,90.79,77.21,18.9,0.6143977730763281,-0.34046740406278964,-0.6918103259441071,0.1673194433612023,-106.21902666506054,-47.40530995431159,91.11707564090622,3
1767650374.588033,2,right_wrist,0.7774,0.7847,-0.5968,-31.5,68.25,-16.52,-0.4158996005395778,-0.8525422036485547,0.10628281426955223,-0.2981665250493921,126.40863457657672,-36.64141745941484,4.775031583649167,3
1767650375.970857,1,left_wrist,0.4704,-0.2245,-0.732,-28.21,-83.37,-42.0,0.29596304866632345,-0.28624076095848483,-0.911074848896429,-0.020364682624394663,-170.87659203193948,-33.43203178577843,142.37152024487054,4
1767650375.970857,2,right_wrist,0.3665,0.3616,-0.693,50.26,-84.35,24.22,-0.0802439904709199,-0.9562337633006562,0.2580406377241024,-0.11221818569245345,174.32734536453577,-14.83439234636261,-29.464161590566103,4
1767650376.026739,1,left_wrist,0.2294,-0.1371,-0.5807,-41.58,-61.39,-31.71,0.22284035438293484,-0.26593479287012245,-0.9372904186604007,-0.03327962570438208,-176.42478819368304,-25.812829098535826,147.50032980846916,4
1767650376.026739,2,right_wrist,0.2664,0.0961,-0.7086,60.83,-59.57,18.55,-0.04971211392952819,-0.9580090733183215,0.2646019635336298,-0.09865658651390748,177.4739374488069,-12.435220240840207,-30.605041375853794,4
1767650376.077798,1,left_wrist,0.1586,-0.0913,-0.6193,-38.5,-37.24,-21.91,0.19903230199100316,-0.26196718999212937,-0.9433138317902279,-0.043798959862393516,-178.64757990376708,-23.481168002880995,148.67795986825018,4
1767650376.077798,2,right_wrist,0.2416,0.2123,-0.7696,58.87,-61.95,16.66,-0.021846323333121982,-0.9593311962663098,0.26973165070710414,-0.08031955324761404,-179.91786095793321,-9.549021374403873,-31.415253124844533,4
1767650376.128565,1,left_wrist,0.1225,0.0176,-0.6139,-48.86,-21.42,-12.18,0.17953749242217976,-0.2616027965624965,-0.9462816809661848,-0.06229964617273725,178.51996513906388,-21.86257212322951,149.37857970482384,4
1767650376.128565,2,right_wrist,0.2147,0.019,-0.7593,24.22,-49.28,10.99,-0.007826010264794946,-0.9594569131045555,0.2737071422794435,-0.0668250381551192,-178.7534088393881,-7.614981162287963,-31.926999535444743,4
1767650376.223605,1,left_wrist,0.1103,0.1357,-0.6671,-43.12,-6.86,1.68,0.1672885749059981,-0.26535582472104585,-0.9460538279807021,-0.08113552585393122,176.0218757884744,-21.0748689659934,149.40403948664792,4
1767650376.223605,2,right_wrist,0.0727,0.0542,-0.7281,19.53,-32.55,8.47,0.021142856847892844,-0.9589423303020514,0.28009645040398856,-0.03909686982696416,-176.412303444347,-3.620018133871941,-32.678412086892436,4
1767650376.287293,1,left_wrist,0.0527,0.1996,-0.5368,-11.13,10.22,8.89,0.15870697981922352,-0.2711286676241455,-0.9435682206961046,-0.10478717975689386,173.1348174377615,-20.87457076725969,149.20270448858534,4
1767650376.287293,2,right_wrist,0.0405,-0.0625,-0.6773,11.9,-23.87,1.89,0.033986026090067574,-0.9587216488114723,0.2805630159664888,-0.03133917999254435,-175.24925196234892,-2.3509701419144986,-32.72100882680708,4
1767650376.367892,1,left_wrist,0.0683,0.2977,-0.5002,2.38,12.18,11.62,0.1614417360796519,-0.2743968829495349,-0.9418202974434347,-0.1077842465424679,172.94523275030355,-21.299895448571487,148.84156116005468,4
1767650376.367892,2,right_wrist,-0.0342,-0.1078,-0.5632,-13.02,17.57,-9.52,0.022603512016209984,-0.9603536952183517,0.27604736641138294,-0.03174449278741023,-176.50207000510952,-2.7795115093700518,-32.1587878069696,4
1767650376.426244,1,left_wrist,0.1747,0.161,-0.527,39.06,34.16,18.83,0.18761144600661384,-0.2790909098456736,-0.9368291913039776,-0.0962355219737331,175.25710931331594,-23.905959403943697,147.8259581605645,4
1767650376.426244,2,right_wrist,0.0547,0.0029,-0.5758,-30.52,25.97,-9.45,0.0018339655368447088,-0.9612859856123471,0.2725298025446181,-0.0406619866792027,-178.52355443545494,-4.426259001835921,-31.713704347954465,4
1767650376.515989,1,left_wrist,0.2479,0.2255,-0.5505,59.92,47.88,24.85,0.21413927685610473,-0.28120585729765135,-0.9320322253388365,-0.07989722685409022,178.17723027698028,-26.366062346465053,146.84854339184406,4
1767650376.515989,2,right_wrist,0.1274,0.001,-0.6778,-114.66,38.57,-14.28,-0.08180245127588696,-0.9594090551415272,0.26241357189817627,-0.06310103930474546,172.78765504170673,-9.439819025304372,-29.998059526486134,4
1767650376.568736,1,left_wrist,0.2582,0.0508,-0.6339,-7.42,72.03,24.78,0.23871739289858038,-0.2889822112209562,-0.9226588776475387,-0.09057529146370817,178.07882417712838,-29.528652054798872,145.72463242577348,4
1767650376.568736,2,right_wrist,0.1552,0.2762,-0.8076,-57.05,59.22,-14.0,-0.11745892338257023,-0.9563402905395133,0.25535889603747247,-0.08005300883246096,169.15821656165764,-12.30432846157996,-28.728191000467106,4
1767650376.623397,1,left_wrist,0.386,-0.3133,-0.6939,53.13,78.82,44.03,0.31910413873780413,-0.29404933983789555,-0.9002959406537698,-0.0342746790451167,-170.98638134361542,-36.493615938026096,140.8473023159654,4
1767650376.623397,2,right_wrist,0.3479,0.3231,-0.7959,-104.58,58.31,-10.85,-0.1716137197172347,-0.9480134491958072,0.25087406662973,-0.09424136056607457,163.23824359705216,-15.354535431938604,-27.369515150257698,4
1767650376.682555,1,left_wrist,0.4314,-0.0532,-0.5212,138.39,57.05,36.19,0.3612762472322926,-0.2860964072055027,-0.8873726305345114,0.014075991905233754,-162.58237993666998,-39.28062276260707,138.00244880344167,4
1767650376.682555,2,right_wrist,0.3738,0.3636,-0.8135,-56.56,87.64,-23.24,-0.20887226926542518,-0.9406343616472957,0.23656304710597825,-0.12496918645902606,159.25884677920752,-19.507092434330225,-24.62989496933442,4
1767650376.763105,1,left_wrist,0.6417,-0.5373,-0.6134,40.11,93.52,41.65,0.40369767056577216,-0.29713048996208385,-0.8648463134151311,0.02797350330076953,-156.79588476712428,-42.9726617684248,132.83740473069847,4
1767650376.763105,2,right_wrist,0.5202,0.2777,-0.5612,-53.83,92.05,-16.59,-0.28346035292252814,-0.9153773592281611,0.21612203144591097,-0.1871517727867053,150.3405177364314,-27.72012735344978,-19.09335765243085,4
1767650376.8191202,1,left_wrist,0.7671,-0.3797,-0.6178,112.77,88.06,62.79,0.4529563103456296,-0.30139088634653266,-0.8359675753720668,0.07177971490520728,-145.8463959691315,-45.56507585566094,125.64477090842408,4
1767650376.8191202,2,right_wrist,0.6095,0.5656,-0.7954,-25.34,101.08,-5.88,-0.3063457914805103,-0.9020702474925186,0.2028041609199973,-0.22647736519242195,147.00386991277844,-32.19845026939366,-15.569382608591562,4
1767650376.87653,1,left_wrist,0.9692,-0.4314,-0.8091,74.34,93.38,57.89,0.521788456315198,-0.32759298111924284,-0.7805615353425631,0.1055619965767554,-130.52975302334775,-48.194607022373,111.17966402432465,4
1767650376.87653,2,right_wrist,0.773,0.5475,-0.752,-85.33,97.65,-11.06,-0.35046416989578827,-0.8788805952093417,0.19400184565865022,-0.25905028250277334,140.26319261695411,-36.25144058288403,-11.402643579761175,4
1767650376.927105,1,left_wrist,0.9248,-0.1737,-0.7081,53.69,61.81,52.43,0.5460207716383746,-0.3344442055924158,-0.7581980082784455,0.12306165335997168,-124.08664513925085,-48.216611177955826,105.67421357930377,4
1767650376.927105,2,right_wrist,0.7715,0.5563,-0.6895,-46.34,77.21,-14.91,-0.3755593060514811,-0.862239818565722,0.1830537557317659,-0.28633725819455574,135.58081302823618,-39.1444633393364,-7.4529661101979965,4
1767650377.0201101,1,left_wrist,0.8755,-0.5563,-0.6041,50.96,68.25,36.68,0.5709134680131565,-0.33790171971012367,-0.7356709101267626,0.1366329091082844,-117.90401656616504,-48.389108650912874,100.38977442322985,4
1767650377.0201101,2,right_wrist,0.7647,0.5739,-0.5324,-58.1,70.91,-22.75,-0.42869654427500925,-0.8245910361202082,0.16290245073376905,-0.3312577359425717,124.5806982068222,-43.31239312782311,1.2097723858386273,4
1767650378.316462,1,left_wrist,0.3997,-0.0161,-0.5456,-28.7,-62.58,-58.66,0.3184335017250469,-0.17441186889863242,-0.9315289355497968,-0.020843397032958327,-174.8162072221505,-36.90791666165418,157.05948565370755,5
1767650378.316462,2,right_wrist,0.3377,0.2259,-0.649,77.07,-70.0,23.03,-0.04152512035964185,-0.9522748816863993,0.28370515725431694,-0.10468809786969563,178.8429011865648,-12.88209397492781,-33.04943858015527,5
1767650378.368365,1,left_wrist,0.3572,-0.1625,-0.6207,-36.68,-58.17,-47.32,0.2891014781593765,-0.162163024665891,-0.9428582730688216,-0.03379002312743579,-177.92827474497366,-33.788059513200714,159.8529877439804,5
1767650378.368365,2,right_wrist,0.2445,0.1654,-0.7144,89.11,-53.97,20.58,-0.0014292216730130516,-0.9528351003721527,0.2884090287137604,-0.09446407243277447,-176.9829711699377,-10.41879428382867,-33.95570129230709,5
1767650378.420705,1,left_wrist,0.2972,-0.0615,-0.6944,-1.82,-46.83,-37.59,0.26498694830494446,-0.1482225237383141,-0.9521830662123083,-0.03405009696321961,-179.08372683494943,-30.979152395653884,162.0500842093944,5
1767650378.420705,2,right_wrist,0.1791,0.1161,-0.7437,49.56,-52.15,11.48,0.02135270693747027,-0.9533453597975015,0.2906213179564242,-0.0788412100889253,-174.9874575054446,-7.9271968347618476,-34.254555458436734,5
1767650378.483407,1,left_wrist,0.2142,0.0498,-0.7022,-40.95,-36.4,-21.0,0.21935775548291728,-0.13452981485447188,-0.9644144206048478,-0.06073491050568822,176.28980360295716,-26.068467527380896,164.97686215321693,5
1767650378.483407,2,right_wrist,0.1703,-0.0498,-0.7881,32.97,-49.35,11.83,0.038916220227123946,-0.9528548587143557,0.2935109764135675,-0.06636605120416303,-173.46940798956044,-5.948226517512463,-34.580806427666296,5
1767650378.562714,1,left_wrist,0.1171,0.0708,-0.6373,-8.19,-29.89,-9.03,0.20123194137943504,-0.1320903251695377,-0.9685186552071473,-0.06347807716848507,175.61851792037325,-23.989138642999723,165.39870348478516,5
1767650378.562714,2,right_wrist,0.0722,-0.0971,-0.711,6.93,-30.87,1.26,0.061622878514648455,-0.9526906859445585,0.29423041345299333,-0.044850212455862556,-171.7216661378408,-2.819752948870517,-34.52981774927036,5
1767650378.626882,1,left_wrist,0.0864,0.1596,-0.4724,-3.08,-1.54,6.09,0.18452787231993348,-0.1361640089366425,-0.9699404031503092,-0.08139067111159642,173.3172563363605,-22.34155189669238,165.33875292770267,5
1767650378.626882,2,right_wrist,0.0181,-0.0673,-0.5993,17.36,-17.5,-2.45,0.06770328796323678,-0.9531574248640617,0.29256903481644303,-0.03620149295336331,-171.35501467286534,-1.6844906186104718,-34.254778211205426,5
1767650378.67819,1,left_wrist,0.0508,0.1635,-0.4231,18.41,17.36,17.08,0.1896951358286702,-0.1405029454603873,-0.9687509518447041,-0.07613324543113781,174.1310488197134,-22.887848764558292,164.68434823370043,5
1767650378.67819,2,right_wrist,0.0117,-0.1025,-0.5168,-4.97,7.49,-6.79,0.06942313409633473,-0.9536665472694039,0.2900589451700811,-0.03957718279913361,-171.05600856825902,-2.0179888539567217,-33.992259666343514,5
1767650378.733376,1,left_wrist,0.0942,0.2738,-0.4934,18.83,26.53,23.1,0.20021985794422065,-0.14692441762316488,-0.9660161961542335,-0.0716793747084571,174.99516451487872,-24.072617191376285,163.77173923684197,5
1767650378.733376,2,right_wrist,0.0181,-0.0171,-0.4168,-27.16,35.91,-16.24,0.048431027835281464,-0.9560400500956838,0.2847755474510569,-0.050445472837623684,-173.01415826297276,-3.949192009198491,-33.415567811703816,5
1767650378.8235211,1,left_wrist,0.1122,0.0834,-0.3899,62.58,36.19,25.83,0.216075451864899,-0.15042259600698069,-0.9635275426371833,-0.04794910104945898,178.26041031875104,-25.51926494808235,162.64757488501417,5
1767650378.8235211,2,right_wrist,0.1869,0.1137,-0.6261,-43.68,75.46,-32.55,-0.0002784358953346603,-0.9591129776242047,0.262687797955244,-0.1053439102734892,-176.79163401193338,-11.66679151555258,-30.961677176330223,5
1767650378.87639,1,left_wrist,0.2879,-0.0581,-0.2386,138.88,80.85,41.37,0.2981058570980793,-0.15900287976801267,-0.9402126620677118,0.04302478677280309,-167.88531439920018,-33.15348147547932,157.18414642838417,5
1767650378.87639,2,right_wrist,0.3499,0.0156,-0.7998,-77.28,68.32,-39.06,-0.04485704114507685,-0.9588163199915365,0.2491508201124492,-0.12877491687005793,178.69991883783655,-15.622338656451895,-28.95424539886921,5
1767650378.92993,1,left_wrist,0.4104,-0.3558,-0.5124,101.43,107.38,44.87,0.3490130992388327,-0.16686135236487118,-0.9180488859603896,0.08679509567687901,-159.5900828294645,-37.723874417312764,152.35860202346296,5
1767650378.92993,2,right_wrist,0.386,0.2869,-0.7857,-83.02,64.96,-41.44,-0.09321077250255452,-0.9564373660507511,0.23426360490393247,-0.14717295991041535,173.35998473662673,-18.977402714606313,-26.414398033991503,5
1767650379.024448,1,left_wrist,0.7281,-0.2899,-0.8911,62.72,104.44,42.28,0.3922041019534378,-0.17655854068549015,-0.8965077165732263,0.10619292936239788,-153.84698310159436,-41.73831273791197,147.59631776266102,5
1767650379.024448,2,right_wrist,0.6637,0.368,-0.7696,-106.19,78.05,-33.67,-0.19956336906649788,-0.9386734780345454,0.2064939477481422,-0.19085809625149744,160.7578945506129,-26.150092086891892,-20.30408290888138,5
1767650379.111891,1,left_wrist,0.8042,-0.3377,-0.8984,57.05,90.86,54.25,0.4715396001484707,-0.19336337284261387,-0.8439140587103463,0.16754125774202286,-137.0206991114921,-46.97743996784224,134.77157658896746,5
1767650379.111891,2,right_wrist,0.8452,0.6159,-0.7174,-105.42,64.61,-20.93,-0.2903914111840272,-0.9075168212026712,0.18643560376683527,-0.23943227266357323,148.58117253690565,-32.87828702056106,-13.72991564927269,5
1767650379.166398,1,left_wrist,0.8594,-0.3977,-0.6783,21.42,68.04,32.2,0.49418474384432903,-0.20441955481099852,-0.8271536196605381,0.17265854755805726,-132.8222181026952,-48.32633220638367,130.06831135761323,5
1767650379.166398,2,right_wrist,0.5563,0.6564,-0.385,-82.11,80.29,-23.52,-0.3347542342485417,-0.8881735416392232,0.17441230130227137,-0.26204524750347413,141.75860327859326,-35.60922123684254,-9.513605158895626,5
1767650379.233221,1,left_wrist,0.8584,-0.2137,-0.467,12.32,69.44,38.85,0.5389280080330761,-0.24251232595574815,-0.788412800478713,0.1707326271055035,-124.21569183545321,-50.0839956899931,118.0248601467845,5
1767650379.233221,2,right_wrist,0.8594,0.6681,-0.6017,-81.97,92.68,-16.87,-0.37708447453598637,-0.8637768894743174,0.1634697686849544,-0.29150372038805866,134.4558727945174,-38.819732607268094,-4.605533739555892,5
1767650379.3180401,1,left_wrist,0.9043,-0.6324,-0.3982,62.3,88.27,56.14,0.5735327195021604,-0.2531884329332223,-0.7536817701769024,0.19728057783848393,-114.2092951487427,-49.87355208205883,109.38506893603919,5
1767650379.3180401,2,right_wrist,0.8813,0.7989,-0.5412,-39.76,78.26,-11.55,-0.43571148112949865,-0.8199225719459988,0.13837286836564336,-0.3445800785385908,121.73030571700859,-43.285902345010065,5.784323384540053,5
1767650380.462697,1,left_wrist,0.5266,-0.2782,-0.7574,-62.02,-73.85,-42.77,0.3305391764281923,-0.07111267925094777,-0.9385914874727562,0.06879577995490187,-167.14678354518253,-37.63999076685119,166.9375877428523,6
1767650380.462697,2,right_wrist,0.3231,0.3548,-0.6886,60.97,-82.39,21.91,-0.06648648232823295,-0.9583694022266899,0.27021141890878253,-0.06397988460897205,174.60330484038593,-9.123528837018222,-31.060604011975876,6
1767650380.516276,1,left_wrist,0.387,-0.1035,-0.7618,-53.55,-79.03,-37.45,0.2932089167287658,-0.0611218256741665,-0.9531294802585832,0.0428584581967635,-171.88534616222543,-33.62073556292945,170.20628533890147,6
1767650380.516276,2,right_wrist,0.2201,0.2474,-0.7086,89.04,-73.64,20.65,-0.024324848628583296,-0.9592300233543788,0.27790647747161884,-0.045321670468673976,178.76316923226884,-5.766113718000181,-32.252247088268824,6
1767650380.5766551,1,left_wrist,0.1781,-0.0259,-0.6388,-10.99,-54.67,-28.07,0.2308123656447062,-0.043488044403830584,-0.9719430984343521,0.012690755109782159,-177.1319583549431,-26.587831659117647,174.19841241073766,6
1767650380.5766551,2,right_wrist,0.1625,0.2499,-0.712,64.54,-59.57,12.18,0.00556661506883135,-0.9589776881652905,0.28197123971383475,-0.028688436208221663,-178.459052435559,-2.974063259430243,-32.810174272581015,6
1767650380.6702569,1,left_wrist,0.1093,0.06,-0.5563,-79.94,-42.56,-22.12,0.20687491409007375,-0.04146190452095786,-0.9771740459426371,-0.024790408020368186,178.03726213113913,-23.97646191423763,175.5575571804809,6
1767650380.6702569,2,right_wrist,0.0283,-0.0561,-0.6622,59.36,-43.89,10.43,0.05836543506377448,-0.9555854453036611,0.28871457678569723,-0.009686375228947044,-173.27217574283904,0.8703326054952472,-33.571515121162726,6
1767650380.728128,1,left_wrist,0.0054,0.2362,-0.429,-15.47,-14.14,-1.33,0.18330507345679262,-0.04090825006954167,-0.9810090491662194,-0.04844595519997221,175.07010466601974,-21.322160081257994,176.1528768499769,6
1767650380.728128,2,right_wrist,0.0405,0.0029,-0.6803,35.07,-20.72,4.62,0.07079155018458066,-0.9544113591595138,0.28990285643857694,-0.006621764002685696,-172.0086293377941,1.6277383179534683,-33.67865510917969,6
1767650380.816965,1,left_wrist,0.0156,0.0952,-0.3509,14.7,15.47,8.26,0.18603618995228874,-0.042331737985355694,-0.9806418982565854,-0.04404574180208314,175.64212161093425,-21.62922945951718,175.88930088848076,6
1767650380.816965,2,right_wrist,-0.0942,-0.1244,-0.4616,13.79,-12.04,-6.16,0.08607740210743088,-0.9538950319753841,0.2874194950739728,0.008061182949121474,-170.79772054559248,3.718797065706637,-33.23692501680879,6
1767650380.871008,1,left_wrist,0.0,0.1654,-0.5144,-0.28,35.84,18.27,0.19757477115802677,-0.048850250516646355,-0.9779951529540861,-0.04586222437505422,175.61315349524406,-23.01269653356859,175.17441444017004,6
1767650380.871008,2,right_wrist,-0.0283,0.0176,-0.4651,-24.78,29.54,-9.24,0.06727940982533243,-0.9562235101276424,0.28479828250490036,-0.00013407082005340948,-172.59754715888675,2.181532006717131,-33.029769652512456,6
1767650380.928051,1,left_wrist,0.1088,0.0708,-0.4846,65.94,46.55,27.44,0.23077579240490242,-0.056520661000124255,-0.9713638988577482,0.00035286806743948314,-178.28368048721327,-26.634323530991196,172.93348908230547,6
1767650380.928051,2,right_wrist,0.0542,-0.0083,-0.5388,-59.92,52.99,-17.85,0.03153700423072672,-0.9597255970911275,0.2785754752477927,-0.018108015979011,-175.94965046317068,-0.9847670401657768,-32.40722980079865,6
1767650381.02279,1,left_wrist,0.3392,0.0693,-0.5861,67.41,54.25,28.7,0.25701304492160176,-0.06081966992870786,-0.964137148048573,0.026169108556727497,-174.61219260006493,-29.49900564414106,171.36148952279254,6
1767650381.02279,2,right_wrist,0.1283,0.2664,-0.6583,-121.45,69.58,-26.6,-0.07431705328844065,-0.9623715122683214,0.2563416803245605,-0.05105870046611457,173.22524623894742,-7.838194491805126,-29.365849194586694,6
1767650381.086071,1,left_wrist,0.5402,-0.164,-0.8047,35.0,84.84,33.53,0.3280722669517247,-0.07884034904567801,-0.9375553869669596,0.08451439752341883,-164.73925395927498,-37.002190320224884,165.25298617979516,6
1767650381.086071,2,right_wrist,0.3201,0.3289,-0.8203,-54.46,103.74,-18.48,-0.11307687246821391,-0.9584812774494974,0.24586708973584323,-0.08987010557695924,169.79124187938,-13.172372355372422,-27.592519433861348,6
1767650381.173268,1,left_wrist,0.7066,-0.2425,-0.8662,49.91,74.9,44.45,0.36241814463041366,-0.09221562377747955,-0.9210171632819552,0.10898051254256096,-159.44361523325892,-40.35241818836301,160.94038369033223,6
1767650381.173268,2,right_wrist,0.5651,0.55,-0.9755,-74.9,76.37,-15.75,-0.20588842144516853,-0.9400921992925171,0.23006452858212045,-0.144592279989153,159.84472041862338,-21.50579901810897,-23.63677001199165,6
1767650381.2309198,1,left_wrist,0.6476,-0.1542,-0.7296,50.68,68.88,37.38,0.41505204097734955,-0.11120229146724947,-0.8876889547080062,0.1654514229082865,-147.27326583168175,-44.43318767283974,152.0423665212156,6
1767650381.2309198,2,right_wrist,0.5627,0.4543,-0.8804,-76.23,82.6,-15.96,-0.24917712332711822,-0.927216622954635,0.22045755319409507,-0.17198419278147914,154.68759062544092,-25.391376104993633,-20.956882265600047,6
1767650381.3119302,1,left_wrist,0.8633,-0.3079,-0.6969,62.37,63.56,33.18,0.4412310786126979,-0.11507896575780892,-0.8698785911514628,0.18810423589790415,-141.5402313773578,-46.414075672344254,147.91608436247955,6
1767650381.3119302,2,right_wrist,0.7335,0.6539,-0.8028,-58.45,68.67,-16.03,-0.315284434481189,-0.9015493325303843,0.20148160712894858,-0.21727790586396817,145.76606791176863,-31.25323528676864,-15.348788047844197,6
1767650381.3690538,1,left_wrist,0.795,-0.4294,-0.7169,49.84,63.98,36.96,0.46192402208608446,-0.12434089981720811,-0.8530618568355469,0.20844905100467678,-135.9482989030298,-47.41396492259467,143.26774865737525,6
1767650381.3690538,2,right_wrist,0.6525,0.5075,-0.5602,-92.89,44.38,-27.3,-0.3600274322231258,-0.8843802640813323,0.19339899274055247,-0.22549639943288535,139.30517151174755,-32.55486797071126,-12.310325825462945,6
1767650381.4290628,1,left_wrist,0.7276,-0.4846,-0.5363,56.21,62.02,17.99,0.49985447581797293,-0.12933728564641186,-0.8192112377360464,0.2496203467534903,-124.91136741590131,-48.97317767616414,135.33193143030138,6
1767650381.4290628,2,right_wrist,0.6837,0.7618,-0.5534,-64.12,59.57,-6.79,-0.3933399353269337,-0.866759632185772,0.1869227688740109,-0.2430459087634723,134.08525822348065,-34.63685791970877,-9.290965944366677,6
1767650381.5191,1,left_wrist,0.7637,-0.4626,-0.5627,68.25,58.31,24.15,0.5192116931353118,-0.12893217059671205,-0.7994274585183596,0.2733339562946024,-118.61134370356368,-49.434329258330486,131.11025411505935,6
1767650381.5191,2,right_wrist,0.8154,0.7735,-0.508,-45.99,54.18,-7.0,-0.44759027703729254,-0.8316527562060494,0.17063525439321225,-0.2808918776944694,124.24373821458006,-38.313094504053176,-2.3643724297784865,6
1767650382.916332,1,left_wrist,0.3933,-0.081,-0.6632,-49.7,-44.73,-34.51,0.30423052384014226,-0.007260419831346115,-0.9512074471838744,0.05094572690385562,-172.8662389717476,-35.312306272423754,176.85205792978678,7
1767650382.916332,2,right_wrist,0.4197,0.3523,-0.7798,57.33,-57.54,23.03,-0.10093304213219506,-0.9493381487547705,0.2578339719581975,-0.14863123234726036,172.99173900753976,-19.52696964918139,-29.181866486204363,7
1767650382.9830148,1,left_wrist,0.2918,0.1303,-0.6969,-45.57,-43.26,-26.6,0.2587693255752017,0.006548093946728184,-0.9659087919461674,-0.00397042165461489,179.26839759848363,-29.989622499209162,-179.02720846788503,7
1767650382.9830148,2,right_wrist,0.3372,0.1469,-0.8369,53.55,-55.65,14.63,-0.07569319519973998,-0.9526700964786279,0.26214625423217575,-0.1340506205427464,175.56168530595397,-17.16337861550868,-30.100506600608156,7
1767650383.06774,1,left_wrist,0.246,0.0942,-0.6695,-33.88,-31.43,-24.92,0.24165680989824592,0.013918923415000518,-0.9699680767287561,-0.023878440650271594,176.55821203297023,-27.913242213778542,-177.50012971412238,7
1767650383.06774,2,right_wrist,0.265,0.0937,-0.8316,43.26,-49.0,12.04,-0.0317062392358599,-0.9566299196934801,0.2702907416567312,-0.10390777697274863,179.73642757665695,-12.470820678731178,-31.52592062151445,7
1767650383.12554,1,left_wrist,0.2015,0.2303,-0.693,-28.91,-24.5,-19.04,0.21474467396891592,0.02637250330911768,-0.9746903508731485,-0.05628442045515935,172.35194758773295,-24.560282016651502,-175.23308934591134,7
1767650383.12554,2,right_wrist,0.2201,0.0268,-0.7232,31.15,-48.3,10.22,-0.015431198309009204,-0.9574181848824255,0.2734480079604522,-0.09131530166215361,-178.8114181114509,-10.561633912664384,-31.989584985138453,7
1767650383.214082,1,left_wrist,0.1186,0.2625,-0.6017,4.48,-13.65,-10.85,0.20568629858653031,0.032092771577908526,-0.9762886068110194,-0.05936123985581652,171.91027939735355,-23.44123268904568,-174.5534675803471,7
1767650383.214082,2,right_wrist,0.1249,0.0283,-0.6978,11.27,-17.36,4.97,0.006559628046807035,-0.9581783857900231,0.2755597052304242,-0.07692854566436871,-176.8158814500528,-8.268224527469192,-32.31930607333955,7
1767650383.2741692,1,left_wrist,0.0503,0.1942,-0.4856,3.99,5.81,5.18,0.1964881346053849,0.033666869820328925,-0.9774532311450089,-0.06959982586170012,170.7142920969685,-22.29834952349158,-174.2207093384682,7
1767650383.2741692,2,right_wrist,0.0517,-0.0703,-0.6217,11.76,-9.1,0.49,0.016857242992232655,-0.9583964569019429,0.27570574477343823,-0.07196114962552502,-175.83693877785004,-7.390972299735735,-32.36730432045458,7
1767650383.330435,1,left_wrist,0.1205,0.2503,-0.55,16.31,22.12,11.48,0.20357919577131672,0.031840438511580554,-0.9763514115836511,-0.06541879411229023,171.1965315730318,-23.163963981373726,-174.45668762164698,7
1767650383.330435,2,right_wrist,0.124,0.0654,-0.6012,1.82,9.24,-3.15,0.011526525199471931,-0.9585855611456746,0.27405421430942345,-0.07664951923595179,-176.2872654431005,-8.084445577670316,-32.17233011317884,7
1767650383.416151,1,left_wrist,0.1381,0.2367,-0.5768,46.13,22.82,17.92,0.21046096427968894,0.029971552991394403,-0.9759708502836987,-0.04784127843465028,173.33300392201954,-24.075480401655767,-175.0588214937049,7
1767650383.416151,2,right_wrist,0.0927,0.0142,-0.6188,-51.38,30.66,-15.54,-0.03986995460674646,-0.9587627429408464,0.2663406170701506,-0.0908133534613251,178.35946637680996,-11.266624820056519,-30.888348782192256,7
1767650383.469513,1,left_wrist,0.3172,0.1742,-0.6407,66.99,19.04,20.3,0.21929415982463765,0.028748351676758696,-0.9749956297842842,-0.02161308965008732,176.52964191173524,-25.23798173364075,-175.8450249296492,7
1767650383.469513,2,right_wrist,0.2752,0.2176,-0.7286,-46.83,37.03,-13.44,-0.06869382114676181,-0.9573736776246045,0.261379597705766,-0.1019681628302124,175.38820738804938,-13.36499831853707,-30.000550323130994,7
1767650383.5293498,1,left_wrist,0.2606,0.0893,-0.6866,75.95,39.9,28.35,0.24172569942277555,0.01734893408531466,-0.9688071095219376,0.05177340306008232,-174.02120910252702,-28.045175000500077,-179.44262392910883,7
1767650383.5293498,2,right_wrist,0.2503,0.2391,-0.7852,-78.82,47.04,-22.12,-0.11257961426093734,-0.954213295043921,0.2534218918251267,-0.11216132469820052,170.55217438829388,-15.730443997909441,-28.438705088258576,7
1767650383.615166,1,left_wrist,0.4934,-0.1259,-0.7647,56.56,73.99,31.71,0.27525059993224604,0.007818861664051555,-0.9578520355575879,0.08182573322251571,-169.65422923522453,-31.909444029448892,177.97022323056692,7
1767650383.615166,2,right_wrist,0.5202,0.3299,-0.8115,-75.04,54.67,-23.24,-0.18271205654666486,-0.9436959398803233,0.23275324738754022,-0.14791958381646436,162.76155910607264,-21.360564429137472,-24.434881793615386,7
1767650383.671079,1,left_wrist,0.4158,0.0927,-0.6861,91.7,65.24,32.69,0.3006191066388526,0.004200976956649359,-0.9462302664536298,0.1194101644055509,-164.2203475172285,-34.74416432379103,175.5438154813736,7
1767650383.671079,2,right_wrist,0.466,0.2113,-0.7574,-77.42,65.59,-19.32,-0.22247738351055413,-0.9333183125958592,0.224917287385751,-0.16980269442665324,158.10701222987203,-24.64772147473857,-22.25917731564014,7
1767650383.730602,1,left_wrist,0.6163,-0.0683,-0.7271,67.06,95.62,31.08,0.36769970043229305,-0.021725837424821388,-0.9173460924994561,0.15100021478849496,-156.81013095403955,-41.917091383787884,168.29927883919146,7
1767650383.730602,2,right_wrist,0.5524,0.3157,-0.7222,-19.46,67.69,-3.92,-0.23839789777538203,-0.9251114559001683,0.2185040792046426,-0.1989753850843885,156.31064852018912,-28.185690252074977,-20.5506923877422,7
1767650383.816465,1,left_wrist,0.6373,-0.1322,-0.713,104.02,85.54,38.99,0.3989170520189701,-0.024626271641051217,-0.8960374072815409,0.1933279522100446,-148.90327336571315,-44.85922600461229,163.74821500801085,7
1767650383.816465,2,right_wrist,0.6559,0.6895,-0.6964,-76.02,71.05,-15.4,-0.3064447856902634,-0.8969775528328676,0.20425063530332999,-0.2445496698329295,146.99496959691237,-34.32553868174989,-15.20045819934264,7
1767650383.869237,1,left_wrist,0.7788,-0.1791,-0.8164,35.7,74.48,18.97,0.4253678481587912,-0.030561446389882615,-0.8808336453580593,0.20557305502558113,-144.96435677139272,-47.45880500416244,160.22702572700192,7
1767650383.869237,2,right_wrist,0.6769,0.4709,-0.6964,-59.85,73.36,-10.99,-0.3381834526495524,-0.879706593891293,0.19703222227460065,-0.2700491888596225,142.0020939407739,-37.473481979201175,-11.926406760342593,7
1767650383.9266481,1,left_wrist,0.7535,-0.246,-0.6749,50.75,49.35,36.19,0.46349351760021823,-0.04089280838950264,-0.8436298781280284,0.26793686960603863,-131.05514699565063,-49.47482887820894,150.76278525888605,7
1767650383.9266481,2,right_wrist,0.7276,0.6529,-0.6305,-35.07,56.91,-14.7,-0.36154585411983453,-0.867213322822544,0.18597155655296577,-0.2874721347211037,137.78217953307694,-39.27726931842887,-8.520005551161601,7
1767650384.020364,1,left_wrist,0.7715,-0.5714,-0.5036,50.12,56.77,43.12,0.47639047382429994,-0.05518731099548238,-0.826314451808336,0.29531492323828834,-124.50860144280706,-48.99928502566756,145.3967943448386,7
1767650384.020364,2,right_wrist,0.6686,0.6622,-0.5026,-39.41,56.84,-25.69,-0.4155613411962875,-0.8386302611971621,0.16135979281990984,-0.3130033130314089,127.58186223187703,-41.231108551552296,-0.7998399580420905,7
1767650384.073429,1,left_wrist,0.814,-0.49,-0.4929,31.08,62.79,38.15,0.5105988687398293,-0.07928181927290626,-0.7889134314385244,0.33259402590888115,-113.01758254232419,-48.84215157188327,135.07812624771944,7
1767650384.073429,2,right_wrist,0.7686,0.6974,-0.4641,-25.06,56.14,-25.41,-0.43454150661810736,-0.8258716653084484,0.14476046967081474,-0.32886787299370057,123.11372305534927,-41.99102434926454,3.6028819094934974,7
1767650385.276993,1,left_wrist,0.4372,-0.1054,-0.6964,-69.37,-52.92,-48.58,0.2901777763609567,0.09617872066735747,-0.9470796449595339,0.0979114799210193,-170.93346071173136,-34.64408577821633,-171.2357267476056,8
1767650385.276993,2,right_wrist,0.4094,0.3567,-0.7203,65.31,-69.3,31.36,-0.09853162225480089,-0.9501593872969936,0.25989280895157674,-0.14122459418422229,173.10009219034814,-18.637954347759845,-29.461772927885903,8
1767650385.328758,1,left_wrist,0.3406,-0.0586,-0.6891,-57.05,-45.36,-37.03,0.24914556438165694,0.11890806628990871,-0.960406246677262,0.037512676036702136,-179.15976043565112,-29.175282410183307,-166.10290924886638,8
1767650385.328758,2,right_wrist,0.3421,0.1825,-0.8237,51.17,-60.41,28.07,-0.07297429976521665,-0.9518962699793616,0.2702335571634666,-0.12466782807097414,175.7299230204447,-16.06823137517951,-31.094410908198256,8
1767650385.3810902,1,left_wrist,0.2567,0.0547,-0.6481,-35.7,-39.2,-32.2,0.2315168648958748,0.12987480913060032,-0.9640223141156239,0.013908742187297443,177.8617587852874,-26.742890831776098,-164.1460852254229,8
1767650385.3810902,2,right_wrist,0.2538,0.1542,-0.812,75.04,-63.63,28.0,-0.037513748276374353,-0.9535552126687649,0.2788947373401771,-0.10743789166973183,179.31683919456847,-13.051142794412534,-32.52801785850419,8
1767650385.466845,1,left_wrist,0.1903,0.1889,-0.6637,-31.99,-25.34,-23.73,0.22026813749504237,0.13777365864224866,-0.9656309406409135,-0.007566575562232326,175.23195399552785,-25.043770846713475,-162.70044442830633,8
1767650385.466845,2,right_wrist,0.1693,-0.0015,-0.7652,42.35,-56.14,14.28,0.010692865385080734,-0.9537658296254602,0.2899463652513088,-0.07840605937214924,-176.1840576369197,-8.242398681546202,-34.0937649113107,8
1767650385.519839,1,left_wrist,0.163,0.0464,-0.651,-71.4,-27.51,-19.88,0.2080645151148545,0.13939406178519415,-0.9672365720747121,-0.04161570292817303,171.34505654285113,-23.010091634005995,-161.8335947758456,8
1767650385.519839,2,right_wrist,0.1098,0.0039,-0.713,63.63,-49.42,13.37,0.03895574117871929,-0.9532208993062077,0.2926324556148668,-0.06495085277264619,-173.5199237092779,-5.798231683060001,-34.46078926021933,8
1767650385.58037,1,left_wrist,0.0898,0.2542,-0.5612,-11.48,-14.84,-4.62,0.1898957479651597,0.14423242892702587,-0.9692604025536594,-0.06058781554141887,169.402700648718,-20.52642881601593,-161.14809064448434,8
1767650385.58037,2,right_wrist,0.0805,-0.0415,-0.6466,23.17,-33.81,7.7,0.04817953896813629,-0.9529529214676712,0.29428648171161625,-0.054359251032798914,-172.86705290607784,-4.315382296774269,-34.59207354473232,8
1767650385.632291,1,left_wrist,0.0508,0.3943,-0.5231,20.72,-2.1,0.14,0.18634327667215436,0.14671379662287193,-0.9698491364237463,-0.05607047081754641,169.97202951169783,-20.18161926605533,-161.0066032624634,8
1767650385.632291,2,right_wrist,-0.0356,-0.1074,-0.5309,16.24,-15.82,-0.91,0.06046278639326802,-0.9529131197612347,0.293506335831236,-0.04642056091210606,-171.7969636581538,-3.0367859380978564,-34.45647474002961,8
1767650385.7156138,1,left_wrist,-0.0146,0.2064,-0.4543,12.67,7.35,7.14,0.1854567833059354,0.14578592076031743,-0.9703313888401978,-0.05300228924617036,170.3770612124677,-20.148536671946367,-161.19763757221216,8
1767650385.7156138,2,right_wrist,0.0425,-0.1274,-0.569,-21.91,22.05,-8.26,0.05467062086351722,-0.9540510519781205,0.28970728397822454,-0.053548137631477644,-172.20198275227443,-4.0426118557743385,-34.05853189196769,8
1767650385.766492,1,left_wrist,0.0786,0.3128,-0.4992,9.87,23.94,14.56,0.19402126264805428,0.1418384605299692,-0.9693776610840408,-0.05044354216525265,170.56394991463637,-21.21385973946923,-161.58025506280242,8
1767650385.766492,2,right_wrist,0.0669,-0.0493,-0.6656,-43.4,40.74,-13.23,0.026204135860515898,-0.9556464413135539,0.28582155478578075,-0.06602470210748713,-174.9298958729665,-6.385251885009645,-33.585487212620265,8
1767650385.8200479,1,left_wrist,0.1225,0.1474,-0.5797,43.68,34.58,21.98,0.20244844371113202,0.137830195809376,-0.9690533034819129,-0.030873285748056537,172.80557146051382,-22.572745402344072,-162.37240385828036,8
1767650385.8200479,2,right_wrist,0.101,0.0381,-0.6915,-52.01,43.12,-22.26,-0.006472871783520995,-0.9574065200010515,0.2780873542787643,-0.07744856861548446,-178.2212077063278,-8.737025884607194,-32.52872900464252,8
1767650385.883919,1,left_wrist,0.1903,-0.0595,-0.5329,74.62,57.54,32.97,0.2312708104174394,0.12528770385769383,-0.9640759889567944,0.03707143142510986,-179.12940704191942,-27.078733783505957,-165.4007528373573,8
1767650385.883919,2,right_wrist,0.2757,0.0752,-0.7315,-55.16,56.35,-25.55,-0.04070213924644902,-0.9574646438351583,0.2685668485687933,-0.09734803293443053,178.49707433859626,-12.021404394247991,-31.179139578304184,8
1767650385.963966,1,left_wrist,0.4211,0.122,-0.5012,68.39,59.5,42.98,0.2551117083956932,0.11359049749863828,-0.9575777621066146,0.07113399072405863,-174.79763083587162,-30.31402072971005,-167.880220025635,8
1767650385.963966,2,right_wrist,0.2777,0.1464,-0.7017,-66.5,89.11,-34.37,-0.1367693754482846,-0.9490057853029468,0.24291084328883644,-0.14722934358927767,168.43764107143377,-20.236044147521852,-26.64461993708708,8
1767650386.0174952,1,left_wrist,0.4168,-0.242,-0.6442,79.24,84.77,44.66,0.2849758026824152,0.09970965113932065,-0.946027388648956,0.11780898641965054,-168.410912150696,-34.24156378559997,-171.5476008193114,8
1767650386.0174952,2,right_wrist,0.6134,0.3421,-0.6905,-110.46,94.71,-25.9,-0.1966316708341567,-0.9360894846963109,0.23284456682783697,-0.17565839110250264,161.60454637951895,-24.861938848554836,-23.848360004522007,8
1767650386.077537,1,left_wrist,0.6578,-0.2235,-0.5929,53.62,78.4,21.35,0.34543058716756975,0.08654020393290883,-0.9127255803919466,0.20030106702287623,-155.81766623827383,-41.700345479819916,-178.49615550715217,8
1767650386.077537,2,right_wrist,0.5583,0.4851,-0.6368,-105.91,77.0,-18.9,-0.25223269470226034,-0.9203289430172373,0.22567595623885797,-0.19607056674495574,154.72523445490464,-28.34271862116925,-21.074862021764748,8
1767650386.138033,1,left_wrist,0.8335,-0.5212,-0.7935,100.38,101.36,35.56,0.37834430593134444,0.07687815156378504,-0.8870705286013103,0.2530834116817163,-146.28101798626736,-45.247067069383206,175.51033128694746,8
1767650386.138033,2,right_wrist,0.6783,0.5963,-0.8501,-106.33,78.05,-18.48,-0.3072179160374336,-0.9008234147944785,0.21774094758687973,-0.21615551616278314,147.3817693839707,-31.548743143143575,-17.727034161185944,8
1767650386.21922,1,left_wrist,0.9004,-0.3411,-0.7623,65.8,97.65,54.46,0.40806130207946434,0.05791630230801326,-0.8650293890846764,0.28610458173886383,-138.34303536056424,-47.65567984314698,168.58621144456598,8
1767650386.21922,2,right_wrist,0.6974,0.5129,-0.7013,-72.73,70.56,-18.76,-0.3843989125483179,-0.8612297832630641,0.19936101243749585,-0.2660374469359967,135.35261594554274,-37.698553042853085,-10.107743974748844,8
1767650386.2759738,1,left_wrist,0.8408,-0.4778,-0.6027,56.7,84.35,38.92,0.45750270572318597,0.024323553206887245,-0.8192050464495195,0.3449677244134534,-122.31079080391481,-50.02802276678146,154.57611131049615,8
1767650386.2759738,2,right_wrist,0.7442,0.7159,-0.5305,-52.64,73.08,-11.9,-0.4146387464665966,-0.8425253259646001,0.18780888579667107,-0.28801667912234996,129.6998322936291,-39.87153173197741,-5.804702500227597,8
1767650386.3265972,1,left_wrist,0.8276,-0.2157,-0.5275,52.71,84.63,47.53,0.47960160171587396,0.0074016120450505814,-0.7956916776297595,0.36986791415509584,-114.61039793164076,-50.237762819983786,147.5699532200772,8
1767650386.3265972,2,right_wrist,0.7232,0.7574,-0.4455,-80.71,78.12,-22.12,-0.45622313213283533,-0.8172144411158313,0.1741357545523259,-0.30610088194112917,121.80599841228398,-41.23809945982078,-0.4047359343486073,8
1767650387.463479,1,left_wrist,0.4982,-0.2279,-0.6788,-55.72,-86.8,-49.49,0.3194905765189658,0.19231856203306633,-0.9150601204902813,0.15363696853760242,-168.0617257679653,-40.07581197355938,-160.62956754208236,9
1767650387.463479,2,right_wrist,0.4451,0.4753,-0.6895,61.25,-90.02,2.24,-0.13699570211915874,-0.9429420809711199,0.27724548085875456,-0.12339916076753049,168.48141798935708,-17.979663110188145,-30.94069047839458,9
1767650387.515276,1,left_wrist,0.3567,-0.2494,-0.5212,-46.9,-73.22,-40.04,0.2935906259900044,0.2049263912421078,-0.9250816121993871,0.12662436287644854,-171.8488656927466,-36.51890044706811,-157.71218549525324,9
1767650387.515276,2,right_wrist,0.3523,0.5031,-0.6076,25.2,-86.17,3.29,-0.11982748587450552,-0.9476333062257504,0.2816082008639901,-0.0912650632322963,169.5711602887766,-13.913717054275923,-31.82473836470556,9
1767650387.5735092,1,left_wrist,0.2865,-0.0366,-0.5807,-51.66,-59.08,-33.53,0.2723157691245138,0.21542552104694357,-0.9330704088923321,0.09389131385423277,-176.0298114496936,-33.27326386873309,-155.18568376701182,9
1767650387.5735092,2,right_wrist,0.1981,0.1191,-0.5988,40.88,-66.92,-4.41,-0.09686152630443712,-0.9518552961330501,0.28165369371254767,-0.07252955786103246,171.58860828932492,-11.106780938739737,-32.14764476003035,9
1767650387.6284459,1,left_wrist,0.2372,0.1859,-0.7442,-34.37,-39.2,-21.14,0.2425636596015021,0.2291526852873646,-0.941757628179896,0.04176706395347227,177.88217088499638,-28.425419590614712,-152.11214664705744,9
1767650387.6284459,2,right_wrist,0.1864,0.162,-0.8072,62.51,-48.93,6.23,-0.06924892477891287,-0.9544004320000075,0.28384107742598674,-0.06130778564602216,174.34193987772304,-8.994272604730465,-32.67984491020356,9
1767650387.6844642,1,left_wrist,0.2176,0.162,-0.6798,-33.32,-35.0,-15.54,0.2292683699338661,0.2336622406394552,-0.9447148540727576,0.018756767885368755,175.415276967755,-26.22849072229292,-151.14633965904451,9
1767650387.6844642,2,right_wrist,0.2054,0.2611,-0.854,29.26,-44.8,2.31,-0.05610257022077575,-0.9557542434074726,0.28496926229510383,-0.046678125178897134,175.34040008084466,-6.961400472234393,-32.92155165643537,9
1767650387.766923,1,left_wrist,0.1327,0.2094,-0.6364,-14.56,-30.52,-13.09,0.21565952626358062,0.2388605617875414,-0.9467940102545381,0.004207481483923004,174.01662421717464,-24.2287267782791,-150.39595381770613,9
1767650387.766923,2,right_wrist,0.0815,0.0908,-0.693,17.29,-50.82,-1.75,-0.021598333693923336,-0.9578492544147452,0.2858063331319161,-0.019314702701592922,178.2595237337762,-2.828525215351016,-33.18548859652234,9
1767650387.820092,1,left_wrist,0.0205,0.2269,-0.5178,-3.01,-24.15,-3.85,0.20328990426800272,0.24116695528717344,-0.9489451218554262,-0.0038561907384326486,173.4471504269727,-22.5793122310725,-150.17168645451162,9
1767650387.820092,2,right_wrist,-0.0093,0.0132,-0.5485,26.53,-22.82,-3.15,-0.005815621448678086,-0.958649770449323,0.28440444332721315,-0.008420735143919304,179.63549879935917,-1.1146479027389784,-33.04473977026822,9
1767650387.8732858,1,left_wrist,0.1015,0.1078,-0.5436,24.64,6.02,8.4,0.1961006131444903,0.24063143816326427,-0.9505927804542812,-0.0037981890464917393,173.71899845264144,-21.77703944231885,-150.37990398732833,9
1767650387.8732858,2,right_wrist,-0.0098,0.0727,-0.5202,5.53,-1.75,-2.59,-0.0074706158656067416,-0.9589989688333216,0.2832536830652844,-0.0057025174410911435,179.36403903534787,-0.8691859971736974,-32.90565299393206,9
1767650387.932501,1,left_wrist,0.0317,0.1283,-0.4392,31.57,23.31,18.41,0.19903326737190577,0.23656144729605671,-0.950961383667311,0.009843114649946569,175.31477034939638,-22.53221966646213,-151.1274344029224,9
1767650387.932501,2,right_wrist,0.0015,-0.0024,-0.5475,-17.57,26.81,-2.03,-0.013514995152406378,-0.9591235819984874,0.28237264826674596,-0.012844721532439133,178.92960471155865,-1.8493636607103616,-32.79231363219081,9
1767650388.022342,1,left_wrist,0.1049,0.1552,-0.528,46.41,36.47,29.19,0.2067789871892194,0.2291990492624753,-0.9506525016290309,0.03114590535918803,177.7678513732768,-24.043314327005266,-152.4143528290284,9
1767650388.022342,2,right_wrist,0.1503,0.1352,-0.4982,-62.93,57.68,-12.11,-0.07138035059181383,-0.958450871702437,0.27320177629203385,-0.04046679519193266,173.36722202190973,-6.694381643751246,-31.43153205686982,9
1767650388.0776331,1,left_wrist,0.2303,0.0254,-0.4592,159.39,29.61,44.24,0.21059306530974453,0.21633775551943266,-0.9455131158306856,0.12187487096365737,-171.01779622004705,-26.80588914944388,-156.36909928016914,9
1767650388.0776331,2,right_wrist,0.1918,0.3553,-0.488,-80.43,69.79,-20.72,-0.11772621817519115,-0.9556507489460228,0.26320359037354224,-0.05996710437856385,168.66578624628184,-10.17103326944363,-29.785108828693303,9
1767650388.1663659,1,left_wrist,0.1859,-0.4011,-0.4768,72.24,85.89,50.26,0.2345166360086115,0.19625948630251047,-0.9371350132089086,0.16811343934801226,-165.01875844051597,-30.36688764419085,-160.4308114919082,9
1767650388.1663659,2,right_wrist,0.4978,0.4821,-0.8379,-75.88,100.94,-9.17,-0.22058589849979537,-0.9381349779832545,0.24216185325363201,-0.11225979376501079,157.72078635620056,-18.509667258942546,-25.272232544273276,9
1767650388.227419,1,left_wrist,0.5339,-0.3538,-0.7496,59.43,90.16,53.48,0.2947732759139767,0.15194984379881277,-0.914471291516113,0.23186681040914758,-155.0420855481349,-37.55969319303088,-169.73882886673292,9
1767650388.227419,2,right_wrist,0.5129,0.608,-0.815,-96.32,100.73,-12.39,-0.27441502232637316,-0.9222899107827752,0.23128570205420856,-0.14347348192334494,151.44614638498035,-23.0531482689146,-22.214473806838214,9
1767650388.281899,1,left_wrist,0.7227,-0.061,-0.73,84.49,82.67,40.53,0.32007183462848127,0.13992265967387313,-0.896632847985134,0.27207573559840853,-148.383239344137,-40.55011929550857,-174.20268501139716,9
1767650388.281899,2,right_wrist,0.67,0.5758,-0.8428,-67.27,91.84,-8.61,-0.3130975519278821,-0.9067779912967266,0.2210170575664244,-0.1757129982139072,146.5588672853811,-27.197889081610477,-19.08348433889864,9
1767650388.332591,1,left_wrist,0.67,-0.3758,-0.7564,33.6,87.78,37.59,0.3456858981796822,0.1203022781245083,-0.8835358612490964,0.29222081302429026,-143.72242785243628,-42.93446843881924,-179.17437953146418,9
1767650388.332591,2,right_wrist,0.6573,0.5841,-0.7203,-82.18,78.4,-7.0,-0.35544900317117484,-0.8874926701248511,0.21382552363833215,-0.20072720807123628,140.73274164887272,-30.550393019360467,-15.963081787999668,9
1767650388.416358,1,left_wrist,0.7832,-0.2147,-0.6578,114.66,83.72,28.77,0.3693580131456923,0.11784993788248056,-0.8566141758554447,0.3404382528295832,-134.9515812516669,-45.48246229579997,175.94469025182124,9
1767650388.416358,2,right_wrist,0.6681,0.5876,-0.5734,-60.2,79.31,-10.64,-0.42098430317333474,-0.8487576609433863,0.19380235425567982,-0.2546041966593037,129.94873346506387,-36.53901469351068,-8.201316664065796,9
1767650388.469186,1,left_wrist,0.8164,-0.4846,-0.5627,20.51,96.6,36.05,0.40053155256040596,0.09569944420775997,-0.8393973968805809,0.3547225703165518,-129.486179453394,-47.757300319175584,169.41473952215924,9
1767650388.469186,2,right_wrist,0.7437,0.8779,-0.5109,-24.15,86.03,-6.58,-0.4408777973836581,-0.8330979909760029,0.17687309016857666,-0.2833556337539458,125.39169374103818,-38.90896754294355,-3.304548052406257,9
1767650388.5254579,1,left_wrist,0.8467,-0.5783,-0.4636,15.19,101.71,35.28,0.45651034246303046,0.05748909918549246,-0.7978861540296542,0.38944960637660697,-116.19024702977858,-50.64797506815385,155.41198957422142,9
1767650388.5254579,2,right_wrist,0.7042,0.7549,-0.386,-57.4,88.13,-14.0,-0.4727320060165671,-0.8094491834884815,0.16082977115230812,-0.30895024607285737,118.53844950942788,-40.70902466219205,2.3993354697634337,9
1767650389.681948,1,left_wrist,0.4138,0.0068,-0.7642,-39.69,-73.22,-41.44,0.271379490694178,0.28211668413476765,-0.913521272172744,0.11064462865979247,-176.61202025526842,-33.93494724861111,-146.71016278658038,10
1767650389.681948,2,right_wrist,0.4275,0.2279,-0.7276,53.34,-85.54,21.0,-0.08687976827049528,-0.9468922144758237,0.2881068899506277,-0.11332016587224263,174.09355371011182,-15.347064949527828,-33.049922886816894,10
1767650389.764977,1,left_wrist,0.3523,-0.0176,-0.6588,-45.36,-69.86,-37.8,0.2470629288466801,0.2954757169023555,-0.9196177953065308,0.07718238442996433,179.7323408377093,-30.00118906472008,-144.30356953076029,10
1767650389.764977,2,right_wrist,0.2489,0.2899,-0.7574,46.2,-62.16,16.03,-0.02519993544223788,-0.950759379842927,0.3006654919111635,-0.07086484931344894,179.69257524572888,-8.621383100196416,-35.07461172174186,10
1767650389.818872,1,left_wrist,0.1869,0.0615,-0.7462,0.91,-63.98,-31.99,0.21828722322941493,0.31105260080196623,-0.9228208875828818,0.06323430358489393,178.7804266049548,-26.24551013943314,-142.46113341090705,10
1767650389.818872,2,right_wrist,0.1635,-0.001,-0.7091,27.86,-67.9,8.26,-0.0055135602498282265,-0.951347719538385,0.3037942360267386,-0.05114860056165901,-178.81436306312918,-5.777763984381102,-35.47955854240125,10
1767650389.8745012,1,left_wrist,0.0864,0.0181,-0.612,-9.94,-32.41,-14.56,0.1849941543727385,0.3236940196692965,-0.9277035528259802,0.019117074888753374,174.82555090113647,-20.831179886540887,-140.57846136393766,10
1767650389.8745012,2,right_wrist,0.1269,0.0371,-0.7359,39.97,-48.3,7.7,0.013274918929267285,-0.951188346797806,0.30589302781966576,-0.03865179135299255,-177.19106855514752,-3.7503288666179513,-35.74656465469559,10
1767650389.934127,1,left_wrist,0.0737,0.2123,-0.55,-54.53,-20.02,-9.24,0.1830004211123387,0.3239590477833779,-0.9281368547446152,-0.011106759057749027,171.51307959510063,-19.42074372373148,-140.06284157907908,10
1767650389.934127,2,right_wrist,0.12,0.0346,-0.7676,26.74,-41.86,3.57,0.025581079775650415,-0.9511637288726714,0.30643871754602126,-0.026990398724301604,-176.25896984461536,-2.043974007450508,-35.78177733157132,10
1767650390.018074,1,left_wrist,0.0039,0.1454,-0.3533,17.85,-0.14,-0.21,0.1778805427677441,0.326347347557396,-0.9283276281912464,-0.007983481929581857,172.04228636542928,-18.96872956801763,-139.93092165297722,10
1767650390.018074,2,right_wrist,-0.0737,-0.1488,-0.488,-13.44,-16.24,-6.44,0.03345631680672876,-0.9526514824340313,0.3021817320717279,-0.00469347249921254,-176.18212337954174,0.6461547293177372,-35.17659276225094,10
1767650390.082027,1,left_wrist,0.041,0.3372,-0.467,25.48,26.53,23.59,0.19211717692005048,0.31640313693246264,-0.9289615563291317,0.003236067694737328,172.887747481537,-21.037981743853482,-141.06018731669815,10
1767650390.082027,2,right_wrist,-0.0669,0.0015,-0.3782,-16.38,14.0,-10.71,0.024299088175157687,-0.9542137352827825,0.29811533033429666,-0.0035988235868208616,-177.2189062412002,0.4365847492541157,-34.689085818044546,10
1767650390.1649752,1,left_wrist,0.1308,0.1771,-0.4763,43.33,32.83,20.65,0.19893524474260282,0.3124681059332482,-0.9285966881002237,0.022285466631526387,174.8481927249909,-22.54371500096981,-141.7768797368613,10
1767650390.1649752,2,right_wrist,0.0376,0.062,-0.6539,-63.35,46.41,-12.74,-0.030144129025703445,-0.9567806002543505,0.28759860145140437,-0.030810045527430805,177.70310747016066,-4.375675302475746,-33.372735154808936,10
1767650390.222145,1,left_wrist,0.1518,0.0029,-0.5251,81.34,42.63,30.24,0.2000606709617177,0.3065082387835465,-0.9283381249673739,0.06493653227741746,179.86961038531155,-24.283700160356066,-143.42872988711483,10
1767650390.222145,2,right_wrist,0.1976,0.081,-0.5763,-85.68,50.12,-8.82,-0.07516954463059629,-0.9548176543741735,0.2840518295340257,-0.044579643266886425,173.15415038881713,-7.344500452185538,-32.69488199652766,10
1767650390.277212,1,left_wrist,0.2801,-0.2518,-0.6212,54.6,51.8,46.41,0.2031840706087811,0.2829408453063644,-0.9226936100368546,0.1652186838869104,-167.58688535644305,-27.933568506693117,-149.00271319947925,10
1767650390.277212,2,right_wrist,0.244,0.2142,-0.772,-64.54,71.47,-5.46,-0.1148414029430534,-0.9505463701068747,0.2802770252639113,-0.06868653111002362,169.43566288876883,-11.242052725473297,-31.814556331344345,10
1767650390.329217,1,left_wrist,0.4519,-0.2948,-0.7871,92.54,90.3,38.92,0.22416129373420313,0.26720998184507755,-0.9107254101179167,0.2212007399610459,-160.54872547927752,-31.77014444082735,-152.88097892141147,10
1767650390.329217,2,right_wrist,0.4451,0.5148,-0.812,-84.0,64.33,-8.05,-0.16152219167594767,-0.9436796406104938,0.27562354140827805,-0.0860870542823188,164.57692103947377,-14.56722980205881,-30.580287580152305,10
1767650390.380217,1,left_wrist,0.5324,-0.0747,-0.875,91.77,87.85,36.26,0.24549305087421447,0.2544415073362926,-0.8966609590293992,0.26644287543371015,-154.42856112551178,-35.1582214343976,-156.54030492868563,10
1767650390.380217,2,right_wrist,0.5456,0.51,-0.7769,-81.76,86.1,-15.33,-0.20924135692102405,-0.9343030321739676,0.265716350881019,-0.11265309360534145,159.5302685158436,-18.765883087510993,-28.333658527180567,10
1767650390.4674208,1,left_wrist,0.6442,-0.3026,-0.8516,40.11,77.14,22.54,0.26939958275716414,0.24245336700120163,-0.8862158057819582,0.2885511656921194,-151.0471910493833,-38.12744422345861,-159.5953072743663,10
1767650390.4674208,2,right_wrist,0.6349,0.673,-0.7823,-60.83,80.78,-14.28,-0.2880111089109526,-0.9111870041002404,0.2421023174728549,-0.16785205562335173,150.3017721397211,-26.445448256161598,-22.629965516334178,10
1767650390.531478,1,left_wrist,0.6427,-0.2948,-0.6715,69.09,79.94,23.45,0.3055468764717537,0.224267684630982,-0.8493713274296814,0.3673056765814468,-138.1412217732956,-43.14092206913213,-167.61382201020058,10
1767650390.531478,2,right_wrist,0.6105,0.549,-0.6988,-82.74,86.03,-18.41,-0.3337021924106836,-0.8936419757344936,0.22955820527877183,-0.19326121280495767,144.14798477618874,-29.90879584941632,-18.93662405977191,10
1767650390.5840871,1,left_wrist,0.7232,-0.4275,-0.5915,43.33,76.72,17.22,0.3281320161170904,0.2134075147573553,-0.8339518288451216,0.3889870946572643,-133.45607847435133,-45.505532688647804,-171.7417795676179,10
1767650390.5840871,2,right_wrist,0.5714,0.5734,-0.6451,-40.67,83.93,-12.39,-0.3617511285138399,-0.8794816096826328,0.21537971120236404,-0.22194548711653192,139.7963993091976,-33.10818690149428,-15.104091946703361,10
1767650390.666997,1,left_wrist,0.8184,-0.5739,-0.3909,84.28,83.93,15.12,0.34991026820545884,0.20502728538694015,-0.8058922127856917,0.4313517796678571,-124.76575218758853,-47.804528891913606,-177.56032662070433,10
1767650390.666997,2,right_wrist,0.6593,0.7847,-0.3753,-34.65,79.31,-10.78,-0.4350088493045322,-0.8388420951657678,0.1945063546924179,-0.26320812751303657,127.5886524354132,-37.64766630684398,-7.060558832476976,10
1767650390.717838,1,left_wrist,0.835,-0.5885,-0.3894,27.93,99.75,21.42,0.38139442490484043,0.18369172192061403,-0.7843038092602382,0.4535010239560938,-117.52980394935047,-49.89515839923872,174.85350832871845,10
1767650390.717838,2,right_wrist,0.8247,0.9443,-0.4231,-42.14,92.05,-11.62,-0.46212058636560666,-0.8186714893259732,0.17647115657581033,-0.2916838821716013,121.63621612169145,-39.843175788824624,-1.4446762389854568,10
1767650391.877847,1,left_wrist,0.3094,-0.0059,-0.6905,-39.9,-70.21,-31.36,0.2386698304767425,0.3516410724712514,-0.8949200391585231,0.13602717259422156,-174.91088078238025,-31.523370721470474,-138.5345495904449,11
1767650391.877847,2,right_wrist,0.3797,0.4714,-0.6827,54.04,-72.87,11.06,-0.09138641261734855,-0.9389973161528099,0.3141160981522164,-0.10613030070804001,173.76606922066878,-14.875765585764134,-36.177907958756805,11
1767650391.9283588,1,left_wrist,0.2342,-0.1069,-0.6134,-36.26,-60.62,-29.33,0.21753814819001643,0.36241951657811844,-0.8996096128077177,0.10968952834837914,-177.42230670225126,-28.09312759791716,-136.75964560628813,11
1767650391.9283588,2,right_wrist,0.2713,0.1083,-0.7315,49.91,-62.65,9.03,-0.0647702000806859,-0.9415804447632903,0.31766950019532936,-0.09119855188829498,176.24254208534464,-12.291918922514714,-36.88188426155261,11
1767650392.020843,1,left_wrist,0.1835,0.0122,-0.6739,-26.25,-46.69,-24.36,0.20067890382766904,0.37216770326577975,-0.9020383253832098,0.08686793277299719,-179.53473295219408,-25.258252222489208,-135.2636058199427,11
1767650392.020843,2,right_wrist,0.1864,0.042,-0.7754,33.81,-43.89,1.89,-0.02499123838645867,-0.9460524738842832,0.3173742994635728,-0.060280251337774704,179.4785799661647,-7.464953000545699,-37.05632605520887,11
1767650392.073508,1,left_wrist,0.1288,0.1386,-0.6505,-30.45,-25.62,-9.38,0.17944542802169228,0.38118874665006913,-0.9059079859073429,0.04272234612895912,176.35303898801527,-20.958561065356786,-133.6843663733369,11
1767650392.073508,2,right_wrist,0.1493,0.0312,-0.8286,42.07,-33.18,6.79,-0.006539899212792847,-0.9460436293264888,0.3191487470151565,-0.055702409352803364,-178.6636806568519,-6.290425967893248,-37.357180193774404,11
1767650392.12779,1,left_wrist,0.0405,0.2054,-0.5441,-6.3,-9.17,-4.69,0.17530487835673864,0.3835912428324769,-0.9060812703841594,0.03380369070963472,175.52746158733663,-20.09724465143143,-133.31614059779614,11
1767650392.12779,2,right_wrist,0.1035,0.019,-0.7681,22.89,-32.83,4.2,0.0026625191158242013,-0.9462555172028176,0.3201127070886872,-0.04605715922132174,-178.01415580142785,-4.9024236787026405,-37.465773242398605,11
1767650392.180684,1,left_wrist,-0.0005,0.2806,-0.4875,-5.46,-1.75,-0.49,0.17457216132306397,0.38420844824685446,-0.906193556553905,0.026863857632940673,174.7922619633984,-19.696331486724194,-133.14335374681886,11
1767650392.180684,2,right_wrist,0.0283,-0.0005,-0.6456,11.97,-26.95,0.7,0.009649436769510753,-0.9467978401317702,0.32009686105886076,-0.03191767272390691,-177.77850246177837,-3.11049167264128,-37.419431193743215,11
1767650392.272248,1,left_wrist,0.0151,0.1498,-0.4016,8.75,14.63,7.49,0.17683509339666134,0.382589780297547,-0.9063753491762147,0.028950581357960754,174.94166958036732,-20.04208844226739,-133.3354465953841,11
1767650392.272248,2,right_wrist,0.0083,-0.0102,-0.527,-23.73,26.25,-8.61,0.0006554282479126447,-0.9483395709341813,0.3157566995796184,-0.03081128502304614,-178.81184022657553,-3.3264680788108696,-36.8656266395258,11
1767650392.327096,1,left_wrist,0.1654,0.0956,-0.5383,56.14,41.3,28.42,0.19027404378357368,0.3705843795549282,-0.9068614475615411,0.06375986840263853,178.41870645593409,-23.101500919618772,-135.22253692191777,11
1767650392.327096,2,right_wrist,0.1181,0.0088,-0.5817,-34.37,43.19,-9.87,-0.022287379310143154,-0.9486376894243415,0.31189322790851476,-0.04808764198772496,179.2919571018916,-6.035121103354653,-36.36235068871802,11
1767650392.419026,1,left_wrist,0.1464,0.0356,-0.4909,86.8,47.74,38.15,0.1904253251721176,0.3617592321070569,-0.9064881510394462,0.10558260057174178,-176.60852451292624,-24.93738505070418,-137.23845368590358,11
1767650392.419026,2,right_wrist,0.2518,0.2352,-0.4036,-87.01,46.48,-26.11,-0.10758481987675221,-0.9475276134189967,0.2932120985502229,-0.06814391832263042,170.38464336187437,-11.082768069889232,-33.454290034846345,11
1767650392.483499,1,left_wrist,0.2972,-0.5734,-0.4075,197.26,73.57,57.26,0.17960544557756145,0.3415692894399733,-0.8803933154418345,0.2756445438525709,-155.1628348162836,-30.301504120121756,-144.41457168955003,11
1767650392.483499,2,right_wrist,0.3328,0.3148,-0.6608,-132.02,81.62,-24.99,-0.17683392814760077,-0.9390855480841056,0.2819931668026355,-0.08560344100610336,162.90262405106333,-15.100315642198217,-31.14562706164216,11
1767650392.566545,1,left_wrist,0.466,-0.2269,-0.6339,117.74,91.84,46.76,0.19538030203791304,0.32252705063356163,-0.8633687092469619,0.33525708207049837,-147.05619635654583,-33.61636540546869,-149.23973363817908,11
1767650392.566545,2,right_wrist,0.5592,0.8081,-0.7096,-111.72,102.69,-11.27,-0.29279040147759644,-0.9094979903965416,0.2601071560389427,-0.1393967490459278,149.77502516496256,-23.946026160580516,-25.36460365297913,11
1767650392.64215,1,left_wrist,0.7569,-0.3821,-0.7803,116.06,111.79,33.25,0.24727830645712398,0.2761792789385004,-0.8192724534417175,0.43745981766591496,-130.4667209650381,-40.30161552634265,-161.95957711951175,11
1767650392.64215,2,right_wrist,0.7135,0.5095,-0.8174,-94.78,119.0,-18.48,-0.3454191622981359,-0.8888553517334578,0.2434515167335293,-0.17706813663725388,142.92900758179428,-28.87900545649549,-20.76602133717782,11
1767650392.7161899,1,left_wrist,0.7627,-0.427,-0.7432,79.03,106.26,31.64,0.2699894159816638,0.25472162705012036,-0.7965196002599858,0.47726212333736656,-122.62519862551308,-42.31775593812871,-168.44836282801577,11
1767650392.7161899,2,right_wrist,0.9248,0.8076,-0.6632,-48.3,115.5,-17.36,-0.4175265763080427,-0.8488620663578896,0.2031111644325632,-0.2526867730173981,130.8208936659441,-36.769770851829605,-9.616698427351514,11
1767650392.773553,1,left_wrist,0.8813,-0.5514,-0.6198,93.1,105.0,10.01,0.2948535778124563,0.24228456105672122,-0.7655792899976809,0.5179265487029917,-114.01185160001292,-44.62299811195602,-174.71561383328168,11
1767650392.773553,2,right_wrist,0.7867,0.6925,-0.5778,-59.78,95.2,-18.83,-0.4500317489586999,-0.8263217868549275,0.18643555709872617,-0.28267563132916323,124.28072872780486,-39.417455766819266,-3.9848208391421287,11
1767650392.863551,1,left_wrist,0.934,-0.6383,-0.4939,13.72,102.97,2.8,0.3529452465803854,0.20261912103263544,-0.7244455172201965,0.5563756260727416,-101.23775566797322,-47.463252388063246,171.56522431843726,11
1767650392.863551,2,right_wrist,0.8379,0.7105,-0.4138,-60.69,86.87,-10.64,-0.4963800387871354,-0.781948600289075,0.1587124513848871,-0.3420140368099505,112.2568784203875,-43.8234232028347,7.272275175079133,11
1767650393.928712,1,left_wrist,0.3914,-0.1381,-0.6139,-34.09,-72.03,-37.24,0.23502748074364402,0.4313491107458567,-0.8531625435160616,0.1755383214436643,-173.33330611046495,-33.53662290610021,-128.36956814908504,12
1767650393.928712,2,right_wrist,0.4046,0.385,-0.6705,51.1,-89.18,14.77,-0.12601837745493172,-0.9343305193476978,0.31648086954544874,-0.1048127300037741,169.86553660919816,-15.99922039808701,-35.99713829648576,12
1767650393.979585,1,left_wrist,0.2952,-0.0088,-0.6281,-53.2,-63.14,-31.5,0.2213702198227235,0.4430447181628454,-0.8579053583957629,0.13676622214377893,-177.4495514111631,-30.0672739322613,-126.0590788040281,12
1767650393.979585,2,right_wrist,0.2362,0.2484,-0.6915,70.91,-71.82,14.35,-0.0909763327113884,-0.9384248362995619,0.32210159732388133,-0.08563115381642075,173.19621724910525,-12.669334146083541,-37.131986854225,12
1767650394.029811,1,left_wrist,0.2381,0.0615,-0.6656,-38.71,-54.25,-25.97,0.20780414771131236,0.4530376869252896,-0.8605435407057139,0.10506714505035136,179.5208191637815,-26.92654232540397,-124.35568586909146,12
1767650394.029811,2,right_wrist,0.2284,0.0737,-0.8047,24.71,-60.9,7.28,-0.07133361992400372,-0.9398420578938411,0.3268257729168196,-0.06923391538639867,174.8219532002759,-10.181399511375933,-37.88817702311421,12
1767650394.0874822,1,left_wrist,0.1615,0.0142,-0.611,-30.52,-47.6,-18.34,0.1927263556633479,0.45973324777162816,-0.8631888147059782,0.08004350624856205,177.55249259298296,-23.973607700912247,-123.40086551204429,12
1767650394.0874822,2,right_wrist,0.1757,0.2001,-0.7544,48.65,-58.73,9.45,-0.04741969880014707,-0.9411795379587717,0.33048383921337665,-0.052085329145580804,176.82998311161126,-7.434123472457871,-38.490222359911094,12
1767650394.1645381,1,left_wrist,0.0869,0.1747,-0.5505,-7.7,-33.11,-6.86,0.18068434862011093,0.4637603554155493,-0.8648847036059627,0.0652222996911006,176.61586668592082,-21.90305736388862,-122.94361530107142,12
1767650394.1645381,2,right_wrist,0.0742,0.0015,-0.7144,23.17,-41.51,-0.98,-0.012455784802550466,-0.9431237481761421,0.3312078708199322,-0.025764226323813352,179.63109994701603,-3.258942695556026,-38.69019629311195,12
1767650394.2251399,1,left_wrist,0.0717,0.1078,-0.5295,-25.83,-13.37,-1.61,0.1783376967025615,0.4635292309708223,-0.8665964989681997,0.04844404964990152,175.00893486526385,-20.732421134466037,-122.80315992686586,12
1767650394.2251399,2,right_wrist,0.0449,0.0449,-0.6144,40.46,-18.48,-1.47,0.0019007621105504872,-0.943661972440721,0.33007039776191105,-0.02349470991480541,-178.90472892672557,-2.4694882746604834,-38.580840909128916,12
1767650394.3159711,1,left_wrist,0.0644,0.2821,-0.53,2.38,14.28,10.08,0.18467364398403713,0.45718380826729776,-0.8690288695148941,0.040834233500005084,173.98152840978642,-20.996502282126862,-123.38729343669091,12
1767650394.3159711,2,right_wrist,0.0268,-0.0464,-0.5285,-2.31,17.64,-4.9,0.005758451556641568,-0.9445976689066216,0.32644422245456073,-0.03370836332252902,-178.11200062044017,-3.4353388756737924,-38.18597528089046,12
1767650394.366324,1,left_wrist,0.1103,0.2274,-0.5236,21.77,28.21,16.1,0.1907811577284378,0.4531701507430434,-0.8692589731230701,0.05126599239603183,174.80727927948155,-22.218573269140485,-123.91098287557035,12
1767650394.366324,2,right_wrist,0.0434,-0.0015,-0.6188,-20.93,34.86,-6.16,-0.012918378699901246,-0.9448711783763569,0.32407356680204363,-0.04503215590710732,-179.7252053512249,-5.363391018462259,-37.874935973263824,12
1767650394.421938,1,left_wrist,0.144,0.2289,-0.589,36.33,37.59,20.16,0.1973444000304928,0.4485615802608578,-0.8689289968697429,0.06935484762746835,176.4560207560474,-23.90218069126968,-124.64194334310086,12
1767650394.421938,2,right_wrist,0.1688,0.0903,-0.6393,-40.88,45.08,-6.16,-0.04043333707502078,-0.944052552500789,0.3217200436140874,-0.060217413649810786,177.82404292100878,-8.031252799293496,-37.484026974534125,12
1767650394.473418,1,left_wrist,0.2303,-0.0322,-0.53,66.92,44.38,29.33,0.1963527468764803,0.4361232725299692,-0.8675512657117233,0.13637041949703718,-175.78024059216017,-27.363929826718632,-127.64979000472309,12
1767650394.473418,2,right_wrist,0.224,0.1074,-0.5422,-67.83,53.83,-15.4,-0.07982392892113559,-0.9424660315483631,0.31572106053183663,-0.0755389415184376,173.98845110130844,-11.115648265693514,-36.45564351146587,12
1767650394.527777,1,left_wrist,0.3821,-0.1488,-0.5183,123.06,55.37,34.02,0.19259073831151222,0.4286228856683801,-0.8597145080020531,0.20020537986958628,-168.03940601119479,-30.1835189871534,-130.237870499925,12
1767650394.527777,2,right_wrist,0.1547,0.1664,-0.6881,-90.02,65.73,-13.72,-0.13098513088883706,-0.9375261032764964,0.30980815968118025,-0.08891909444086038,168.65911536587961,-14.352597760109004,-35.14004207939517,12
1767650394.620784,1,left_wrist,0.4704,-0.4519,-0.5778,71.12,85.75,49.0,0.206182715369263,0.40687425432572305,-0.8538718951721753,0.2506886828018411,-161.74586886734477,-33.78684397965622,-134.63061323956126,12
1767650394.620784,2,right_wrist,0.4348,0.5261,-0.8042,-102.06,82.88,-7.28,-0.2418214933886096,-0.9129270703631952,0.30133671207428625,-0.13146374211026807,156.87749438916657,-22.691737763562838,-31.83283352502877,12
1767650394.672014,1,left_wrist,0.4285,-0.0151,-0.7749,110.32,73.36,48.93,0.20873892464093338,0.39143819309259587,-0.8430620207181079,0.30405695445237046,-154.3690616688769,-36.15691800113502,-138.68222026123067,12
1767650394.672014,2,right_wrist,0.5461,0.551,-0.8159,-60.69,93.1,-7.28,-0.2820214572169286,-0.8998457479113198,0.29118450995146844,-0.16109968590745583,152.3292354840164,-27.011562206466028,-29.09203051015247,12
1767650394.7301388,1,left_wrist,0.6178,-0.3606,-0.7915,95.27,94.5,31.15,0.24606611029288475,0.35746067739305826,-0.8157156574547946,0.3824673837938582,-142.61478434453656,-42.44437085316942,-147.64194341511782,12
1767650394.7301388,2,right_wrist,0.5871,0.6002,-0.7061,-91.84,81.2,-14.49,-0.3325459892908973,-0.8820439742228933,0.28082224407016265,-0.18041745973996107,145.78558125102919,-30.334332197331555,-25.78200891130672,12
1767650394.781518,1,left_wrist,0.6988,-0.325,-0.7178,76.86,89.39,30.45,0.2610195681220072,0.34142994202888133,-0.7980087708476266,0.4224646510583056,-135.61495990374485,-44.83568204651507,-152.77797470307922,12
1767650394.781518,2,right_wrist,0.732,0.568,-0.6129,-56.35,77.84,-21.0,-0.3673431694715675,-0.8678920842472124,0.2656862140233577,-0.20305950266251346,140.71952790735486,-33.206866632776745,-21.893394250953616,12
1767650394.866923,1,left_wrist,0.8057,-0.3963,-0.5905,59.78,83.93,24.64,0.27894582563800613,0.32631328532588355,-0.7803771719175985,0.45466508083296897,-129.24299980783988,-47.06209714846202,-157.95853531584007,12
1767650394.866923,2,right_wrist,0.734,0.5236,-0.6622,-53.97,85.19,-8.05,-0.44053469536532813,-0.8265294901506564,0.24227196479404225,-0.2531451740908918,128.6157914460146,-39.192090332949505,-13.235859243901691,12
1767650394.925204,1,left_wrist,0.8965,-0.3514,-0.5422,32.97,93.87,30.1,0.3204879453727396,0.28069712005234815,-0.7479117466621329,0.5090428497384825,-115.41612458976431,-49.92186220323394,-171.64171382620452,12
1767650394.925204,2,right_wrist,0.7974,0.9916,-0.5641,-4.13,85.47,10.99,-0.45287789561291986,-0.8137973578665177,0.2280122190910299,-0.2839822176472889,125.19355129473533,-41.96922473674285,-8.811490017209408,12
1767650396.125309,1,left_wrist,0.4285,-0.1327,-0.6398,-73.71,-61.74,-46.13,0.23001719349034372,0.478541119822279,-0.825400651534446,0.19184434259205294,-173.28925375720019,-34.28595267784756,-121.8645545911632,13
1767650396.125309,2,right_wrist,0.3967,0.2899,-0.711,44.17,-77.7,12.53,-0.11015063209877032,-0.9277903551105559,0.33839199097097705,-0.1120836993445886,172.2994276729513,-16.411173641068064,-38.964676619405815,13
1767650396.180202,1,left_wrist,0.2889,0.0493,-0.6232,-33.6,-55.65,-42.7,0.2067545358306899,0.5129151014946366,-0.825132022807142,0.11544611518096531,178.60774585988275,-27.363085533630866,-115.92959033774369,13
1767650396.180202,2,right_wrist,0.3011,0.2274,-0.6842,29.61,-79.73,-4.55,-0.09084773088539227,-0.9328192894861164,0.33819016950406994,-0.0849839526404882,173.40672250219453,-12.708854420377763,-39.12080323388149,13
1767650396.268416,1,left_wrist,0.1562,0.0756,-0.6222,-40.25,-51.1,-32.2,0.19608548993289387,0.5240759062808752,-0.8246549644988247,0.08269893966127169,175.6529327963875,-24.21028686553884,-114.19455773129248,13
1767650396.268416,2,right_wrist,0.1845,0.1362,-0.732,28.07,-58.8,4.9,-0.04133295036146792,-0.9372864005660386,0.3426205513395881,-0.04895863895302302,177.4636348550969,-6.897849047473466,-40.00639959462233,13
1767650396.324686,1,left_wrist,0.0834,0.2333,-0.571,-8.19,-22.26,-19.67,0.19234758158573118,0.5382318232476848,-0.8199981340772051,0.030198880964291908,170.3267471832746,-20.362426077487616,-111.69844786086261,13
1767650396.324686,2,right_wrist,0.1264,0.0127,-0.6232,28.35,-52.5,-0.7,-0.022184935747720447,-0.9384786495496312,0.34267604882793584,-0.036589322555142294,179.0475748900307,-4.8116861631085674,-40.078298898181984,13
1767650396.3788621,1,left_wrist,0.0761,0.2367,-0.5661,-31.85,-12.67,-14.0,0.19463017436313657,0.5415457475267689,-0.8177711600540049,0.009880705793384596,168.1050116763299,-19.209765121411127,-110.95324420511182,13
1767650396.3788621,2,right_wrist,0.0654,0.101,-0.6232,17.22,-35.07,5.32,-0.014611629239787559,-0.9383074674828691,0.34467132770774045,-0.023817485447186967,179.3686719001157,-3.1395844602505036,-40.32260111551499,13
1767650396.467406,1,left_wrist,0.0556,0.1962,-0.4573,3.57,1.96,3.92,0.19343716041235312,0.5413489552985741,-0.8182120691243647,0.007237645195352706,167.94296160223496,-18.928102839754803,-111.00370175316138,13
1767650396.467406,2,right_wrist,-0.0039,0.0522,-0.5827,-8.89,7.7,-8.4,-0.019979254530652576,-0.9395028548328551,0.34144946762904244,-0.018640713644009092,178.5765778230202,-2.789677301268229,-39.91130523903592,13
1767650396.5194979,1,left_wrist,0.0429,0.3684,-0.4421,3.57,16.8,20.02,0.19931016684499067,0.5350314841587186,-0.8209241431803389,0.010015961999092849,167.9283497121352,-19.752316251797996,-111.70273934823308,13
1767650396.5194979,2,right_wrist,0.0376,0.0386,-0.6266,-6.16,29.96,-4.9,-0.03198507702389293,-0.9397521962145494,0.3390582296465594,-0.029703223169337874,177.70213893225716,-4.445853858720856,-39.58920907580724,13
1767650396.572785,1,left_wrist,0.0449,0.2899,-0.4865,22.26,23.52,24.5,0.20224130882785402,0.5288576075941512,-0.823993691102934,0.021035230351720835,168.94340336337,-20.82656838554959,-112.57545753530759,13
1767650396.572785,2,right_wrist,0.0825,0.083,-0.6525,-49.56,38.29,-11.97,-0.06297939182831337,-0.9397054944174934,0.3339024782032304,-0.03868223127291776,174.6553019110436,-6.589653249877248,-38.815059394429476,13
1767650396.6314209,1,left_wrist,0.2523,0.0473,-0.5534,106.68,39.55,27.16,0.18500438740671113,0.5221130194187567,-0.8259799045207238,0.10453979587521926,178.70962455061428,-24.505651039958348,-115.12469052886387,13
1767650396.6314209,2,right_wrist,0.1459,0.1279,-0.6427,-97.65,35.7,-25.69,-0.11284668990422819,-0.9386171755896497,0.3234551500464568,-0.040499236711224434,169.17926552046632,-8.57061610807454,-37.21550983779725,13
1767650396.7157068,1,left_wrist,0.2484,-0.1288,-0.5866,87.78,66.22,48.86,0.18330709661997868,0.506970060263437,-0.8271507244011811,0.15874994629240677,-175.0284586912946,-27.658985950984274,-118.21535383463747,13
1767650396.7157068,2,right_wrist,0.3123,0.2908,-0.7935,-69.37,64.96,-20.3,-0.18831784257739817,-0.9314544603416609,0.3023142014970738,-0.07439826644355424,161.57432991176938,-14.623101218539313,-33.57846114613067,13
1767650396.772105,1,left_wrist,0.4133,0.0703,-0.7505,62.02,68.95,47.04,0.19410147292038427,0.4907663898598645,-0.8264040203751102,0.19628898059215502,-171.02203336438055,-30.89567932458056,-121.07714056099304,13
1767650396.772105,2,right_wrist,0.4509,0.3621,-0.8067,-68.81,78.61,-15.05,-0.22958035518889006,-0.9231999999202424,0.2917700853299944,-0.09932189066432055,157.301190379217,-18.503180560713925,-31.332282263989704,13
1767650396.8270981,1,left_wrist,0.5524,-0.12,-0.8091,93.17,68.46,42.77,0.20636781250720135,0.4620809087422001,-0.8122824603764692,0.28998407594508524,-159.41775263193156,-37.103026675700946,-127.70567194118165,13
1767650396.8270981,2,right_wrist,0.488,0.4738,-0.733,-66.43,79.24,-15.47,-0.27003752545040904,-0.9129062856590372,0.2800335831634851,-0.12354367953667043,152.76946206974148,-22.13602541872075,-28.681585401248725,13
1767650396.91251,1,left_wrist,0.5461,-0.0712,-0.6505,109.9,68.74,32.69,0.20717876872678215,0.4527252846405097,-0.7970957910769935,0.3416944165235453,-152.31384230014828,-39.76722058623588,-130.9954600080196,13
1767650396.91251,2,right_wrist,0.6373,0.6617,-0.7501,-55.02,98.0,-17.01,-0.34650384108636256,-0.8860139007974974,0.24880187098041578,-0.181692280250549,142.96034958234026,-29.629229754300336,-21.244555873592944,13
1767650396.981121,1,left_wrist,0.7466,-0.51,-0.651,49.56,102.13,28.98,0.23522320993012125,0.41090940417638744,-0.7661641664574455,0.43452959980436795,-137.27941632738825,-45.85206151087772,-142.3739405004228,13
1767650396.981121,2,right_wrist,0.6588,0.5451,-0.6266,-64.54,93.8,-5.6,-0.3832305370661652,-0.866659851697842,0.23778924733509868,-0.21328696811305758,137.5496170114724,-33.500942761439475,-17.351436723854423,13
1767650397.065485,1,left_wrist,0.7623,-0.3518,-0.6988,66.01,98.84,32.34,0.25042543311761783,0.3896462712968102,-0.749376485557098,0.4731783687008933,-129.70189410273392,-48.079301283384375,-148.7100096591216,13
1767650397.065485,2,right_wrist,0.7623,0.6427,-0.571,-69.79,65.66,-10.64,-0.4465362008664989,-0.8282748754400856,0.21470148199744557,-0.2616666307700029,126.50343144848561,-38.69743812447913,-8.991515815552164,13
1767650397.116856,1,left_wrist,0.813,-0.59,-0.55,76.93,85.47,21.28,0.25819764226892844,0.3733907155313436,-0.7290624658387749,0.5122316585167722,-121.67741027735472,-49.37695615980227,-154.53515953272995,13
1767650397.116856,2,right_wrist,0.7076,0.793,-0.428,-57.68,84.63,-3.64,-0.4785032893051958,-0.8052553340876759,0.20190556763996473,-0.28606396278356566,120.01121430275956,-40.83887106972194,-3.896121123021403,13
1767650397.1675599,1,left_wrist,0.8535,-0.6149,-0.4231,44.38,91.77,37.24,0.27065298469239313,0.34706954398819134,-0.7159316791788948,0.54197004000315,-114.33787150048416,-49.79508715847739,-161.6162963156684,13
1767650397.1675599,2,right_wrist,0.8423,0.7652,-0.4778,-51.66,79.31,-13.58,-0.5020969950823467,-0.7850503666534935,0.18962491877649476,-0.3092521940512326,114.40832009505709,-42.530089255244576,0.9967262769325796,13
1767650398.2724211,1,left_wrist,0.4665,-0.0527,-0.6481,-174.51,-66.36,-66.22,0.2584327909228016,0.5696407795142695,-0.75641069721534,0.19121906816117978,179.6282330568625,-37.50386993868386,-105.90815216967083,14
1767650398.2724211,2,right_wrist,0.4294,0.2806,-0.7286,69.65,-97.72,22.54,-0.10203370500918468,-0.9223271934700644,0.3513523044577042,-0.12431101873926505,173.92855816348342,-17.518301442521427,-40.77145136138006,14
1767650398.3244228,1,left_wrist,0.345,0.1864,-0.6793,-38.36,-60.27,-43.89,0.2363595685119615,0.6052461044197829,-0.7492439023552298,0.12823760073014373,173.73214617183604,-30.6247077464384,-100.41907971667396,14
1767650398.3244228,2,right_wrist,0.3216,0.3475,-0.732,35.14,-80.57,13.37,-0.07910858892937368,-0.9254405580690728,0.3575014918696252,-0.09743863684082775,175.46887145467528,-13.704249912371822,-41.69873753842647,14
1767650398.375587,1,left_wrist,0.2572,0.0522,-0.6373,-28.0,-52.57,-34.44,0.22452476100874266,0.6170267155214132,-0.7476645619797686,0.09931951865783822,171.68325420241192,-27.277722208890644,-98.91484035192332,14
1767650398.375587,2,right_wrist,0.2445,0.039,-0.7154,59.78,-83.44,15.26,-0.04171047318154673,-0.927246572007212,0.3638062922891685,-0.07822411916188896,178.8106389152038,-10.102818628870827,-42.74010265457717,14
1767650398.4264681,1,left_wrist,0.1606,0.2255,-0.5573,-26.88,-44.31,-27.3,0.21841190270943875,0.62610901109101,-0.7451387137825792,0.07107773355927785,169.3891809527696,-24.487779375173613,-97.6131866752054,14
1767650398.4264681,2,right_wrist,0.2172,0.1147,-0.7525,46.13,-69.86,5.04,-0.01628879182880808,-0.929017630457524,0.3649698762249203,-0.05880397102417164,-179.269336650562,-6.958458992181389,-42.9397539474325,14
1767650398.478753,1,left_wrist,0.124,0.1493,-0.527,-18.97,-34.79,-14.56,0.210712197217305,0.6310827547779353,-0.744900235046886,0.04958393280934772,168.033455439769,-22.11719216601088,-97.1101904787912,14
1767650398.478753,2,right_wrist,0.1352,-0.0537,-0.7193,6.86,-81.2,-1.54,0.0012344596740713211,-0.9306167968404095,0.36463660850338786,-0.03148010938602538,-178.55041383657147,-3.307320344343649,-42.83457947136163,14
1767650398.5298371,1,left_wrist,0.0644,0.3143,-0.5588,16.73,-22.05,-6.23,0.19911234963283492,0.6359828413484273,-0.7442920738148375,0.04369675720784594,168.3995596665519,-20.608239913346274,-96.85752113666527,14
1767650398.5298371,2,right_wrist,-0.0205,0.0024,-0.591,5.53,-64.4,-9.31,0.013923304097470236,-0.9326082363368836,0.36061963022919596,-0.0012253215801544368,-178.4611635416749,0.4444216657354972,-42.27486892737627,14
1767650398.582481,1,left_wrist,-0.0015,0.3016,-0.4504,1.4,-7.84,-3.57,0.1963627991670859,0.6382098313563581,-0.7434702608070279,0.03717302192296618,168.01252395274904,-19.842039490711887,-96.60896272634595,14
1767650398.582481,2,right_wrist,-0.021,0.0439,-0.673,6.86,-24.08,-1.96,0.016439064345827245,-0.9328651434874463,0.35970085554261744,0.01037669270476185,-178.66963616239593,1.7871389210382767,-42.15125059646331,14
1767650398.6658509,1,left_wrist,0.0327,0.2455,-0.4363,-3.92,4.76,6.58,0.19900984373485117,0.6364600579815596,-0.7444565200155288,0.033138595279652655,167.48003792626787,-19.784972559678174,-96.75173141060834,14
1767650398.6658509,2,right_wrist,-0.1078,-0.1205,-0.5246,-5.53,16.45,-10.64,0.007870089695320449,-0.9360305626815304,0.35153288760652324,0.014473297665177574,-179.7387282391934,1.8697836315565655,-41.163781180070835,14
1767650398.7175229,1,left_wrist,0.0327,0.242,-0.425,23.1,16.17,16.31,0.19770056991605012,0.6337090484340885,-0.7467061488421662,0.04191961198450769,168.4321460019618,-20.388146786592326,-97.27227745191716,14
1767650398.7175229,2,right_wrist,-0.0054,0.0171,-0.5397,-35.7,33.88,-11.13,-0.016733249263668808,-0.937764727441162,0.34683060933055226,0.005083578235931408,177.99939451669817,-0.11876308385090013,-40.591574023926725,14
1767650398.769492,1,left_wrist,0.0468,0.1937,-0.4265,52.43,34.65,24.85,0.19351846131348305,0.6302166569649588,-0.7490174791735172,0.06595745831460713,171.00201479519853,-21.90275511351125,-98.10152177150262,14
1767650398.769492,2,right_wrist,-0.0098,0.0517,-0.509,-35.7,54.18,-19.32,-0.04340573727875831,-0.9400259193702866,0.338223769261029,-0.008479079560726056,175.6443427727113,-2.5965486857233633,-39.47896628733585,14
1767650398.828151,1,left_wrist,0.3723,0.0571,-0.5344,86.45,60.48,42.21,0.1856868069377751,0.6132097564132712,-0.7532920129199846,0.14847675791108744,179.73920338547,-27.50639223724945,-101.64223918949065,14
1767650398.828151,2,right_wrist,0.1581,0.1298,-0.6066,-70.28,59.43,-19.53,-0.08481312205211831,-0.9401745846430464,0.32901770350487825,-0.02501670440773271,171.73342642019807,-5.903320117493607,-38.14840134601257,14
1767650398.885856,1,left_wrist,0.2801,-0.022,-0.5573,136.5,77.35,52.99,0.16655261939298371,0.5995409927187534,-0.751234273245227,0.22013152823905796,-171.21225836689985,-30.943717740479777,-105.25186428186431,14
1767650398.885856,2,right_wrist,0.2279,0.2865,-0.8003,-103.11,51.31,-30.87,-0.13897416670953192,-0.9383422326639415,0.3149496129538861,-0.03172974451265277,165.90843599970077,-8.458118959776524,-36.06084980039439,14
1767650398.9665868,1,left_wrist,0.426,-0.1098,-0.73,86.45,84.56,52.64,0.16351091687465816,0.5803185865931956,-0.7504712751001151,0.27071642611206925,-164.8526813986359,-34.029801597679985,-109.23235502285624,14
1767650398.9665868,2,right_wrist,0.3592,0.428,-0.8364,-114.87,71.96,-16.73,-0.25048441329035004,-0.9194548966547265,0.2962586234948884,-0.06396154877072166,153.99032502597092,-15.428512456807635,-32.13519430403154,14
1767650399.025318,1,left_wrist,0.5739,-0.263,-0.8301,93.59,69.3,44.87,0.14884228660710788,0.5485544746462903,-0.734801652279923,0.37013577761383054,-150.82098821222087,-38.66885902799652,-116.95106446139145,14
1767650399.025318,2,right_wrist,0.4641,0.6129,-0.8062,-78.26,71.12,-7.49,-0.2944921993722818,-0.9076514057595142,0.28720909064028716,-0.08339189640026876,149.08258545691706,-18.695779553634587,-29.904916590681378,14
1767650399.082475,1,left_wrist,0.6383,-0.2274,-0.7418,146.3,68.39,44.03,0.13088827029750794,0.533583192174971,-0.7154950297337236,0.4315369047407564,-141.15138425983417,-40.377552372961354,-121.34832654447791,14
1767650399.082475,2,right_wrist,0.5183,0.6193,-0.7544,-90.37,76.23,-20.65,-0.3431707063208441,-0.8931748492542487,0.27217937181814883,-0.10193598255562676,143.14150584117235,-21.647872712841217,-26.604594919818844,14
1767650399.165208,1,left_wrist,0.7022,-0.5114,-0.7359,53.41,78.89,30.45,0.1364238341790681,0.5131043964137219,-0.7088522576496055,0.46437150286580875,-135.7178014549137,-42.06326802964415,-125.98567595152616,14
1767650399.165208,2,right_wrist,0.6134,0.7056,-0.6939,-77.7,102.55,-4.13,-0.4279915419072106,-0.8547808446057937,0.24554772850877374,-0.16087032285376865,131.7183716921847,-29.02573675708637,-18.819866579523936,14
1767650399.2309551,1,left_wrist,0.7808,-0.3919,-0.6544,26.6,89.53,33.67,0.14642161093994857,0.46635702344648733,-0.6858372022183288,0.5391652535032447,-121.92704795169267,-44.727016166363576,-137.30125736729673,14
1767650399.2309551,2,right_wrist,0.651,0.6154,-0.6637,-49.0,89.39,1.19,-0.4530554752654724,-0.8381189750060892,0.23477025376604063,-0.19282180378097397,127.60029349068373,-32.407894313586546,-15.021347584583033,14
1767650400.440012,1,left_wrist,0.3733,0.0093,-0.6812,-58.24,-67.69,-50.19,0.21056141355784422,0.6431861479432562,-0.7176193688490817,0.16431041253397152,177.6598546632173,-30.90193697485461,-95.61477264935922,15
1767650400.440012,2,right_wrist,0.4587,0.2684,-0.7159,56.0,-88.83,17.5,-0.11685193599385724,-0.9263449758512368,0.3421096835865589,-0.10579024135506819,171.37724394050082,-16.018568882271,-39.32399372265954,15
1767650400.5132658,1,left_wrist,0.2308,0.0864,-0.5885,-28.49,-58.38,-51.87,0.2024684542827776,0.6616877495278355,-0.7101799891097306,0.12969283023064157,174.5914300191296,-27.336167996356476,-92.732655972158,15
1767650400.5132658,2,right_wrist,0.2562,0.2591,-0.7452,32.2,-46.83,15.89,-0.05241606157470968,-0.9287065095717426,0.35923315302997794,-0.07555340715154632,177.4910925308054,-10.252882776908468,-42.06884080037618,15
1767650400.5634172,1,left_wrist,0.2186,0.1693,-0.6251,-31.08,-53.97,-48.37,0.19749348160204824,0.6776362517944156,-0.7019436928662048,0.09529158947185139,171.57440583823276,-23.979181523847533,-90.22643065609773,15
1767650400.5634172,2,right_wrist,0.2059,0.1762,-0.7891,42.07,-54.18,12.46,-0.031195255154224392,-0.929059746780004,0.36359105798011665,-0.06063320481252068,179.1977197277803,-7.778764998465877,-42.691612806662015,15
1767650400.6178272,1,left_wrist,0.1552,-0.02,-0.609,-20.79,-35.07,-33.88,0.18943753374901443,0.6877908316467467,-0.6966510719687965,0.07572632722174334,170.3988362502777,-21.59919374833517,-88.89776979038325,15
1767650400.6178272,2,right_wrist,0.1113,0.1152,-0.7823,17.36,-55.65,1.47,-0.01993996192318043,-0.9303397743237627,0.3640503382879662,-0.03921292417213665,179.50817664228308,-5.018706505568763,-42.720154036499395,15
1767650400.677375,1,left_wrist,-0.0791,0.2025,-0.4353,20.72,-6.23,-4.41,0.17164100999113305,0.6993422001855565,-0.6908928903531468,0.06424067861039201,170.78682921864618,-19.088215832511047,-87.75126588939604,15
1767650400.677375,2,right_wrist,-0.0054,0.0063,-0.6617,13.44,-51.59,-1.4,-0.004537999003236915,-0.9314057544514833,0.36361480142518054,-0.01571633940319011,-179.8293997965518,-1.8668403012280155,-42.65348556595532,15
1767650400.765926,1,left_wrist,0.0478,0.0039,-0.466,7.07,9.52,10.08,0.16729923687379852,0.6971085396284448,-0.6937580389895514,0.06892338250487863,171.6227368298878,-19.161047557234,-88.30752616631182,15
1767650400.765926,2,right_wrist,-0.0312,0.0264,-0.4236,-10.08,9.03,-11.76,-0.007597450428338076,-0.9343798503369883,0.3561932670739982,0.001711876855255255,179.11661505768484,-0.12680912233325797,-41.73353654832647,15
1767650400.822082,1,left_wrist,0.0834,0.2172,-0.5397,30.87,28.14,33.04,0.15514527891232116,0.6841327254172739,-0.7052831621584039,0.10231333060844733,175.82464603815703,-21.028635999620544,-90.96897297893251,15
1767650400.822082,2,right_wrist,0.0224,0.02,-0.5661,-14.77,36.4,-10.71,-0.023030449676864954,-0.9357515711961294,0.3516253416190865,-0.014078867955823575,178.09567204406156,-2.4383748971342847,-41.148678837365146,15
1767650400.881479,1,left_wrist,0.2435,0.1449,-0.6398,63.56,38.92,34.93,0.14972152025401642,0.6761594081561055,-0.7091626616245307,0.13221286054095716,179.06921064415764,-23.02593541468257,-92.53986382204064,15
1767650400.881479,2,right_wrist,0.0981,0.0249,-0.7027,-39.2,46.55,-14.35,-0.04810183157947036,-0.9366903067831308,0.34540422947346583,-0.03151826833862878,176.06453822655524,-5.2944919852441314,-40.30083868124964,15
1767650400.964653,1,left_wrist,0.2157,0.2089,-0.6173,91.98,49.42,42.91,0.13773491321544465,0.6661810318837869,-0.712046601945658,0.17384350174058452,-175.93616492544967,-25.326111663333478,-94.7254821916945,15
1767650400.964653,2,right_wrist,0.1327,0.2118,-0.6651,-65.45,62.79,-21.7,-0.1280696512237557,-0.9353326702581105,0.3255203507686791,-0.05279641672210784,167.95417985650764,-10.494607420912478,-37.26813752284108,15
1767650401.023561,1,left_wrist,0.2479,-0.0376,-0.5514,162.26,46.2,44.73,0.09840191019383424,0.6573961783847225,-0.7087794063349384,0.23617595531903537,-166.7015999925414,-26.74450749036332,-97.48264979792249,15
1767650401.023561,2,right_wrist,0.3235,0.3816,-0.4646,-75.46,75.74,-15.96,-0.17349150781819597,-0.9299098424493242,0.3158785735242799,-0.07341054705632075,163.43787402535168,-14.248911552426218,-35.439537593742635,15
1767650401.0817862,1,left_wrist,0.4285,-0.4939,-0.4177,148.54,86.31,29.89,0.06960987001915131,0.6214111776814256,-0.693552267954423,0.35775391802714995,-150.84018124946144,-32.76405271491421,-105.0255834347027,15
1767650401.0817862,2,right_wrist,0.4016,0.4563,-0.6983,-49.14,125.93,-12.18,-0.2145957421271877,-0.921257921312766,0.3020829407125249,-0.11823031256761582,159.78794255120494,-20.33403084039582,-32.64738320413617,15
1767650401.1659362,1,left_wrist,0.6324,-0.3426,-0.7247,54.6,118.51,34.65,0.08959654586393682,0.5939167904719717,-0.6880906993512583,0.40714431646655674,-145.17392053103978,-37.367187594203415,-110.51069687678653,15
1767650401.1659362,2,right_wrist,0.6168,0.5002,-0.8872,-70.07,108.85,-23.03,-0.32202414067616264,-0.8868535724687848,0.2741967674534757,-0.18603044519432135,147.034213759948,-30.43492938452134,-25.157641189230073,15
1767650401.2183402,1,left_wrist,0.7413,-0.4519,-0.8311,87.5,106.54,29.96,0.09605350791975494,0.5704313602766544,-0.6749656815920405,0.458042700522809,-137.8445065664366,-40.70990710719871,-115.87130002450446,15
1767650401.2183402,2,right_wrist,0.8257,0.7125,-0.7232,-87.99,77.7,-8.4,-0.3684088792207748,-0.8664302281477841,0.26650789597824515,-0.20626948112680135,140.60447179993025,-33.628375191318845,-21.845929521428012,15
1767650401.278265,1,left_wrist,0.7579,-0.632,-0.6739,81.41,81.06,14.84,0.10371036849061441,0.531559426092468,-0.6464992980696547,0.5373335961907005,-124.45386482458231,-44.85757129019139,-125.67283993562079,15
1767650401.278265,2,right_wrist,0.7437,0.5353,-0.7686,-50.61,89.18,-14.7,-0.39648783248329206,-0.8505415563165728,0.2529379614958239,-0.2353695972414876,135.98371394484565,-36.93846100792236,-17.746519530591254,15
1767650401.370943,1,left_wrist,0.8257,-0.448,-0.5944,26.6,85.96,21.84,0.1187331116117065,0.5086058147732812,-0.6411913343684216,0.5622243734637017,-119.50216019825318,-46.39921854192457,-131.2213716102307,15
1767650401.370943,2,right_wrist,0.7745,0.7681,-0.4846,-66.22,69.65,-9.87,-0.47115912955283606,-0.807487942434812,0.23583708420722468,-0.2652417146190284,123.15290531931284,-40.586293524752755,-9.927687034823236,15
1767650402.4673421,1,left_wrist,0.4939,-0.2294,-0.6037,-81.69,-68.32,-57.47,0.15754560625131106,0.6976505992888788,-0.6435385793676128,0.27261900177406845,-170.7158694182627,-35.6730359678562,-88.37237045188098,16
1767650402.4673421,2,right_wrist,0.4846,0.3192,-0.7047,105.42,-90.3,13.23,-0.11935132241685688,-0.920986380660689,0.3503018034444159,-0.1217702549002083,171.8711759749479,-17.933651225518258,-40.364370958671,16
1767650402.53234,1,left_wrist,0.3479,-0.1122,-0.6588,-70.21,-58.45,-47.11,0.16354315576859024,0.7281669048672034,-0.636851262728361,0.19351243892489198,-179.45415984299552,-29.34873455367075,-82.48850996606825,16
1767650402.53234,2,right_wrist,0.364,0.3753,-0.7808,56.7,-88.69,23.73,-0.08594808242957036,-0.9238554820402022,0.36043428362399554,-0.09587023844448693,174.69964751140827,-13.83329565957232,-41.98220402603575,16
1767650402.616329,1,left_wrist,0.2455,0.0332,-0.6744,-31.08,-58.17,-39.2,0.15868600051222265,0.7423125453273137,-0.6312108690913572,0.15925977845034553,177.79977299030514,-25.89795745361576,-80.24508693553501,16
1767650402.616329,2,right_wrist,0.1957,0.1493,-0.7559,49.77,-80.29,13.58,-0.03251681861442456,-0.9266316658656001,0.3711810610839449,-0.05020988164630884,178.6736093207012,-6.730037096792223,-43.58114575052345,16
1767650402.674755,1,left_wrist,0.0781,0.1181,-0.5168,-9.66,-43.33,-21.49,0.14582057757516415,0.7620123054768417,-0.6224034865628287,0.10338039162214759,174.29330075571804,-19.820390024759877,-77.48533828829542,16
1767650402.674755,2,right_wrist,0.1337,0.1654,-0.6842,22.68,-67.76,4.2,-0.017049775403802835,-0.9273383208212438,0.3729097529095293,-0.02629182534685431,179.31039250217458,-3.5247036342975844,-43.79177390164275,16
1767650402.724776,1,left_wrist,0.002,0.1074,-0.4817,-52.5,-27.37,-13.65,0.1548339009483528,0.7641519098142673,-0.6217352362920385,0.0744554752668124,171.2963068657207,-17.837714547450112,-76.89705604437859,16
1767650402.724776,2,right_wrist,0.0107,0.0386,-0.6212,4.27,-52.15,-5.81,-0.009135856998777296,-0.9287171880856747,0.3706737632952933,-0.0013718147252248238,179.08592415334178,-0.5340560113637122,-43.51204355878628,16
1767650402.813622,1,left_wrist,-0.0068,0.0869,-0.4363,-2.31,-11.97,0.98,0.14986827994812849,0.7649343782406826,-0.6229828647008175,0.06562961176247133,171.14171085480996,-16.68653606868962,-77.01891632154647,16
1767650402.813622,2,right_wrist,-0.0337,0.0137,-0.4924,1.05,-4.06,-6.79,0.008142046842413512,-0.9306264265769489,0.3652777299887396,0.020984308521084405,179.98991757272452,2.5794862249370194,-42.86097327563519,16
1767650402.871819,1,left_wrist,-0.0234,0.1542,-0.4065,8.19,9.38,11.62,0.1488459115633247,0.7627768826017773,-0.6257242690861475,0.06697358476148595,171.39522652573697,-16.764871524699114,-77.45542595846108,16
1767650402.871819,2,right_wrist,-0.0844,-0.0761,-0.487,-20.93,17.36,-10.64,0.001605336498132793,-0.932490695052132,0.3607046148321224,0.01872718277610948,179.3970715317867,2.0679070731906464,-42.305662385764414,16
1767650402.924862,1,left_wrist,0.0249,0.1523,-0.4426,56.42,43.54,26.81,0.1404862475371582,0.7542442049277065,-0.632301215347506,0.10758469526827194,175.37265164160658,-19.873798343194753,-79.13674008238536,16
1767650402.924862,2,right_wrist,0.0181,0.0395,-0.5466,-25.9,39.13,-10.22,-0.0194473658292335,-0.9341448676687197,0.3563341602035653,0.0045970036452022385,177.72992012523753,-0.3020066970214749,-41.753213152804875,16
1767650402.980693,1,left_wrist,0.1586,0.1,-0.5627,45.85,57.26,33.81,0.1405353726901857,0.7455027732649561,-0.6371081891750209,0.13626657463668737,177.77311543219633,-22.472917552230076,-80.59207400584725,16
1767650402.980693,2,right_wrist,0.082,0.0478,-0.6666,-49.0,50.33,-8.05,-0.05013663958808779,-0.9344337228093598,0.35237793086899627,-0.012236375441269284,175.1113506432945,-3.3366291502896064,-41.18076572990945,16
1767650403.064532,1,left_wrist,0.2918,0.1083,-0.6403,93.52,53.83,42.28,0.1267313829893089,0.7357584564272086,-0.6403933951114826,0.18026355665818017,-177.1852371339487,-25.31387285391776,-82.70390071953231,16
1767650403.064532,2,right_wrist,0.2606,0.3094,-0.6954,-71.96,74.48,-12.67,-0.1353261397914104,-0.9302781845496171,0.33744985597665095,-0.04895845117609223,167.1456818654169,-10.51083901326901,-38.68823456363656,16
1767650403.115909,1,left_wrist,0.3543,-0.08,-0.6598,84.7,75.04,47.11,0.11575151352928234,0.7191022539438643,-0.6437054760637557,0.23481225601332667,-171.05500606796613,-29.125736052213874,-85.99494355787178,16
1767650403.115909,2,right_wrist,0.3636,0.3265,-0.8154,-76.09,81.27,-12.11,-0.18179658303797755,-0.9238736409698982,0.32884129380732124,-0.07260097384929783,162.66766840787324,-14.697319924166695,-36.932905306268104,16
1767650403.179581,1,left_wrist,0.5954,-0.0117,-0.8457,47.81,84.42,39.48,0.11573222999552865,0.6833845680720079,-0.6410178409090725,0.3296781926327068,-160.71419973076908,-36.795937856945386,-92.80469564131849,16
1767650403.179581,2,right_wrist,0.4856,0.51,-0.8652,-46.97,92.12,-7.28,-0.21766466805554993,-0.9163523158078747,0.3194673611786652,-0.10421674882355786,159.386745407421,-19.273147628499498,-34.902983948837246,16
1767650403.269099,1,left_wrist,0.5773,-0.3528,-0.7652,93.73,75.18,34.58,0.09938359289428124,0.6652530333131312,-0.6341812383528467,0.38128133976415857,-152.99622123556819,-39.29782938183896,-97.06059589800014,16
1767650403.269099,2,right_wrist,0.5802,0.5939,-0.772,-60.06,76.37,-10.22,-0.3024199743179205,-0.8916866006223635,0.3004462252434243,-0.15221442487839204,149.84008678070774,-26.947700775686947,-29.854053913311812,16
1767650403.3252869,1,left_wrist,0.6159,-0.5022,-0.7008,96.32,73.08,27.65,0.0796829012020255,0.6307759771707683,-0.6150099894570066,0.4664064908943522,-139.4092265968506,-43.34640617365911,-105.27154557983451,16
1767650403.3252869,2,right_wrist,0.6608,0.5119,-0.7813,-62.72,80.85,-8.4,-0.33953014877297777,-0.8767183808510649,0.2907145638717593,-0.17767723856740752,145.13733404710354,-30.594482159009125,-26.87345433864784,16
1767650403.423286,1,left_wrist,0.7183,-0.2728,-0.7091,67.34,63.35,29.19,0.07457229953475648,0.6141805719460274,-0.6066604731098788,0.4991836010449934,-133.65657752678038,-44.721217320704156,-109.26574652954001,16
1767650403.423286,2,right_wrist,0.649,0.6407,-0.5754,-52.29,51.73,-12.32,-0.4024036395572046,-0.8494030994322987,0.2696825164990649,-0.20942069105188998,135.87868429376152,-34.946242644687366,-20.689187710535187,16
1767650403.476821,1,left_wrist,0.752,-0.6593,-0.3753,67.76,71.47,15.68,0.05745526229250451,0.5792198983879462,-0.5848064192420016,0.564981994544698,-120.85285078958678,-46.19485224216989,-117.75975557680117,16
1767650403.476821,2,right_wrist,0.652,0.6886,-0.4324,-49.14,87.15,-8.96,-0.43433195595426904,-0.8313949680275725,0.25451753163596585,-0.2352849023318442,130.360349638822,-37.75741206237566,-16.06816006439387,16
1767650404.635649,1,left_wrist,0.2757,-0.2216,-0.5768,-69.37,-53.83,-34.16,0.12164088642418969,0.7752161212236935,-0.5795738098778378,0.219858270366427,-175.66374490664768,-28.80793920255951,-74.67986646990767,17
1767650404.635649,2,right_wrist,0.3806,0.2977,-0.7247,80.43,-82.11,24.5,-0.09742360015275502,-0.9343821757527834,0.3276966814479767,-0.10026702716623262,173.09621081086337,-14.550085838794054,-37.77011391749555,17
1767650404.716158,1,left_wrist,0.1767,0.1142,-0.6608,-32.97,-39.83,-26.04,0.12583563606404588,0.7847646747542204,-0.5757769761880003,0.19180894568831455,-178.50346920063245,-26.48453841293125,-72.88672399563045,17
1767650404.716158,2,right_wrist,0.2669,0.1767,-0.7427,55.93,-63.77,14.42,-0.0365210762821877,-0.9365493452634002,0.3424839598035468,-0.0651634264842593,178.6228160579622,-8.457357572993812,-40.07179049227711,17
1767650404.780587,1,left_wrist,0.1039,0.1415,-0.6593,-39.48,-27.72,-18.9,0.14306943186749851,0.7970151961661655,-0.5718394477019306,0.13152019159532433,175.1993550712919,-21.917593614151638,-70.38698764391627,17
1767650404.780587,2,right_wrist,0.1762,0.0937,-0.7979,32.41,-54.18,14.77,-0.01938504597694366,-0.9359697019898755,0.34804197667221626,-0.04951484043750768,179.8950627437866,-6.095293971119357,-40.78989177952053,17
1767650404.86876,1,left_wrist,0.0756,0.2874,-0.6891,-18.83,-28.98,-13.3,0.14434228331689983,0.8014988307199745,-0.5695529508866491,0.11124012647281473,173.60314735237844,-20.043825255579044,-69.66435185108067,17
1767650404.86876,2,right_wrist,0.0747,0.1347,-0.6983,20.58,-42.14,-3.36,0.004862929420655941,-0.9376482971080975,0.3470364450388476,-0.018913716253917457,-178.72458236614827,-1.8391436523018854,-40.64087583336559,17
1767650404.9267452,1,left_wrist,0.0,0.081,-0.4568,16.45,-10.57,-2.24,0.13325653897816447,0.8087035217343852,-0.5660818039268594,0.08827627097287506,173.05493353417285,-17.076415286046355,-68.93909447810489,17
1767650404.9267452,2,right_wrist,-0.0532,0.2377,-0.5778,-4.2,-22.82,-6.72,0.002804503376376912,-0.9388686742991127,0.34420841236945926,-0.0061899947281592125,-179.4540852988326,-0.555349011373971,-40.27057943369274,17
1767650404.978316,1,left_wrist,-0.0678,0.2445,-0.3889,19.53,14.63,10.99,0.13048683893304938,0.8071263194433437,-0.5679495811285364,0.09462326681647606,173.79007199180734,-17.515617484824798,-69.30812739335335,17
1767650404.978316,2,right_wrist,-0.0908,-0.163,-0.4856,-16.45,0.42,-7.07,0.0005822769927491552,-0.9399223617003543,0.34137456781999226,-0.0030032274049419322,-179.81979963150437,-0.3006926149610098,-39.92195221755727,17
