timestamp,node_id,node_name,ax,ay,az,gx,gy,gz,qw,qx,qy,qz,roll,pitch,yaw,rep_number
1767366478.784749,1,left_wrist,0.222,0.3753,-0.3494,73.78,-80.57,1.26,0.1096214888846969,-0.2825082206877519,-0.9294236059079604,-0.2105801396133718,159.62709093890766,-18.829365869440863,149.59869748751586,1
1767366478.784749,2,right_wrist,0.1718,-0.1937,-0.4187,-73.71,-76.86,-15.68,-0.17341011758935243,0.9647454606601598,-0.10400076431907036,0.16846058374086217,-157.28759883958648,-16.796516775914316,-15.702376873764205,1
1767366478.875645,1,left_wrist,-0.0166,0.1698,0.0102,35.49,-55.93,-2.87,0.08993274310785736,-0.2841332562681357,-0.9351598972539161,-0.1914585097811192,161.36824406628295,-16.081382677225704,148.85386705700353,1
1767366478.875645,2,right_wrist,0.0156,-0.2625,-0.1659,-72.52,-36.33,-15.61,-0.11991383369980617,0.979149755707348,-0.09687707071457137,0.13229233369859353,-164.45356066440615,-13.640801721794757,-13.171650148079802,1
1767366478.9296498,1,left_wrist,-0.1098,0.1122,-0.0586,33.53,19.46,-1.61,0.10828418569166233,-0.2756308624732663,-0.9397324460229732,-0.1708949755639896,164.10234126086667,-17.320963520162984,149.7431018209377,1
1767366478.9296498,2,right_wrist,-0.0137,-0.0669,-0.203,-13.79,42.28,5.11,-0.11390034952584872,0.9774849371559088,-0.10285927685422991,0.1448097965478285,-164.84510943602626,-15.050326251133395,-14.027581598534846,1
1767366479.01791,1,left_wrist,0.1049,0.1386,-0.2455,-28.56,26.6,-6.09,0.11542536916847193,-0.2717842500253674,-0.9362545694313487,-0.1903619888774817,161.94250537596668,-18.63933127210184,150.61264422077667,1
1767366479.01791,2,right_wrist,0.1166,-0.1659,-0.3021,45.08,56.77,8.68,-0.15618311835843784,0.961073784744663,-0.11080268745576616,0.19916520345929722,-158.44879756915572,-20.37810769955138,-17.07146592718494,1
1767366479.072549,1,left_wrist,0.1391,0.2035,-0.2411,-50.26,65.1,-7.7,0.13569522070947357,-0.26492851228974246,-0.9283052535056245,-0.22282066054656863,158.41378498645065,-21.715386919885425,152.3317617735366,1
1767366479.072549,2,right_wrist,0.3265,-0.5065,-0.4968,101.15,77.14,11.13,-0.19899061340641863,0.9442871415878341,-0.11206606563487458,0.23699309471192376,-152.0523430146195,-23.76453482868795,-19.530603307422982,1
1767366479.125939,1,left_wrist,0.448,0.4817,-0.5314,-63.35,116.62,-3.08,0.21612175200955183,-0.24408911631264565,-0.8941922042848307,-0.30680970226228027,148.32626305565492,-32.43120690410761,158.89574925879072,1
1767366479.125939,2,right_wrist,0.5383,-0.2938,-0.5378,89.46,94.01,16.24,-0.23184629633694678,0.9236085410068989,-0.11637481436328104,0.2822259031978814,-146.0314647487071,-27.863736507403175,-23.028532778583116,1
1767366479.183438,1,left_wrist,0.813,0.5797,-0.5109,-118.3,91.28,-7.7,0.24002732361244095,-0.23934372495080383,-0.8670863479899089,-0.36505168178717523,140.03304500465754,-36.22761199623033,162.70494380816197,1
1767366479.183438,2,right_wrist,0.527,-0.9311,-0.4778,78.89,112.77,20.3,-0.26310990648302507,0.8975995875712218,-0.12654395825248452,0.3302647182674224,-139.17166524125713,-31.75586808563462,-28.13536032750108,1
1767366479.2729,1,left_wrist,0.8403,0.5812,-0.5285,-85.54,118.58,-6.51,0.2774295489686348,-0.2267818852310448,-0.838119091019795,-0.41128969250184905,132.0163231922665,-40.66114345974479,168.44628554205931,1
1767366479.2729,2,right_wrist,0.9204,-0.5812,-0.5973,150.99,119.21,12.25,-0.3635299903569021,0.8139887953907234,-0.11406299945649909,0.4384721419251811,-116.91204923928068,-39.11597660332847,-40.55829079374225,1
1767366479.324439,1,left_wrist,0.8789,0.8091,-0.5407,-83.51,102.34,-4.62,0.3063391355894052,-0.21548096254671928,-0.8079949091868059,-0.45482800651947625,123.46522528510482,-43.713637954672805,174.47816048119202,1
1767366479.324439,2,right_wrist,0.7862,-0.8652,-0.6037,62.79,119.91,33.88,-0.3836888485665996,0.7803664732835178,-0.13315089683512776,0.4754806762978729,-109.25429377939386,-39.78595340454926,-48.18125059253367,1
1767366479.378336,1,left_wrist,0.9706,0.4372,-0.5104,-56.91,99.68,3.78,0.37017392469033034,-0.19844600048200062,-0.7547714879661234,-0.5038952781337206,109.56530380508025,-49.35724279573704,-173.52114481700798,1
1767366479.378336,2,right_wrist,0.9765,-1.0209,-0.5163,131.6,78.96,31.43,-0.4267539481376006,0.7410073522116837,-0.12901814404982237,0.5021389152646298,-99.78908190915128,-39.35024577180498,-53.273434797967326,1
1767366480.271753,1,left_wrist,0.4704,0.6149,-0.2411,72.38,-104.02,15.68,0.1715473432380407,-0.23696735216280337,-0.929327261579367,-0.2253193820387287,158.10179450091155,-25.19079508763833,156.3405259372524,2
1767366480.271753,2,right_wrist,0.2479,-0.4241,-0.2908,-96.18,-84.35,-34.23,-0.14237678824390484,0.9676878947082185,-0.09308145301901355,0.18613122174529298,-160.78771590900888,-19.4952423064671,-14.319492800337734,2
1767366480.3253272,1,left_wrist,0.0283,0.242,-0.1991,50.61,-67.2,7.21,0.14748647367536918,-0.2413917632723657,-0.9380453378324665,-0.20012171515814217,160.85550578373235,-21.920112999584184,154.8788349195721,2
1767366480.3253272,2,right_wrist,-0.0512,-0.1244,-0.1225,-38.36,-9.73,-17.22,-0.12797366190574533,0.9714433792073924,-0.08924963484057782,0.17875963060316458,-162.74689488739136,-18.93325704465284,-13.396593561146307,2
1767366480.3813708,1,left_wrist,-0.0273,0.0527,-0.0727,28.91,-19.11,-2.94,0.13826598927138506,-0.23908636689248808,-0.9426536726694471,-0.18741472402070952,162.14264767382707,-20.505084179723298,154.79170238495388,2
1767366480.3813708,2,right_wrist,-0.0512,-0.1244,-0.1225,-38.36,-9.73,-17.22,-0.1136116988213899,0.9749011274072581,-0.08525908561187429,0.17143821625180894,-164.68090996214914,-18.35464186108625,-12.485454506061863,2
1767366480.4706419,1,left_wrist,-0.0132,0.0771,-0.1127,-13.44,17.08,-10.64,0.13937771861760584,-0.22710268467525557,-0.941434848917741,-0.2066365103496308,159.59569760450347,-20.87225000868745,156.67228739064643,2
1767366480.4706419,2,right_wrist,0.1854,-0.202,-0.3616,61.46,45.36,20.65,-0.1541093950250606,0.9605705809984897,-0.09486625418483781,0.21108019116480725,-158.72923261976914,-22.103154978459987,-15.481510649744617,2
1767366480.532884,1,left_wrist,0.1444,0.2718,-0.3314,-49.63,76.44,-23.52,0.17042414660426858,-0.1993114604739258,-0.9283300631864966,-0.2635030279942013,152.3171559984334,-24.926675452954722,161.999490197423,2
1767366480.532884,2,right_wrist,0.3401,-0.609,-0.3065,17.99,66.43,4.97,-0.16225606481865598,0.9516941584940343,-0.10007301342090438,0.24070020794082334,-156.76264765957592,-25.193146524508265,-17.26684132883137,2
1767366480.584228,1,left_wrist,0.5641,0.4782,-0.3655,-105.98,113.33,-16.45,0.20704290732831226,-0.1869201675021764,-0.9056541900654189,-0.31935023645356536,144.8010165287023,-29.63049351633984,166.26849133627346,2
1767366480.584228,2,right_wrist,0.5358,-0.7413,-0.4826,231.0,74.2,43.26,-0.26114319808345193,0.9189076274299826,-0.09875884079365786,0.2786748889133006,-142.9359690542486,-27.42406011547992,-21.620352353429652,2
1767366480.6701598,1,left_wrist,0.5641,0.4782,-0.3655,-105.98,113.33,-16.45,0.24280756490101574,-0.1737634582996786,-0.8782832827708326,-0.3734557834494797,136.53754554851477,-33.799860155381495,171.42722626326685,2
1767366480.6701598,2,right_wrist,0.5114,-0.2289,-0.6256,88.55,88.97,53.83,-0.38927306960712876,0.8470215160140286,-0.11659637375777525,0.3426752315450842,-122.00447108621887,-29.32289802629737,-32.17724707402091,2
1767366480.736274,1,left_wrist,0.8306,0.5919,-0.4895,-89.81,100.17,-9.66,0.31640700897158175,-0.15042658222651112,-0.8193418475124348,-0.4538032447528533,120.88766121207084,-40.92110193540038,-176.91451531229853,2
1767366480.736274,2,right_wrist,0.8696,-1.0414,-0.568,136.5,104.51,12.95,-0.43497027493524754,0.8038887553385341,-0.11649983535775449,0.38857626963652014,-112.0304898391186,-31.56034265675896,-38.06363715580095,2
1767366480.8199391,1,left_wrist,0.8306,0.5919,-0.4895,-89.81,100.17,-9.66,0.34614009196878714,-0.1419802101663794,-0.7875805230153201,-0.4896382097221022,112.65461881728815,-43.1777728989995,-170.90072628932697,2
1767366480.8199391,2,right_wrist,0.8442,-0.5993,-0.547,62.79,110.39,14.98,-0.46290282146740624,0.7405937369525996,-0.1424759865806936,0.4657708534375634,-99.54147861776724,-33.916829284838826,-50.70837824003352,2
1767366481.670835,1,left_wrist,0.3728,0.2791,-0.4509,97.02,-82.04,38.99,0.1879240854714474,-0.23234234369375975,-0.9412652746372859,-0.1572299468568426,166.6593731309316,-25.266879759549408,155.2715802934728,3
1767366481.670835,2,right_wrist,0.0781,-0.2611,-0.3289,-81.69,-68.46,-38.85,-0.18858834379543224,0.9690131923749675,-0.018780869983122967,0.15841448327235466,-157.084998177628,-17.453263192642552,-5.7845583155994555,3
1767366481.7295518,1,left_wrist,0.2884,0.2713,-0.4504,58.87,-65.24,29.47,0.15087706590584257,-0.2536383287703245,-0.950370957672566,-0.09848224192599724,173.2512372365088,-19.678144267800807,151.2857372205823,3
1767366481.7295518,2,right_wrist,0.0903,-0.0493,-0.2118,-59.57,-39.9,-29.82,-0.15720323560467858,0.976767507198283,-0.005890286205948895,0.14552554458061462,-161.22072455013716,-16.40572455477368,-3.4220961460895434,3
1767366481.779767,1,left_wrist,0.0874,0.1357,-0.3538,40.04,-39.41,19.74,0.13682595884296683,-0.2599852424109397,-0.9525187398640659,-0.07996487305685893,175.1139697281009,-17.59206950323052,150.2230385104123,3
1767366481.779767,2,right_wrist,-0.0044,-0.2108,-0.2176,-48.79,0.35,-4.97,-0.13960370415869497,0.9796698539414874,-0.007750974640900571,0.14386697138520832,-163.30799013045367,-16.24350251346527,-3.3053413761628985,3
1767366481.867101,1,left_wrist,-0.0078,-0.0054,-0.2279,-24.15,18.69,-13.23,0.13722798889103835,-0.2554981663806575,-0.9527559474626588,-0.09025115298750674,173.85518690285562,-17.91511075156518,150.94614581246708,3
1767366481.867101,2,right_wrist,-0.0268,-0.0195,-0.2733,11.9,21.7,8.61,-0.1460851332624523,0.9772536409725606,-0.016847304652012108,0.15280910761969435,-162.2966687537212,-17.082251304921126,-4.654939418686388,3
1767366481.920772,1,left_wrist,-0.0078,-0.0054,-0.2279,-24.15,18.69,-13.23,0.13774867446494304,-0.25093006117843664,-0.9528876199763902,-0.10032243406072291,172.61631875245536,-18.2320246068261,151.6801280755147,3
1767366481.920772,2,right_wrist,0.2225,-0.1767,-0.4446,55.23,47.67,28.49,-0.1726665281728697,0.9687800384292493,-0.027980207384979132,0.17569466464421526,-158.59715638669297,-19.31469701198729,-6.99244215463167,3
1767366481.973929,1,left_wrist,0.063,0.062,-0.2801,-49.84,39.06,-27.23,0.14288872406961498,-0.24014008218985708,-0.9514397024343896,-0.12914350967495833,169.16953143414116,-19.507185645908486,153.5363031461666,3
1767366481.973929,2,right_wrist,0.2757,-0.3265,-0.4031,58.59,72.31,26.25,-0.2014985460880487,0.9564849104416431,-0.04014385874635024,0.20717968681026042,-154.23173719621462,-22.343013338359327,-9.979578353923033,3
1767366482.0260758,1,left_wrist,0.5958,0.1996,-0.4597,-105.42,88.83,-31.57,0.19641844120370847,-0.2155070921057164,-0.9256929159549993,-0.24097534014494998,155.86306665374227,-27.87279331986768,159.86328985472423,3
1767366482.0260758,2,right_wrist,0.2757,-0.3265,-0.4031,58.59,72.31,26.25,-0.2300051001481085,0.9421539934463424,-0.05229904916860603,0.2381350793038014,-149.58751126892346,-25.129254272638015,-13.28803941505429,3
1767366482.083178,1,left_wrist,0.6329,0.344,-0.3894,-100.52,107.1,-31.85,0.2293155210716774,-0.19957343098371266,-0.9056250964849877,-0.29568229919555733,148.33689307669448,-32.233330797573274,164.51293835930474,3
1767366482.083178,2,right_wrist,0.5817,-0.5051,-0.4231,89.39,124.6,44.59,-0.2696539544909873,0.9155489066791892,-0.07337206668098763,0.289263693084484,-142.03675965188262,-29.347153183492505,-19.457153400950777,3
1767366482.134424,1,left_wrist,0.8359,0.6334,-0.5724,-165.9,107.59,-23.52,0.25579116290294296,-0.19207800513795587,-0.8704906381690788,-0.3740627885569126,136.82134630805564,-36.0879272761433,169.80463649852803,3
1767366482.134424,2,right_wrist,0.731,-1.1078,-0.467,155.12,109.2,54.67,-0.336735098429073,0.876795226008202,-0.08854921831902703,0.33166043036557413,-130.43488334689425,-31.46390411229664,-26.353692192073616,3
1767366482.218705,1,left_wrist,0.8359,0.6334,-0.5724,-165.9,107.59,-23.52,0.28117421559555256,-0.18405073618740941,-0.8282893374531641,-0.4483337601101402,124.53445303948993,-39.110611642955824,176.10002504651044,3
1767366482.218705,2,right_wrist,1.0033,-0.73,-0.8886,110.11,98.84,48.09,-0.4163305093082063,0.8073695421123139,-0.11729922041774837,0.40132807324919384,-113.37175421571942,-33.39237531503273,-38.836386996265944,3
1767366482.2787268,1,left_wrist,1.0487,1.0336,-0.4909,-54.88,125.72,1.89,0.3539423975798994,-0.16106665576053544,-0.7604720521942058,-0.5200620822834929,107.11991868973529,-44.89873436658912,-169.98636305511545,3
1767366482.2787268,2,right_wrist,0.8755,-0.8325,-0.5314,106.68,83.72,18.48,-0.4484042456420062,0.7727178209581677,-0.1178331413177272,0.43353910143270924,-105.59632107978622,-34.35598768876586,-43.75272766682568,3
1767366483.0279832,1,left_wrist,0.5373,0.5056,-0.2196,124.67,-133.35,25.97,0.10143744655697143,-0.2447339141383761,-0.9544761251435745,-0.137080568416603,167.3128895637911,-15.113724601913502,152.92750050727346,4
1767366483.0279832,2,right_wrist,0.2137,-0.5183,-0.306,-89.32,-112.35,-35.98,-0.22227965298221475,0.9608491143500422,-0.011742787528255154,0.16499346127623374,-153.0217656327957,-18.170591286951876,-5.793855455440981,4
1767366483.084862,1,left_wrist,0.2796,0.3406,-0.1932,66.99,-96.53,12.32,0.07012594650255094,-0.25213810169081785,-0.9598442818893506,-0.10103308283522264,170.71227581232083,-10.694282303893033,151.43459909032927,4
1767366483.084862,2,right_wrist,0.0356,-0.1601,-0.1581,-102.55,-96.25,-34.72,-0.18067415971201914,0.9754609116487539,0.0038303921401924455,0.12577036993580826,-158.73181033941344,-14.285410831955085,-2.245755722112806,4
1767366483.16672,1,left_wrist,0.0,0.041,-0.2411,63.49,-71.82,24.36,0.043202504388986096,-0.2629844597908663,-0.9616581129337387,-0.06470232879693419,174.12118055436898,-6.726120003741634,149.75634507900367,4
1767366483.16672,2,right_wrist,-0.1723,-0.1444,-0.042,-3.29,8.96,-9.03,-0.14968030685790387,0.9817105845208479,0.01675817857995771,0.11644439629858197,-162.64823226101853,-13.511830286066782,-0.11523157935345345,4
1767366483.221421,1,left_wrist,-0.0278,0.1283,-0.0956,42.77,-39.97,18.76,0.0298377073149102,-0.270844763569553,-0.9611226479236522,-0.04467752138794164,175.9888035760267,-4.678052695423638,148.6881927766994,4
1767366483.221421,2,right_wrist,-0.1401,-0.0756,-0.1596,-23.45,36.47,0.35,-0.14048225354137106,0.9816448652467793,0.012368637494483213,0.1283943603944528,-163.62071097577189,-14.806205959181069,-0.6987965725085573,4
1767366483.276473,1,left_wrist,-0.0864,-0.0327,-0.0839,-9.87,40.11,-9.38,0.05502203094337473,-0.26151720463879014,-0.9618731788365726,-0.05814908102116636,175.1890708836845,-7.831624802063448,149.9093069001628,4
1767366483.276473,2,right_wrist,0.083,-0.2206,-0.2416,74.55,53.41,8.96,-0.1771153049937173,0.9725771631115336,0.008921926932071682,0.15047999784264512,-159.03160853078077,-17.20954806316002,-2.156839057493468,4
1767366483.326783,1,left_wrist,0.0893,0.2328,-0.1464,-58.59,84.7,-13.3,0.08366310913721477,-0.2546475322473534,-0.9586026262958761,-0.09610475195575145,171.67123298310824,-12.083971991253705,151.1296448562966,4
1767366483.326783,2,right_wrist,0.2342,-0.1425,-0.2518,90.16,85.12,18.41,-0.217643542615841,0.9576751953354689,0.0009525930376859524,0.18838418501377074,-153.470009254606,-21.17614539829301,-4.93253614932839,4
1767366483.418717,1,left_wrist,0.3714,0.1718,-0.3221,-98.35,108.43,-22.89,0.11989912103035077,-0.2434903749675231,-0.9503596338372914,-0.15216177064878642,165.98750240878408,-17.577432226380715,153.435911929713,4
1767366483.418717,2,right_wrist,0.162,-0.6105,-0.1986,159.74,106.75,15.19,-0.35621673566808915,0.8940602307998846,-0.007275493724263604,0.27150139617154123,-133.05426733109542,-28.70459862132659,-13.612850699175405,4
1767366483.469564,1,left_wrist,0.5724,0.5163,-0.3289,-140.98,135.38,-17.43,0.16111807404962591,-0.23346793529537138,-0.9314223841130084,-0.228004455607111,157.50791790423915,-23.99151937131462,156.6951765640616,4
1767366483.469564,2,right_wrist,0.7598,-0.9897,-0.6285,94.22,152.95,19.46,-0.39605547917760947,0.8565765625308807,-0.027343997805786543,0.32964974703489724,-123.95054291703784,-32.89362414696155,-21.51611852334324,4
1767366483.520503,1,left_wrist,0.7593,0.7193,-0.3665,-129.64,145.11,-2.1,0.20764963739604678,-0.22610006008904104,-0.9040559845321239,-0.2973939605114307,148.93936353268498,-30.659525495002626,160.62983242733716,4
1767366483.520503,2,right_wrist,0.7598,-0.9897,-0.6285,94.22,152.95,19.46,-0.4339045268476885,0.8132891737229964,-0.04792368892798722,0.38469585587264,-113.79505570593986,-35.742917376596765,-30.487924379204205,4
1767366483.570614,1,left_wrist,1.1702,0.8457,-0.6651,-87.99,132.37,-4.27,0.2525090964816854,-0.21455577304508197,-0.877367124952987,-0.3470330020311612,141.60085582800332,-36.29922148372059,165.54111445419906,4
1767366483.570614,2,right_wrist,1.0995,-1.1502,-0.6759,102.9,136.29,29.68,-0.46766770102807736,0.7700852179912286,-0.06484013580249551,0.42901216210688997,-104.07031887434286,-36.87738759298214,-38.79092253318868,4
1767366483.626878,1,left_wrist,1.1024,0.7754,-0.2967,-114.8,78.26,-6.44,0.31558420315900093,-0.20062161134872258,-0.8131849575895478,-0.4459683896044943,123.9486932465812,-43.804387976794985,176.44077255299814,4
1767366483.626878,2,right_wrist,0.9433,-0.7183,-0.608,86.59,85.68,46.34,-0.4988428312837977,0.7364263805416483,-0.07995073941934713,0.449933211694127,-96.88700946118102,-35.6561595581022,-44.21772378884622,4
1767366484.3310342,1,left_wrist,0.4768,0.3543,-0.3187,47.81,-146.51,12.6,0.04961106692880493,-0.2609666177400333,-0.9511950138310945,-0.15704525502662228,163.90611564835928,-10.15703941011334,150.7557170851584,5
1767366484.3310342,2,right_wrist,0.3104,-0.4065,-0.2206,-93.8,-117.32,-52.01,-0.22508481733997288,0.9519277808233418,-0.047573110264313885,0.20225509704222108,-151.27003969990088,-21.324434065174874,-11.242959445043477,5
1767366484.382262,1,left_wrist,0.245,0.6525,-0.1703,104.02,-134.19,13.3,0.0066516777473104305,-0.2725344771416817,-0.9568395050196543,-0.10069198372263231,169.0763842276188,-3.876911636825097,148.57398508888573,5
1767366484.382262,2,right_wrist,-0.0537,-0.3382,-0.1054,-126.84,-81.06,-27.02,-0.1740414288596263,0.9696418823221229,-0.04033665665461919,0.1669645328123234,-158.3373813439137,-18.044231810726966,-8.244300403748472,5
1767366484.4674911,1,left_wrist,0.0224,0.2811,-0.0815,70.7,-79.59,13.23,-0.01830245597233759,-0.2809443561833166,-0.9573939384898595,-0.06428168772673439,172.33563515958485,-0.06152616395394903,147.29578778649852,5
1767366484.4674911,2,right_wrist,-0.1288,0.1069,-0.1488,-58.24,4.76,-16.03,-0.09395571762948546,0.9865615653948505,-0.029292560236682776,0.1304244866778124,-168.49486409185036,-14.58637119000157,-4.878740737580557,5
1767366484.526338,1,left_wrist,-0.2011,0.0083,-0.0063,66.22,-19.74,6.51,-0.0204768860403424,-0.28447663243910276,-0.9578775011585885,-0.03353260366235533,175.646716096996,1.154600277187008,146.87470314883413,5
1767366484.526338,2,right_wrist,-0.1386,-0.1371,-0.1035,20.72,24.01,18.69,-0.1056097664593309,0.9841025310172761,-0.03767334759275634,0.1377298244932894,-166.92594118191758,-15.255462270379812,-6.1430371147908485,5
1767366484.6206248,1,left_wrist,-0.0146,0.0239,-0.0224,-38.78,66.85,-12.04,0.019925357284834667,-0.27066703058021924,-0.9585297189430658,-0.08696618076520077,170.99601588629753,-4.89188750795918,148.84845382614245,5
1767366484.6206248,2,right_wrist,0.2015,-0.2059,-0.3645,100.87,83.3,34.51,-0.1741170755857904,0.9625196013850387,-0.060283501807640014,0.19901045286327704,-157.33599850971063,-21.229844202075547,-11.46941927605125,5
1767366484.680058,1,left_wrist,0.306,0.3221,-0.2406,-109.76,125.16,-17.92,0.09727211663450665,-0.2518369036937358,-0.9433523422820367,-0.1928799304603521,160.84634994243183,-16.300335377211542,152.87421190360797,5
1767366484.680058,2,right_wrist,0.2133,-0.1893,-0.2874,170.45,75.81,38.36,-0.24839004423447147,0.9373544244087197,-0.06688705910789292,0.234936566524865,-147.02620061449315,-24.02966014315531,-15.371627488835845,5
1767366484.777696,1,left_wrist,0.8745,0.7383,-0.2889,-149.73,171.15,19.18,0.1540585325559719,-0.2503032246076923,-0.9157972002987547,-0.2737329943990207,152.14172125462045,-24.78442163759358,155.66524940660608,5
1767366484.777696,2,right_wrist,0.4158,-0.3587,0.0127,239.33,104.37,12.11,-0.4098779860201543,0.8528721479865772,-0.061864154924254205,0.3174617490349536,-122.05667997865045,-29.392851778007007,-24.822274902809692,5
1767366484.866472,1,left_wrist,1.0146,1.0131,-0.3806,-178.15,157.5,1.75,0.24033397541663257,-0.2319572036183909,-0.8293295973172843,-0.4479373337460554,127.42174032171809,-37.332299677906526,167.69693140944958,5
1767366484.866472,2,right_wrist,1.2546,-1.1151,-0.6915,114.52,129.08,31.29,-0.4858903322912406,0.7611855183459704,-0.08787887449539039,0.42045748306304126,-102.08859344859174,-33.68959287494232,-40.68138630859687,5
1767366484.924582,1,left_wrist,1.281,1.2566,-0.5856,-67.76,163.1,14.42,0.296365079487092,-0.21142245185198175,-0.7930331822926863,-0.4884328595582418,118.13230249828048,-42.57743594981036,176.43239299196802,5
1767366484.924582,2,right_wrist,1.2546,-1.1151,-0.6915,114.52,129.08,31.29,-0.5198370024824591,0.7124621865304991,-0.10250314581969436,0.4600654613327308,-92.48354212169272,-33.297656595957626,-48.332457271787945,5
1767366485.6273339,1,left_wrist,0.7257,0.5636,-0.1625,166.53,-148.82,16.03,0.10711003395782942,-0.26748142394165003,-0.9413165556961086,-0.17579610474670573,163.35327636767664,-17.199114202943104,150.8091842623044,6
1767366485.6273339,2,right_wrist,0.2318,-0.4782,-0.3001,-111.72,-122.92,-39.48,-0.19153049690361554,0.9706238568011365,-0.07122159735598543,0.12701528031856216,-156.4451204680188,-12.66709432954022,-11.04478397215555,6
1767366485.725307,1,left_wrist,0.2045,0.2762,-0.2147,102.69,-116.9,23.87,0.039783645051002244,-0.29247972473893724,-0.9530831975614698,-0.06712146250712783,173.95133442428056,-6.609253402964491,146.22944104370234,6
1767366485.725307,2,right_wrist,-0.0966,-0.1005,-0.1357,-37.59,-63.77,-22.4,-0.13295902648992855,0.9888684270353976,-0.042549103673315256,0.051484998436305524,-164.42847978037372,-5.192901893400034,-5.6381161650932246,6
1767366485.7782311,1,left_wrist,-0.1264,0.0005,0.0351,36.82,-39.97,11.69,0.013224560027506802,-0.3028631342592693,-0.9526206053664537,-0.02475914275539525,177.75381131987888,-2.3035235183697904,144.7715078792151,6
1767366485.7782311,2,right_wrist,-0.0966,-0.1005,-0.1357,-37.59,-63.77,-22.4,-0.11937051277748842,0.9921553712597516,-0.03052260299625819,0.021136950252976395,-166.21367644110694,-1.9859989389491999,-3.76429120327964,6
1767366485.832829,1,left_wrist,-0.2377,0.1825,0.1698,-7.84,18.27,-2.1,0.018492260567550625,-0.3017871094181945,-0.9526921562718709,-0.030987614722106326,177.2515178446869,-3.0919310358702217,144.9206053783863,6
1767366485.832829,2,right_wrist,-0.1113,0.1771,0.0566,44.38,37.24,10.22,-0.1369771882500996,0.989226551252242,-0.036583894430241966,0.03646503619920203,-164.08561852664639,-3.5616243673320733,-4.733928947983898,6
1767366485.887529,1,left_wrist,0.1376,0.3016,-0.0332,-99.26,126.35,-8.82,0.058133695686047766,-0.29635086459852794,-0.9489132173784784,-0.09143491872370976,171.89469488920122,-9.469426883054922,145.9846873365532,6
1767366485.887529,2,right_wrist,-0.0234,-0.0161,-0.0703,52.5,87.99,24.71,-0.15808636942820933,0.9836193703233505,-0.05229697350213697,0.0690410072943612,-161.30663567323242,-6.850855108471014,-7.215772666675754,6
1767366485.968547,1,left_wrist,0.1376,0.3016,-0.0332,-99.26,126.35,-8.82,0.09744475155458286,-0.28918951167876633,-0.9401702414493984,-0.15150532605305408,166.26712697618024,-15.715258611290986,147.70916232527063,6
1767366485.968547,2,right_wrist,0.4851,-0.4856,-0.3806,142.17,105.63,23.94,-0.27337727550978036,0.9441203209075518,-0.0777646823627469,0.16689619247092527,-145.70151620145182,-15.820349668923182,-14.327453512216387,6
1767366486.018976,1,left_wrist,0.3187,0.4602,-0.2933,-122.01,144.55,-12.46,0.14089662120385688,-0.27827257073943146,-0.923567569705375,-0.22301448987882416,158.82138521996495,-22.604804150933692,150.7444022669535,6
1767366486.018976,2,right_wrist,0.4851,-0.4856,-0.3806,142.17,105.63,23.94,-0.3305014709497931,0.9146694702707997,-0.08883692876254522,0.215073331546699,-136.98726432948385,-19.555545587182486,-18.864266049166382,6
1767366486.080072,1,left_wrist,1.0882,0.8003,-0.469,-133.98,152.04,-6.79,0.23021903260594936,-0.25594109097578865,-0.8647532821253369,-0.36564342743930345,140.608958681386,-35.826425390563635,160.22636093986156,6
1767366486.080072,2,right_wrist,0.9482,-0.6842,-0.6505,159.18,120.47,28.14,-0.39008974691480164,0.8751260240127094,-0.10060698414197713,0.26807212870701114,-126.84067926345698,-22.998204764129312,-24.7396176319376,6
1767366486.131925,1,left_wrist,1.16,1.0497,-0.5612,-98.21,145.32,-2.38,0.2745301583239427,-0.2404165123208416,-0.8305609690354149,-0.42071554462494765,131.1437456680318,-41.17202392350522,167.07544534970975,6
1767366486.131925,2,right_wrist,0.9848,-1.2825,-0.6622,102.13,164.5,-1.54,-0.421100065347154,0.8339580928696816,-0.11437035624838236,0.3377988394198595,-118.1486323344128,-27.846048322944224,-32.513134126716146,6
1767366486.216749,1,left_wrist,1.16,1.0497,-0.5612,-98.21,145.32,-2.38,0.3169078740462033,-0.2231457886667352,-0.791067089380357,-0.47327393385554933,120.03599589634102,-45.447585044596885,175.661021284558,6
1767366486.216749,2,right_wrist,1.1419,-0.8159,-0.6085,54.18,101.71,25.97,-0.46036529266332044,0.7581749723043196,-0.14257117752509327,0.4392128960099734,-103.01551599308533,-32.32565723666903,-47.2565458318315,6
1767366486.881779,1,left_wrist,0.2386,0.3294,-0.1327,95.27,-120.68,29.12,0.08417575560023983,-0.2977825485639263,-0.9433438901074174,-0.11975934592718142,169.59145821344092,-13.305188037374482,146.17892071203838,7
1767366486.881779,2,right_wrist,0.1503,-0.3382,-0.1537,-173.32,-72.73,-54.6,-0.20672413653665334,0.9691787779840675,-0.037072405376661094,0.12877602431381854,-155.03916828912517,-13.549565645336642,-7.39351582023481,7
1767366486.970804,1,left_wrist,0.0708,0.2625,-0.205,77.91,-81.62,21.49,0.060839363168648075,-0.30722518176014596,-0.9463464974700223,-0.07962139353150988,173.40370982579648,-9.443424028831789,144.57406492298352,7
1767366486.970804,2,right_wrist,0.0127,-0.0381,-0.4168,-55.23,-51.52,-25.48,-0.150701337478011,0.9842042383897621,-0.007859227504749017,0.09257081916562807,-162.35983004541305,-10.360929251225441,-2.5270005258214456,7
1767366487.0229278,1,left_wrist,0.0708,0.2625,-0.205,77.91,-81.62,21.49,0.03758575035304341,-0.31621258405544866,-0.9471280028671937,-0.039312329365936115,177.0804923110195,-5.512282867241501,143.2158904373289,7
1767366487.0229278,2,right_wrist,-0.1327,-0.1484,-0.1298,-51.17,-5.32,-16.03,-0.1299730607112379,0.9875773010884106,-0.0033029115710954265,0.08824493548888312,-164.85520254671343,-9.987819369982441,-1.7143208102379952,7
1767366487.075799,1,left_wrist,-0.083,0.1581,-0.1508,33.39,-5.46,5.25,0.03715333289135901,-0.31772546395481865,-0.9470720626344833,-0.026919650573965254,178.42497263023262,-5.01864314273417,142.97769450349216,7
1767366487.075799,2,right_wrist,-0.0786,-0.2479,-0.1898,-6.02,24.43,7.98,-0.13075951331775162,0.986669045068656,-0.00889966182738383,0.09647248934058537,-164.66466275484908,-10.838738309442451,-2.4970921398327155,7
1767366487.129164,1,left_wrist,0.059,0.1874,-0.1464,-51.59,62.65,-16.17,0.055100210032603236,-0.31260405914969036,-0.9470439480852613,-0.048481227836978585,176.68036519696736,-7.739855942640864,143.69016161937293,7
1767366487.129164,2,right_wrist,0.0771,-0.0517,-0.2289,41.02,47.67,20.02,-0.14732669786616703,0.9815609829524857,-0.017747139103855957,0.12049033112590254,-162.44156427318902,-13.374089102233702,-4.1463041780691565,7
1767366487.185628,1,left_wrist,0.059,0.1874,-0.1464,-51.59,62.65,-16.17,0.07322865060185449,-0.3053272018239533,-0.9458501998307425,-0.08234235870759984,173.5068962277558,-10.883309807326158,144.83829867474515,7
1767366487.185628,2,right_wrist,0.0976,-0.1454,-0.286,49.91,77.49,27.02,-0.1733162424124595,0.9722097550057881,-0.03185978827736632,0.15412535897292332,-158.76229399333204,-16.776595246944265,-6.921106547505214,7
1767366487.268656,1,left_wrist,0.4309,0.3928,-0.3128,-103.46,141.4,-29.96,0.11804917278302526,-0.28998867019598534,-0.9381944464313294,-0.1475199805064349,167.35468209682688,-17.882406507097553,147.64548287757856,7
1767366487.268656,2,right_wrist,0.4006,-0.5226,-0.4821,98.56,118.72,30.73,-0.24325821841070455,0.938569508684506,-0.06153271136384662,0.2369101981249197,-147.73237492875398,-24.505255072722555,-14.6912710920036,7
1767366487.322599,1,left_wrist,0.4309,0.3928,-0.3128,-103.46,141.4,-29.96,0.16208828028736522,-0.2726874867728836,-0.9243924106664354,-0.21181972300347568,160.53112313878574,-24.531126577183116,151.4006920055946,7
1767366487.322599,2,right_wrist,0.4006,-0.5226,-0.4821,98.56,118.72,30.73,-0.28595964071414337,0.911251564852344,-0.07651797048388127,0.28634362159793275,-139.9642766699656,-28.561386239473865,-20.195997094906296,7
1767366487.3774312,1,left_wrist,0.8774,0.7598,-0.4455,-130.41,145.11,-17.29,0.24524036133121846,-0.24545858502780418,-0.8678545571849742,-0.35557800238984694,141.6023738150571,-36.886033629779085,161.66229693705324,7
1767366487.3774312,2,right_wrist,0.7652,-0.589,-0.4748,158.69,115.5,32.48,-0.34861984164669196,0.8711570859889186,-0.08271891893085409,0.33571880792181163,-128.72075352211857,-31.82001969639037,-26.429251893251802,7
1767366487.4277482,1,left_wrist,1.0575,0.7388,-0.4929,-119.63,146.44,-16.52,0.2867684698674659,-0.2283262406381289,-0.8306599375572677,-0.41908834469988265,130.58531186733552,-41.89686980020228,169.24048226653937,7
1767366487.4277482,2,right_wrist,0.8735,-0.6588,-0.4856,109.69,128.94,21.42,-0.38680503393950316,0.8314435398854657,-0.09227151822502398,0.3880328241608368,-119.20759482219343,-35.02071746276268,-33.635806837639876,7
1767366487.524976,1,left_wrist,0.7496,0.8276,-0.4968,-89.04,164.08,-4.97,0.3340838269846284,-0.20483144153354946,-0.7907560375853582,-0.4702520240561401,118.86411241819764,-46.13730309844058,179.1949261299571,7
1767366487.524976,2,right_wrist,1.0472,-1.0975,-0.5314,144.06,162.61,6.72,-0.4696899107955517,0.7140873160643358,-0.09846716274608104,0.5096811852458717,-92.9123770673794,-39.45082101283897,-53.33791175945653,7
1767366488.2764091,1,left_wrist,0.5495,0.59,-0.1693,108.5,-109.41,32.76,0.15827077242998405,-0.2588386422917888,-0.9387464770672251,-0.16342573740030505,165.91707050393683,-22.44237507460698,151.97745694819383,8
1767366488.2764091,2,right_wrist,0.1859,-0.4695,-0.3128,-113.89,-70.14,-35.28,-0.19785608050418935,0.9515168006346161,-0.025361649514884455,0.23414853459175905,-154.43834163652258,-25.820717498337913,-9.006653030549023,8
1767366488.332215,1,left_wrist,0.2011,0.101,-0.3196,48.23,-68.04,24.85,0.12335080527251685,-0.28136942141819893,-0.9453121589919123,-0.10954793284886381,171.71445999027378,-17.148957213491354,148.1004588822178,8
1767366488.332215,2,right_wrist,-0.0063,-0.3113,-0.1649,-66.5,-33.11,-16.73,-0.1719642325330113,0.9600494020959297,-0.023419727840586647,0.2195107391734015,-158.04228043774563,-24.42033372550138,-7.602529588707981,8
1767366488.3845708,1,left_wrist,0.0478,0.1444,-0.142,58.1,-40.39,21.56,0.11368780992775004,-0.2883206130708273,-0.9471226939073141,-0.08309577990515697,174.53686203554858,-15.264125516744983,146.87027417388052,8
1767366488.3845708,2,right_wrist,-0.0068,0.0278,-0.1391,-22.26,-1.75,0.07,-0.15910487142553895,0.9631496898420767,-0.025235698333974144,0.21538680176689332,-159.67100785689348,-24.008315080203655,-7.368165480143192,8
1767366488.475382,1,left_wrist,0.0278,0.1654,-0.1649,37.1,11.48,13.44,0.12199900746717507,-0.2910409621326268,-0.9461578953584124,-0.0720877076128693,176.10213796077002,-15.83223770722779,146.34609195471032,8
1767366488.475382,2,right_wrist,-0.0547,-0.2806,-0.1552,-8.12,25.06,6.79,-0.14618162524443631,0.9640071090156104,-0.03315051827899685,0.2195956951902614,-161.00020834455867,-24.436949135255396,-8.08967009107588,8
1767366488.532227,1,left_wrist,0.2113,0.2577,-0.3094,-65.31,69.44,-21.42,0.1573163827297647,-0.27697771838056773,-0.9360364648496813,-0.14956816411666052,167.97999131388465,-22.17036434276765,149.39586327705752,8
1767366488.532227,2,right_wrist,0.0908,0.0381,-0.2967,65.59,43.54,26.81,-0.17104666426186918,0.955854479937447,-0.04012176490848166,0.23553236679706815,-157.38982859793236,-25.88357843543354,-10.067705941311251,8
1767366488.623466,1,left_wrist,0.2113,0.2577,-0.3094,-65.31,69.44,-21.42,0.17652342346378488,-0.26711858149891193,-0.9281256343028192,-0.18992090810814835,163.38740717651262,-25.41265449253224,151.65874359587832,8
1767366488.623466,2,right_wrist,0.3504,-0.4275,-0.4412,91.84,75.74,37.17,-0.2584688522438057,0.9167836542534823,-0.06451559488779504,0.2975555775475821,-143.37922477544325,-30.81299282324213,-18.471599950554012,8
1767366488.675609,1,left_wrist,0.7901,0.5529,-0.4494,-110.32,105.91,-29.89,0.20561450921061145,-0.25370589324126314,-0.9111137306075572,-0.2514513138464619,155.8432620486379,-30.15001539459409,155.4770605271192,8
1767366488.675609,2,right_wrist,0.4553,-0.5636,-0.5261,109.06,106.26,22.4,-0.30495285879605083,0.8863631309099547,-0.07192380099922337,0.3408681870246072,-134.6083791696101,-34.083413002649436,-23.888744758824856,8
1767366488.7325592,1,left_wrist,0.8164,0.8613,-0.4607,-123.76,109.55,-24.99,0.2650367971269598,-0.22205836851391747,-0.8620231131288483,-0.37062343365371403,138.28700500872424,-38.4283707361111,166.23633738087992,8
1767366488.7325592,2,right_wrist,0.9565,-0.7383,-0.6232,118.65,101.08,40.11,-0.3526774906430543,0.850738016434246,-0.0816580157799253,0.3810451199610467,-124.83112493220804,-36.209627270649,-30.351625795901573,8
1767366488.820916,1,left_wrist,0.8164,0.8613,-0.4607,-123.76,109.55,-24.99,0.29013289933267206,-0.20759478982780724,-0.8279188186643704,-0.4327559747277436,127.48041698164766,-41.30664140017958,172.91676541225755,8
1767366488.820916,2,right_wrist,0.8291,-1.0019,-0.5197,121.87,93.03,43.89,-0.4475227466735681,0.771355326279239,-0.10182553400924685,0.4408694959442374,-105.11408660155972,-36.08576403935801,-43.05217602160637,8
1767366488.875892,1,left_wrist,0.9819,0.9892,-0.4734,-72.94,112.77,-15.12,0.34517524103304065,-0.16576090904085802,-0.7617860091578695,-0.5225509068627254,107.54941810428592,-44.35775547355719,-171.29636300988616,8
1767366488.875892,2,right_wrist,0.8457,-1.0228,-0.5617,126.63,92.19,23.17,-0.48682444151596926,0.7288546160388926,-0.1028453432331701,0.4703145194406766,-95.91970900336356,-35.834543935265195,-48.569713890666456,8
1767366489.6333811,1,left_wrist,0.3113,0.1674,-0.3309,94.57,-98.14,26.53,0.14661841904837317,-0.2920378670236683,-0.936757858647788,-0.12530617575216454,170.84754432488813,-20.35771392794389,147.01655310794595,9
1767366489.6333811,2,right_wrist,0.1703,-0.3216,-0.304,-96.39,-83.79,-27.09,-0.19090571793665945,0.9562059918729282,0.013550058933479726,0.22145316405122134,-156.58038832883423,-25.38402500893717,-3.7214823067535323,9
1767366489.684671,1,left_wrist,0.1728,0.2391,-0.344,46.97,-75.67,15.47,0.12193224991962015,-0.2985286003504068,-0.9413375232217681,-0.0994830064738365,173.13125372935573,-16.795454591966482,145.8241862961601,9
1767366489.684671,2,right_wrist,0.1703,-0.3216,-0.304,-96.39,-83.79,-27.09,-0.15115855272531695,0.9700717203992102,0.021563160042603537,0.18880407662092757,-162.10452654875053,-21.890003955579157,-0.9412674974094658,9
1767366489.7714849,1,left_wrist,0.1005,0.0522,-0.3748,32.69,-44.45,12.6,0.10367931810477683,-0.3033562274308822,-0.9437883759114153,-0.0805549487661967,174.7246380347301,-14.156799383645819,145.01821531247123,9
1767366489.7714849,2,right_wrist,0.039,-0.062,-0.2928,13.3,11.55,4.69,-0.13379888503735984,0.9740311352421871,0.02124605338828498,0.18141061478589798,-164.27530164330147,-21.04398701820087,-0.4393396279334913,9
1767366489.824646,1,left_wrist,-0.0059,0.142,-0.2006,9.73,17.5,-4.83,0.11449906399424657,-0.29612756253349426,-0.9445392188035986,-0.0839291081467002,174.59890929184974,-15.426687961535688,145.91804953346426,9
1767366489.824646,2,right_wrist,0.039,-0.062,-0.2928,13.3,11.55,4.69,-0.13877549414977736,0.9734050736060889,0.019228595195207993,0.18125723717476402,-163.62601127565804,-20.990327743550903,-0.7900597600314861,9
1767366489.87691,1,left_wrist,0.1269,0.0961,-0.2235,-39.97,56.77,-11.83,0.13389090172311324,-0.2905197938209766,-0.9407808093009361,-0.11226283750673921,171.91181281838914,-18.490845604949687,146.9965952890145,9
1767366489.87691,2,right_wrist,0.0815,-0.0703,-0.2826,12.88,39.76,12.88,-0.1438765805318943,0.9705335691491276,0.012103129635565785,0.19291872636457538,-162.7462110698853,-22.206815176327662,-1.9819887635609024,9
1767366489.937119,1,left_wrist,0.2684,0.2347,-0.2367,-80.57,92.4,-26.53,0.16159889368866265,-0.27887094043579297,-0.9327209505009333,-0.16170474524791245,166.70975195121764,-23.05676140022259,149.4305896702637,9
1767366489.937119,2,right_wrist,0.1405,-0.3128,-0.3323,75.6,53.27,32.83,-0.182872478032271,0.9598892649363695,0.00033443305901412787,0.21253268923340188,-157.3930981633171,-24.087921109835495,-4.844058817842869,9
1767366490.0206258,1,left_wrist,0.3177,0.2987,-0.1625,-102.69,117.11,-24.71,0.1959595124800706,-0.26661190442830623,-0.9171915483409966,-0.2219856426382801,159.84246036787326,-28.543957253627678,152.7611307526727,9
1767366490.0206258,2,right_wrist,0.6251,-0.6534,-0.4114,171.99,124.95,26.95,-0.32495307195875134,0.8953532461872351,-0.011017458306033444,0.30434631783385435,-135.71874639719547,-32.536352908298504,-14.952729255671516,9
1767366490.07871,1,left_wrist,0.9662,0.7091,-0.4943,-127.96,121.94,-23.38,0.2557577932909943,-0.23859214045965546,-0.8637336167471978,-0.36280295062555057,140.20838346825153,-37.94734802442827,163.30189043150273,9
1767366490.07871,2,right_wrist,0.6251,-0.6534,-0.4114,171.99,124.95,26.95,-0.3956314895560758,0.8485010773061797,-0.016193867366388504,0.3510831880646135,-122.8251894372706,-35.660083981825,-22.069692696996018,9
1767366490.1323001,1,left_wrist,1.2102,0.9394,-0.608,-102.2,136.78,-16.59,0.2953192516658398,-0.22107740340152526,-0.8298129352187975,-0.4187144777104458,130.0832030891726,-42.474040151081965,170.6684656269282,9
1767366490.1323001,2,right_wrist,1.0468,-1.1283,-0.5793,100.38,137.41,42.35,-0.438462869312345,0.8053192469551048,-0.03940199274220862,0.3970625966846929,-112.14783139963764,-37.226804097789646,-31.130986630844884,9
1767366490.2202508,1,left_wrist,1.1361,0.8926,-0.5026,-83.23,130.97,-17.08,0.3330438224195585,-0.20095229166531406,-0.7953986682311509,-0.4648020518443735,119.74850863846012,-45.77540719269229,179.1722948724389,9
1767366490.2202508,2,right_wrist,1.0541,-0.7369,-0.6251,74.13,116.97,39.97,-0.4987085728743924,0.7238605050997431,-0.08258524316645441,0.4695693837011407,-94.40475127280067,-36.68630770055476,-47.15011969400511,9
1767366490.940576,1,left_wrist,0.4612,0.5319,-0.1542,118.86,-121.38,16.8,0.08642540470328819,-0.29681495859741497,-0.943711531218549,-0.1176438507522993,169.88819885152907,-13.471296826433848,146.27863094869792,10
1767366490.940576,2,right_wrist,0.3026,-0.4255,-0.2113,-114.73,-106.05,-41.09,-0.16521535039948587,0.974371702652732,0.04678979669269785,0.14530790751864553,-161.14900675470426,-17.375252983095525,2.592431771046084,10
1767366491.017767,1,left_wrist,-0.0132,0.0415,-0.1845,67.48,-65.94,13.65,0.06376352702929568,-0.30263367793486945,-0.9475975549475442,-0.08003713799127138,173.41089707958727,-9.746435595838907,145.13861458773886,10
1767366491.017767,2,right_wrist,-0.1479,-0.0708,-0.2445,-39.9,5.6,-11.76,-0.10113580262816067,0.9858880383120044,0.06418612768519812,0.11694642513922746,-169.03958018944732,-14.097647776898722,6.090620102389427,10
1767366491.07585,1,left_wrist,-0.0132,0.0415,-0.1845,67.48,-65.94,13.65,0.04095131161690842,-0.3080872068824592,-0.9494769559518371,-0.0435749142128014,176.6846820740411,-6.0049509915747885,144.21941954688245,10
1767366491.07585,2,right_wrist,-0.1479,-0.0708,-0.2445,-39.9,5.6,-11.76,-0.08377229730813888,0.9873879231374715,0.06651787577228566,0.11671616704094732,-171.1132602919276,-13.982940107584591,6.616133965299856,10
1767366491.130715,1,left_wrist,-0.0732,-0.001,-0.1537,-2.1,34.44,0.35,0.060673501266698446,-0.3070333355832542,-0.948400045393868,-0.05085873554828094,176.5684842017761,-8.413502365514265,144.3749784799573,10
1767366491.130715,2,right_wrist,-0.0342,0.0146,-0.2908,-46.97,20.79,2.8,-0.06158245596233677,0.9885688544619955,0.06215372268538045,0.12278491707735814,-173.6847586965224,-14.5022396131137,6.390851778662639,10
1767366491.1864371,1,left_wrist,0.2108,0.2596,-0.1991,-81.48,103.04,-20.58,0.09292264690088821,-0.2975874042621317,-0.944657122619391,-0.1021275633798846,171.856136406075,-13.670850397894167,146.00672021888784,10
1767366491.1864371,2,right_wrist,-0.0259,-0.1532,-0.1791,21.98,47.6,15.89,-0.07669324652403228,0.9856456620961201,0.05460087785152242,0.1401410677372918,-171.85121504560195,-16.53696676632832,5.155278965346851,10
1767366491.274644,1,left_wrist,0.3924,0.489,-0.2357,-101.92,141.05,-27.51,0.13728573222232046,-0.2828486228542229,-0.9346249015005303,-0.1662094394815609,165.59212506475566,-20.526804915005652,148.94709950771428,10
1767366491.274644,2,right_wrist,0.5568,-0.6251,-0.4778,124.25,118.65,25.62,-0.17830429958010494,0.9589661318310368,0.03403851097358723,0.21779098815829756,-158.75660193329054,-25.457837359153366,-0.7857906877532227,10
1767366491.326335,1,left_wrist,0.5597,0.5012,-0.4509,-105.07,141.19,-21.42,0.22440233351887795,-0.25301876968229636,-0.8942995822253053,-0.29300742675124114,150.5673574013163,-33.342221819575165,157.39964598670625,10
1767366491.326335,2,right_wrist,0.5973,-0.5012,-0.5236,147.42,122.01,40.04,-0.24735659624591144,0.9316911690358745,0.021534886529905747,0.2651462398306767,-148.62161045517146,-30.312927239407216,-6.05379844210922,10
1767366491.42304,1,left_wrist,1.0116,0.917,-0.4704,-111.93,141.12,-21.21,0.2650373072625902,-0.23623461726863795,-0.8643515991651732,-0.356152698127563,141.0070725408252,-38.7881073149015,163.6370899854416,10
1767366491.42304,2,right_wrist,1.0063,-0.8618,-0.6944,118.51,111.44,41.58,-0.35608815823860235,0.8676962860802406,-0.008552677276376751,0.34674375321871825,-129.0403974785513,-36.558663417496,-19.020608691288317,10
1767366491.4841459,1,left_wrist,1.1346,0.8403,-0.5212,-86.73,141.82,-16.38,0.3501421797508563,-0.1968543195666691,-0.7949016219601057,-0.4547309558766105,120.25238092319363,-47.36544065483376,-179.53631788509432,10
1767366491.4841459,2,right_wrist,0.9872,-1.0365,-0.6812,121.66,134.82,28.63,-0.40702502404597585,0.8234183261001295,-0.021906205945050713,0.39475689757612414,-117.43793588721667,-39.21760450626896,-27.473986766858093,10
1767366492.2236679,1,left_wrist,0.7066,0.6964,-0.3055,162.12,-125.79,18.9,0.1194777683918137,-0.2712284039092076,-0.9252107724707237,-0.23694987292062977,156.4959408816132,-20.464032092695984,151.62377722970984,11
1767366492.2236679,2,right_wrist,0.4685,-0.6232,-0.4221,-147.77,-104.02,-57.96,-0.10151389930049348,0.9815065743949978,0.07622530560128034,0.14328110641043132,-169.29231453332224,-17.26181787372683,7.251597843375575,11
1767366492.276041,1,left_wrist,0.2801,0.2972,-0.2904,102.34,-92.4,8.75,0.09659391139631023,-0.2782856647268306,-0.9371623542535042,-0.18695835594788854,161.97061184102205,-16.565066193938748,149.56894730434738,11
1767366492.276041,2,right_wrist,0.325,-0.4153,-0.405,-102.06,-95.62,-45.78,-0.05485545862930312,0.9881485092054471,0.09319571468129807,0.10894017247399256,-174.8113695714556,-13.033618190639459,10.182541181812278,11
1767366492.329792,1,left_wrist,-0.0264,0.2089,-0.1645,66.15,-45.78,14.77,0.0629925183974916,-0.29166893255044535,-0.9485919985930958,-0.10551965037840749,170.43356334402264,-10.4316247215714,146.69251772270135,11
1767366492.329792,2,right_wrist,-0.0312,-0.0669,-0.2772,-28.28,-53.48,-27.86,-0.04071860882559704,0.990193500421166,0.10471420464423825,0.08302868157878267,-176.31805534122606,-9.959764126619183,11.752392519122047,11
1767366492.416022,1,left_wrist,-0.1254,-0.0737,-0.2001,29.4,6.79,7.49,0.06726432268072255,-0.29369137446056964,-0.9491980705504282,-0.09079598187755683,172.23624861120888,-10.42954597737041,146.32447164321854,11
1767366492.416022,2,right_wrist,-0.1342,0.06,-0.1732,11.69,17.85,12.25,-0.02019450975826207,0.9919834275422064,0.09554423525894327,0.08020199726953942,-178.56316834769336,-9.379736853172236,10.885221797164917,11
1767366492.477292,1,left_wrist,-0.1254,-0.0737,-0.2001,29.4,6.79,7.49,0.071437975779554,-0.295734877310124,-0.9495493506159837,-0.07611523305915491,174.02993374133706,-10.409814583401293,145.94617201067464,11
1767366492.477292,2,right_wrist,-0.1342,0.06,-0.1732,11.69,17.85,12.25,-0.024620225495461882,0.9920510539401177,0.0905815458021432,0.08380652977512223,-178.04192993904945,-9.8309044798556,10.265704381324422,11
1767366492.528946,1,left_wrist,0.0351,0.0854,-0.2142,-51.1,73.36,-17.78,0.11293414787252169,-0.27696863425733287,-0.9429363192309609,-0.14630567916900145,167.10163627027194,-17.09899665836419,149.20892380962226,11
1767366492.528946,2,right_wrist,-0.0468,0.0488,-0.2372,35.84,50.96,26.67,-0.04014571370550252,0.9909174919777136,0.07995398426506715,0.10039026926856513,-176.27933164689068,-11.851543817773994,8.839722351089415,11
1767366492.618685,1,left_wrist,0.2181,0.2089,-0.2786,-65.73,108.71,-21.07,0.14981565726040721,-0.2637300683013389,-0.9335939170569935,-0.19079863193320612,162.55635250817656,-22.356767056536476,151.92409680645193,11
1767366492.618685,2,right_wrist,0.3006,-0.4441,-0.3421,108.99,109.27,36.4,-0.15503079239916645,0.9705527972539256,0.051086742930168676,0.1771520980611122,-162.3548672058618,-21.08244646675524,2.7174206650594397,11
1767366492.674446,1,left_wrist,0.3338,0.4065,-0.2455,-113.54,132.79,-32.9,0.18856500759905934,-0.24532627773003085,-0.915529929003893,-0.25702763365525744,154.6127007086083,-28.124242779171205,156.45702743678987,11
1767366492.674446,2,right_wrist,0.3006,-0.4441,-0.3421,108.99,109.27,36.4,-0.20938262708767014,0.9522386664440747,0.03610822537780596,0.21930944727198015,-154.86396866020283,-25.644798419308874,-1.4665267639551571,11
1767366492.727963,1,left_wrist,0.8203,0.7701,-0.5046,-120.26,141.96,-16.17,0.27257051603399,-0.21594964613044138,-0.8536136655201031,-0.3878334361068358,135.32359344072978,-39.260321542304595,168.28206352540295,11
1767366492.727963,2,right_wrist,0.7764,-0.7442,-0.5871,140.35,129.92,38.01,-0.2750483901893843,0.9227866972681759,0.021614239036171806,0.268971967070933,-144.83403875403565,-30.550488786949362,-7.209071737612037,11
1767366492.778722,1,left_wrist,1.099,1.0233,-0.5007,-92.61,151.62,-11.27,0.318910796334233,-0.19576225772143863,-0.8166258910896819,-0.43942598516161213,124.69380406831795,-43.860719354606196,176.86327870281983,11
1767366492.778722,2,right_wrist,1.0024,-0.9506,-0.6617,126.07,116.69,53.55,-0.3345266816501653,0.8900018292721428,0.000789556025033834,0.309819334060436,-134.47710664049194,-33.504865992106595,-14.294529958637252,11
1767366492.873209,1,left_wrist,1.099,1.0233,-0.5007,-92.61,151.62,-11.27,0.3625840736647741,-0.17376949129548305,-0.7744117964413787,-0.48849086271086317,112.39340218483115,-46.9995533548107,-172.83201147661444,11
1767366492.873209,2,right_wrist,0.9955,-1.0268,-0.5797,110.95,127.05,24.99,-0.42692427410343853,0.8094842662007449,-0.02481493564540019,0.4023121995709405,-113.6723568124089,-39.06064368564063,-29.612950017177898,11
1767366493.5796008,1,left_wrist,0.3318,0.3587,-0.042,115.57,-102.55,41.44,0.11804276296245216,-0.29574254664918903,-0.9333852594940438,-0.1655119620235319,165.3881704422043,-18.557524654806933,147.23834341038162,12
1767366493.5796008,2,right_wrist,0.4265,-0.3645,-0.3967,-182.56,-99.33,-76.58,-0.09825475375977329,0.9827285282034987,0.09508211474725295,0.12469977816252145,-169.88514778719102,-15.294270752339047,9.691141476084333,12
1767366493.677367,1,left_wrist,0.3118,0.3221,-0.3426,83.3,-81.55,24.99,0.07874448844552501,-0.317142994105137,-0.9417142358420227,-0.0799620212473195,174.10469148248131,-11.480148336470855,143.36894296670323,12
1767366493.677367,2,right_wrist,-0.1869,-0.0947,-0.0532,-52.36,-45.64,-22.82,-0.05699200849615351,0.9884676407957442,0.12278683284305396,0.06787508930117105,-174.42936436526875,-8.521492495590918,13.74660169711401,12
1767366493.734633,1,left_wrist,-0.1322,-0.0517,-0.1083,6.09,13.16,-2.45,0.07135713598594505,-0.32299809778021277,-0.9418482151962442,-0.05918046557688287,176.19400347224195,-9.94167198810065,142.47329271919028,12
1767366493.734633,2,right_wrist,-0.1869,-0.0947,-0.0532,-52.36,-45.64,-22.82,-0.03197978787418234,0.9895238194351618,0.13199987161127952,0.04894831797495402,-177.09679328895416,-6.045240967167979,15.043163472668834,12
1767366493.823945,1,left_wrist,-0.1322,-0.0517,-0.1083,6.09,13.16,-2.45,0.07493436088948419,-0.321560222677605,-0.9422349088588907,-0.056367022959277896,176.61953229939115,-10.221982247277738,142.61556764037917,12
1767366493.823945,2,right_wrist,0.0346,-0.0088,-0.1523,92.75,65.8,35.0,-0.05184713230130107,0.988342252269324,0.11761561728005522,0.08159677581352484,-175.1484840948836,-9.990631443747468,13.148594367005783,12
1767366493.875537,1,left_wrist,0.1474,0.1503,0.0371,-105.49,87.57,-9.73,0.11818954438692444,-0.3133850687875981,-0.9264461069395665,-0.17180989842009936,165.02206475126567,-19.06725503507862,145.15165358785603,12
1767366493.875537,2,right_wrist,0.184,-0.3172,0.0054,90.79,94.64,42.28,-0.0995388162473965,0.982976817290769,0.10005058452674158,0.11763707436363154,-169.75535645621898,-14.54775599416484,10.312413825491118,12
1767366493.9270122,1,left_wrist,0.4348,0.286,-0.0932,-112.42,124.18,-14.56,0.15337913009172088,-0.30291209057502533,-0.9103093779135266,-0.23676136576405934,158.0931504021587,-25.00394617425671,148.10398142765476,12
1767366493.9270122,2,right_wrist,0.184,-0.3172,0.0054,90.79,94.64,42.28,-0.14693324483379602,0.9737545364558179,0.08202478677110686,0.1532470510302935,-163.99314143664282,-18.817472196584305,6.960623302803588,12
1767366493.983,1,left_wrist,0.6837,0.7091,-0.2684,-162.05,136.71,-19.53,0.18465445349364623,-0.2900588737033884,-0.8820447234657288,-0.32212682036296,147.51543664423556,-30.838401859659207,152.78096655103204,12
1767366493.983,2,right_wrist,0.8286,-0.9374,-0.4963,121.45,184.87,23.31,-0.20853155881875787,0.948928411944273,0.06778781731111758,0.2268353363251266,-155.7454753955875,-27.307946156437197,2.1959535160976653,12
1767366494.07183,1,left_wrist,0.8037,0.7974,-0.509,-145.32,158.83,-18.41,0.22514185763994707,-0.2704470102887926,-0.845800727288861,-0.4009871422900254,136.0364696190223,-36.70833957033159,159.79170453863975,12
1767366494.07183,2,right_wrist,1.2312,-1.0492,-0.9311,122.78,140.56,26.04,-0.3250725096723962,0.884312377561911,0.04380442869889139,0.3322659392300902,-136.13337119054617,-38.034292039262525,-10.131125260339571,12
1767366494.1303911,1,left_wrist,1.2312,0.8857,-0.6583,-75.46,150.15,-10.22,0.31093808633846415,-0.22787874300167393,-0.7704076932530529,-0.507799932186546,114.4202359241796,-45.27820118912563,177.12202002627546,12
1767366494.1303911,2,right_wrist,1.1839,-0.9511,-0.608,106.89,90.37,31.08,-0.3736235129758068,0.8530475148172735,0.03463158134323036,0.3626514326310569,-126.78234560670435,-40.13540314930618,-16.09157089578061,12
1767366494.774691,1,left_wrist,0.6808,0.347,-0.0771,117.67,-152.95,26.11,0.13190333345748045,-0.32670402639185175,-0.9099427946321675,-0.21879236791798248,160.26043039842637,-22.520233649027617,144.46768992050627,13
1767366494.774691,2,right_wrist,0.405,-0.4675,-0.2416,-108.5,-131.04,-50.26,-0.11933290202145823,0.9813000182681159,0.123694073195271,0.08665857660090892,-167.45926713990394,-11.513432922698954,13.099335918436422,13
1767366494.835732,1,left_wrist,0.466,0.4163,-0.1762,154.35,-131.53,34.3,0.10584481079119774,-0.34245375949904844,-0.9232056677394885,-0.13861310791995332,168.94784147642318,-16.880121747651312,140.941281376596,13
1767366494.835732,2,right_wrist,0.2274,-0.3865,-0.2045,-75.04,-115.43,-45.22,-0.08197277967683403,0.9848969409456141,0.14586236762818036,0.04452694485282339,-171.40705464044953,-6.408847757321659,16.36645344619617,13
1767366494.9219332,1,left_wrist,0.3845,0.4163,-0.2489,72.8,-108.08,30.87,0.07583682340913894,-0.3572125675447531,-0.9261371922678445,-0.09443441587435181,172.90950991679284,-12.001478158874114,138.56286469581983,13
1767366494.9219332,2,right_wrist,-0.1825,-0.2625,-0.0742,-33.32,-41.02,-13.93,-0.024168548059899576,0.9858012424258233,0.16616453046664348,-0.0010679565437587725,-177.2483710994718,-0.3395554041923441,19.127280045274567,13
1767366494.9781399,1,left_wrist,-0.0659,-0.0166,-0.1986,25.97,-47.67,8.19,0.03978266228549158,-0.36712998498755256,-0.9287106469728575,-0.03360726266410802,178.08742352695845,-5.65680946404976,136.95558715003,13
1767366494.9781399,2,right_wrist,-0.1825,-0.2625,-0.0742,-33.32,-41.02,-13.93,-0.008708577469717073,0.984799032638114,0.17253098523556867,-0.018113120303603052,-178.65829407405926,1.8722188073829462,19.895996164652047,13
1767366495.037363,1,left_wrist,-0.062,0.0459,-0.1137,-36.12,54.6,-11.06,0.051764992286947684,-0.3622241624026477,-0.9288527136170249,-0.057850480996457454,175.94898081061842,-7.936400138260364,137.6726056214435,13
1767366495.037363,2,right_wrist,-0.1537,-0.1708,-0.0859,-8.4,55.37,14.14,-0.010988670947543843,0.9860151839971762,0.16624396052373003,0.004031330699135673,-178.8350396544054,-0.6648468939837928,19.133576809013793,13
1767366495.117644,1,left_wrist,0.12,0.1371,-0.1693,-74.2,90.02,-20.37,0.07702276595695703,-0.3525813881994414,-0.9265317323034011,-0.10626762091320738,171.5984243638327,-12.571868015975648,139.2595604191604,13
1767366495.117644,2,right_wrist,0.0107,-0.002,-0.1991,58.1,77.42,23.1,-0.06717496993380895,0.9849156055846963,0.14558100625610176,0.06507644664226729,-173.41750382674033,-8.496466389923002,16.326595848860453,13
1767366495.177367,1,left_wrist,0.12,0.1371,-0.1693,-74.2,90.02,-20.37,0.10194584728661034,-0.3417651577140599,-0.9213889590170385,-0.1544215250384374,167.01035489128788,-17.062539118797165,141.25472362455,13
1767366495.177367,2,right_wrist,0.1854,-0.1874,-0.2796,64.19,104.51,28.98,-0.10542741829888455,0.9798447554537428,0.1314991804179377,0.10722537120494152,-169.4160308978975,-13.760014958082643,14.006670242875519,13
1767366495.2734542,1,left_wrist,0.6237,0.4211,-0.3484,-126.91,122.5,-27.58,0.16137175966771458,-0.30975843430673,-0.8883070150880682,-0.29819375329291387,150.83289794933384,-28.12725150404479,149.01003541192915,13
1767366495.2734542,2,right_wrist,0.5929,-0.5524,-0.5344,69.72,139.65,37.73,-0.22110669810539643,0.9501924853343581,0.09458212114156843,0.19824301053859802,-155.07858375830514,-24.743929597958818,5.818939028791786,13
1767366495.3250759,1,left_wrist,0.9633,0.7871,-0.6168,-93.66,154.07,-2.52,0.25618147706014877,-0.27627826268436295,-0.8287136323748076,-0.4138539451250199,134.02679054846018,-40.789348367414995,161.05004206504998,13
1767366495.3250759,2,right_wrist,0.7901,-0.9526,-0.5202,131.81,144.48,27.58,-0.2860251694199397,0.9213682056528008,0.0799085004868426,0.25076854591510767,-145.5765422863833,-30.51819876026235,0.2526085823182264,13
1767366495.377732,1,left_wrist,1.138,0.9287,-0.4943,-125.3,144.9,-13.79,0.29171007996843956,-0.2576146974353495,-0.7867682974216148,-0.47909867781323867,121.55958983454659,-44.89924266333557,169.76609693852947,13
1767366495.377732,2,right_wrist,1.1053,-1.0453,-0.6832,85.05,144.69,24.85,-0.3295409611330166,0.8916786438465929,0.06082435047114018,0.3043227717953303,-137.3395313561961,-35.64803632727051,-6.507930346521254,13
1767366495.4280288,1,left_wrist,1.1878,0.8311,-0.5817,-71.82,139.58,-11.06,0.33191369249346875,-0.23591616308853086,-0.7526787691405245,-0.5173504955192774,111.44229553001118,-48.05197118252551,178.99652139821427,13
1767366495.4280288,2,right_wrist,1.2122,-0.7706,-0.612,68.88,112.77,47.67,-0.3655964447676311,0.8648079602741101,0.03599746549077976,0.34227271860030234,-129.35533999349082,-38.19366004424417,-13.840248505664713,13
1767366496.174965,1,left_wrist,0.6529,0.5266,-0.283,124.04,-138.67,23.31,0.13817201491756576,-0.2621228359277984,-0.9432713935465904,-0.1497971671810312,167.090755644764,-19.82801545867558,151.2057358287659,14
1767366496.174965,2,right_wrist,0.2123,-0.2391,-0.3758,-110.53,-81.48,-33.46,-0.13312160265301204,0.9759893052269172,0.14815581489933416,0.08816671424799298,-166.16434153789405,-12.212909707481787,15.77594382247859,14
1767366496.2756748,1,left_wrist,0.1801,0.0688,-0.3494,90.93,-91.07,23.66,0.09467582025465296,-0.28111495541111564,-0.9535350388019149,-0.05274277846630453,177.22368801778956,-12.134482748094555,147.44270197892695,14
1767366496.2756748,2,right_wrist,-0.0712,-0.0215,-0.2172,-42.28,-46.27,-26.95,-0.06553070551083293,0.9816358559090178,0.1746164514569692,0.040073281742308245,-173.38163135255505,-5.829021906635385,19.835570771395155,14
1767366496.3292139,1,left_wrist,-0.1147,0.0742,-0.2054,33.25,-24.36,7.21,0.07434488956103485,-0.28511112916434256,-0.9554081108422546,-0.01948905230187678,-179.701221255645,-8.810823317361384,146.74486441751557,14
1767366496.3292139,2,right_wrist,-0.0712,-0.0215,-0.2172,-42.28,-46.27,-26.95,-0.04237723259172638,0.9813568940944352,0.1864414145485566,0.019555447126662327,-175.64165556110927,-3.106006247780215,21.395867507710623,14
1767366496.418692,1,left_wrist,-0.1967,-0.0034,-0.1596,2.31,17.64,-0.21,0.078614671224364,-0.28488526386391155,-0.9551298795498481,-0.01967315664979363,-179.58132061544015,-9.287216045262964,146.74961167468328,14
1767366496.418692,2,right_wrist,-0.1118,-0.0493,-0.1405,48.51,56.98,26.88,-0.05882632061322057,0.9835221658046274,0.1635959118760783,0.049598296256222446,-174.25094999105235,-6.708007493434495,18.550654930946198,14
1767366496.470012,1,left_wrist,-0.1342,-0.1401,-0.1308,-27.79,45.71,-10.22,0.09240667522444009,-0.28135543274515096,-0.9545225448712706,-0.03445051772073591,179.19547680830814,-11.291121702898378,147.2326742674278,14
1767366496.470012,2,right_wrist,-0.1118,-0.0493,-0.1405,48.51,56.98,26.88,-0.08475484440837605,0.9826370063672505,0.15130469974425126,0.06593950183480321,-171.46510463795795,-8.93053024247079,16.839375784489658,14
1767366496.5255911,1,left_wrist,0.3567,0.1459,-0.4592,-68.88,124.18,-19.6,0.16920184576001748,-0.26627969976565435,-0.9414933409737741,-0.11855861751115736,171.7181387493443,-22.44177229230488,150.0610770252187,14
1767366496.5255911,2,right_wrist,0.2645,-0.3865,-0.3514,174.02,64.33,39.27,-0.16772685739730372,0.9729274016378172,0.13637902580216218,0.08173575576920615,-161.9008373863967,-11.817484983023718,14.070044436913756,14
1767366496.577662,1,left_wrist,0.5754,0.4909,-0.305,-126.07,123.41,-28.49,0.20468824133927876,-0.25615329507313245,-0.9255656615781915,-0.18925226389117386,163.79395484427172,-28.41535912624105,153.18965936553835,14
1767366496.577662,2,right_wrist,0.2645,-0.3865,-0.3514,174.02,64.33,39.27,-0.2494193369318902,0.9559326179125375,0.1206160393847201,0.09713184554245143,-152.1094123117488,-14.233309638484222,10.831251195034918,14
1767366496.633173,1,left_wrist,0.7271,0.5202,-0.5431,-91.98,140.42,-29.05,0.24992480126120042,-0.23973262017233488,-0.9049917296184807,-0.2470947872012019,156.49940059401476,-34.80834204985057,157.78721813370274,14
1767366496.633173,2,right_wrist,0.7008,-0.8496,-0.6056,83.79,149.31,39.76,-0.29572560083737703,0.9385953025818697,0.09113125754627333,0.1525789005028397,-145.8889980885292,-19.89633302624884,4.931153001284659,14
1767366496.718679,1,left_wrist,0.873,0.895,-0.5309,-94.78,155.4,-20.09,0.29913144099491873,-0.22365462662637597,-0.8759447841549216,-0.3053190529736192,147.70627659196987,-41.3469677354897,163.82287580399003,14
1767366496.718679,2,right_wrist,0.7457,-0.8574,-0.6222,134.4,157.64,6.23,-0.3991760380840467,0.8757887845264166,0.0474754785893589,0.26720511681099335,-128.63214681644405,-30.393282397048143,-8.679389628762848,14
1767366496.771168,1,left_wrist,1.0921,0.7427,-0.5046,-143.85,140.07,-32.76,0.334804800921532,-0.20972553573438146,-0.8366246639122336,-0.37944711973417605,134.6136417700322,-46.00260716275224,171.98596679663353,14
1767366496.771168,2,right_wrist,1.1995,-0.774,-0.651,74.06,151.41,16.8,-0.4304349162833532,0.8422697057603777,0.025145757800855113,0.32353549491066724,-120.65446722359513,-34.51733248318266,-16.655780731512884,14
1767366496.827303,1,left_wrist,1.2444,0.7588,-0.4407,-90.65,114.31,-23.03,0.41637383374285813,-0.17131168809598923,-0.7679997595336996,-0.4554794237417943,113.16789496881279,-52.71271168578516,-168.94503882352137,14
1767366496.827303,2,right_wrist,1.1727,-0.6778,-0.7984,71.4,108.5,41.86,-0.4594302511835794,0.8135888794181486,0.001993553293292007,0.3563607797300106,-113.46284094386179,-35.56978730582221,-23.488974662840832,14
1767366497.531212,1,left_wrist,0.3621,0.5724,-0.2147,96.81,-114.24,14.77,0.12825637817168087,-0.26112804886517244,-0.9372904782138697,-0.19196094134944836,161.85049266233128,-19.918292674620137,152.07743081668482,15
1767366497.531212,2,right_wrist,0.2567,-0.4407,-0.2386,-127.12,-116.2,-39.13,-0.13268255104665577,0.9764858783508022,0.1685175442232737,0.0217372334525524,-165.3590319705696,-5.000870518091191,18.939964506796745,15
1767366497.581738,1,left_wrist,0.1098,0.0395,-0.4163,100.45,-78.05,13.72,0.10801633616712153,-0.2678935076307176,-0.947622748440341,-0.1362962447344626,167.9567277956993,-16.125559861512333,150.14095440229562,15
1767366497.581738,2,right_wrist,-0.0142,-0.2137,-0.3221,-69.44,-42.14,-21.42,-0.10343633209492806,0.9783809439711827,0.1789080633607465,0.00797236108768078,-168.47331081781655,-3.015792064815372,20.42093164783678,15
1767366497.6810381,1,left_wrist,-0.0351,0.2147,-0.203,38.64,-38.92,9.17,0.0941437709091255,-0.27143423652318877,-0.9505449781050592,-0.11800275522773268,169.71291188777698,-14.065782490911115,149.39839032696202,15
1767366497.6810381,2,right_wrist,-0.1015,-0.1108,-0.2455,-45.99,10.5,-2.87,-0.046557037285521866,0.9815801855546642,0.18505966702048218,0.009257496850323262,-174.94984527880794,-2.029016123043565,21.264087593373915,15
1767366497.77559,1,left_wrist,-0.1527,-0.1801,-0.1337,-30.8,-3.22,-7.77,0.08065397046065166,-0.26814420110646614,-0.9500297778929798,-0.13797480051996022,167.00962642313198,-13.134729325295233,149.97864395388157,15
1767366497.77559,2,right_wrist,-0.1303,-0.0869,-0.183,50.4,37.73,8.4,-0.05576204347679447,0.9815353271207187,0.18166191896032197,0.021861914851391433,-174.1614828862579,-3.622139707885674,20.786456242194014,15
1767366497.829775,1,left_wrist,0.1732,0.1391,-0.2181,-55.16,87.08,-19.81,0.1420449506344616,-0.24361955319472675,-0.9359367774297419,-0.21093860233462428,159.49333206778073,-21.63347574102491,154.77877558771834,15
1767366497.829775,2,right_wrist,0.0259,0.1108,-0.2577,42.14,60.48,22.68,-0.074366401496024,0.9814313314251382,0.17097358361134726,0.04505789312325162,-172.44843423845228,-6.538558587080834,19.332482474268286,15
1767366497.91942,1,left_wrist,0.4646,0.3362,-0.3924,-92.12,123.97,-19.11,0.18327416650653236,-0.22941025288463138,-0.9184625421142045,-0.26496806316206933,153.0639827261274,-27.273189642259084,158.60195413835228,15
1767366497.91942,2,right_wrist,0.507,-0.3948,-0.3836,193.69,104.79,33.11,-0.2350839176363694,0.9536998375902157,0.14744565645984986,0.11598254110105106,-154.35011481936488,-16.89084265328963,13.705274599431812,15
1767366497.975133,1,left_wrist,0.8228,0.6324,-0.5251,-108.5,146.09,-5.6,0.2716074605603119,-0.20156483336899278,-0.8629752858213804,-0.3753327342218045,136.67324713208168,-38.322620277538526,169.4231103293488,15
1767366497.975133,2,right_wrist,0.751,-0.8594,-0.5861,78.96,138.88,12.67,-0.2796155575692216,0.9359037537167884,0.13153337859815567,0.1691102423232631,-148.66065399087213,-22.960683202971335,9.478683262560084,15
1767366498.0422258,1,left_wrist,0.9897,0.8467,-0.6593,-95.83,144.2,-8.4,0.31728131902956674,-0.1851961297632745,-0.8265368714788345,-0.42646425196204096,126.5141983893948,-43.035273113279864,177.21423354420062,15
1767366498.0422258,2,right_wrist,0.751,-0.8594,-0.5861,78.96,138.88,12.67,-0.32276465506801827,0.913064367837928,0.1147976619468587,0.22126439938472453,-142.17441571076418,-28.565462792740085,4.362217100487852,15
1767366498.116658,1,left_wrist,0.9897,0.8467,-0.6593,-95.83,144.2,-8.4,0.3574148444388803,-0.1689327963819007,-0.7893744646101531,-0.469685313697114,116.04004496628218,-46.299308685733955,-174.2647117073593,15
1767366498.116658,2,right_wrist,1.0316,-0.772,-0.6852,86.03,114.87,39.76,-0.40892095983448673,0.8598987608204717,0.06856768414890735,0.297751981417278,-126.39271966902035,-34.62136511016513,-8.77856259215017,15
1767366498.170859,1,left_wrist,1.0292,0.9189,-0.5724,-115.01,113.54,-18.69,0.3809765097279888,-0.1568552564995799,-0.7501254182319814,-0.5172670340029661,104.89173287834721,-47.20865016249133,-166.4805362439142,15
1767366498.170859,2,right_wrist,0.9443,-1.076,-0.5417,81.06,116.62,16.45,-0.4464753141768035,0.8270606536448629,0.05193384961290047,0.33754013729872395,-117.96277965173775,-37.2077389533864,-15.698695234907214,15
1767366498.8179588,1,left_wrist,0.6056,0.751,-0.2074,133.91,-133.7,26.11,0.20836658018436394,-0.23751624324646595,-0.897800045908422,-0.30679713170626943,148.0611374294003,-31.324313473185175,159.53786876979038,16
1767366498.8179588,2,right_wrist,0.303,-0.4763,-0.2811,-135.17,-105.35,-39.83,-0.12360448105862704,0.9733459519282981,0.1782910996945216,0.07437656819685183,-167.40710929576073,-10.88646217344482,19.555210027703815,16
1767366498.868778,1,left_wrist,0.2879,0.3104,-0.1723,72.66,-113.26,19.18,0.17482135290579498,-0.25263168311623063,-0.9133297663905587,-0.26728910392871497,153.32441644884176,-27.025723703970144,155.59845447023292,16
1767366498.868778,2,right_wrist,0.0498,-0.305,-0.1693,-108.92,-89.88,-33.11,-0.07227209425643576,0.977461973895871,0.19299404253383842,0.045805387519628114,-172.84999645226716,-6.7445084856671205,21.916241160944658,16
1767366498.925138,1,left_wrist,0.2879,0.3104,-0.1723,72.66,-113.26,19.18,0.14081860350161765,-0.2671017535813785,-0.9259453154284207,-0.22683043662121122,158.09124238458196,-22.45478711254287,152.21867144329966,16
1767366498.925138,2,right_wrist,-0.1035,-0.2094,-0.0439,-52.36,-47.39,-22.47,-0.04740218086206672,0.9776556562575092,0.20274175254408014,0.028952250561464426,-175.3435984937956,-4.348997825635183,23.254452444930735,16
1767366498.977104,1,left_wrist,-0.0312,0.2001,-0.0039,55.51,-64.82,8.82,0.10017789351058,-0.278370998588967,-0.940087917229077,-0.16943637353372554,164.09927348972224,-16.420483598511087,149.31948544519523,16
1767366498.977104,2,right_wrist,-0.1035,-0.2094,-0.0439,-52.36,-47.39,-22.47,-0.022496153396479535,0.9768407599859791,0.2124372957352143,0.012101573992091564,-177.77464114231128,-1.902607652540219,24.501620136415752,16
1767366499.036638,1,left_wrist,-0.1152,-0.0654,-0.0991,-28.84,42.91,-11.13,0.11129159359189567,-0.2718790136798992,-0.9378943772217689,-0.18452674682010656,162.52291979233934,-18.004845229979637,150.45809391760437,16
1767366499.036638,2,right_wrist,-0.1527,0.0473,-0.0615,-36.47,-13.79,3.43,-0.004157719373922685,0.9774846362297493,0.21084859025953978,0.007026470662223746,-179.70402068917508,-0.8875375377077841,24.342704215926762,16
1767366499.116498,1,left_wrist,-0.1152,-0.0654,-0.0991,-28.84,42.91,-11.13,0.12238085022331678,-0.2652600867788857,-0.9353281031466227,-0.19955288352919567,160.89772494792982,-19.5603356133693,151.6558479221345,16
1767366499.116498,2,right_wrist,0.0068,0.0366,-0.12,74.2,70.0,16.03,-0.03437416585592964,0.9786133265744461,0.19823257319937276,0.042874476035991656,-177.10414338406713,-5.5977159610047025,22.760717788004143,16
1767366499.167745,1,left_wrist,0.1035,0.1449,-0.2054,-83.09,79.38,-16.52,0.14363227481314383,-0.2549233674722842,-0.9236818444658683,-0.24737763955686048,155.35154189191462,-23.0457322435094,154.24308700599238,16
1767366499.167745,2,right_wrist,0.3548,-0.5241,-0.4919,109.13,90.51,23.59,-0.09263514832125727,0.975018935117121,0.1882597578361716,0.07290452001103855,-171.04544925176316,-10.197716537829937,21.056127288387177,16
1767366499.225558,1,left_wrist,0.4968,0.3489,-0.3475,-92.05,139.02,-12.95,0.2358080157819741,-0.2233802128980908,-0.8764484685326718,-0.3554348634916195,140.86046380165524,-34.89968605764587,164.1548576565882,16
1767366499.225558,2,right_wrist,0.467,-0.6129,-0.5241,179.9,115.22,21.35,-0.18199059529366304,0.9608627789127123,0.17918320037186125,0.10731040969680278,-161.12997905282762,-15.750001290306583,18.493122455130795,16
1767366499.279129,1,left_wrist,0.8955,0.7974,-0.5373,-88.62,147.84,-6.02,0.28390908310147583,-0.2062334054776133,-0.8438669200109277,-0.40589658326827077,131.88332326213177,-40.284379985568776,171.1325626816918,16
1767366499.279129,2,right_wrist,0.7213,-0.6139,-0.5158,89.53,125.44,21.98,-0.23242314234310935,0.9464077996621499,0.16374886012774623,0.1532255541640046,-155.23873344532043,-21.478112267667917,14.864528112981592,16
1767366499.3688772,1,left_wrist,0.8955,0.7974,-0.5373,-88.62,147.84,-6.02,0.3301007064119062,-0.1876414718415245,-0.806038550064682,-0.4540110763859536,121.30916072712066,-44.63037276839976,179.77829168808844,16
1767366499.3688772,2,right_wrist,0.8379,-1.1175,-0.5817,125.86,152.53,18.9,-0.34589757870393445,0.8948149595387499,0.13096922066124692,0.25001623241663024,-138.95178489042073,-32.55033992342411,4.17904537515377,16
1767366499.421696,1,left_wrist,1.0516,0.8672,-0.5251,-84.98,138.25,-4.83,0.3736443830384888,-0.17229699365284182,-0.7659222386962242,-0.49403111771683383,110.32675197973398,-47.9538172484782,-170.9581661662533,16
1767366499.421696,2,right_wrist,1.0277,-0.6988,-0.6007,71.33,142.87,35.21,-0.38572832171984955,0.8665868890525841,0.103895565828912,0.29907613904563296,-130.80614168370224,-36.7626754755764,-3.625251739675489,16
1767366499.479532,1,left_wrist,1.1483,0.772,-0.3689,-73.08,115.5,-15.89,0.432900945143984,-0.13259912367604176,-0.6945932240026065,-0.5590657360842786,90.00731941009587,-48.559495777579144,-153.06165100913518,16
1767366499.479532,2,right_wrist,1.1048,-0.9697,-0.589,45.92,147.42,32.34,-0.4146469968772671,0.8370907913046514,0.07300824030208257,0.3493088489311566,-122.64837322962107,-40.192052602361116,-12.662585030079885,16
1767366500.167629,1,left_wrist,0.6495,0.6237,-0.1854,152.81,-135.87,12.25,0.17267116922951184,-0.2416530386780241,-0.9176115635128721,-0.264154300972089,153.38220676398544,-26.395031359307698,156.84244466673144,17
1767366500.167629,2,right_wrist,0.1771,-0.4865,-0.3245,-152.81,-60.06,-47.46,-0.07219943602978615,0.9704025920174053,0.21883210194508018,0.07223961517879335,-173.6762649274884,-9.892615159329605,24.86816970077997,17
1767366500.218878,1,left_wrist,0.3738,0.4138,-0.2279,133.14,-109.83,33.39,0.1473308756462164,-0.25655986132533176,-0.9342904575948991,-0.19892710093187307,161.35187334424603,-22.171059895650505,152.9747482730576,17
1767366500.218878,2,right_wrist,-0.0156,-0.2747,-0.2655,-92.12,-50.61,-27.02,-0.030786922798937747,0.9713222830873551,0.2283707811106574,0.05858305298845839,-178.09030557773323,-7.3463931426442866,26.338796503227375,17
1767366500.2709591,1,left_wrist,0.1962,0.2586,-0.2547,86.59,-80.15,31.5,0.12739867544610836,-0.26984728886391435,-0.9416071664682218,-0.1559742358309814,166.24251421446098,-18.91090390556661,150.31932445693545,17
1767366500.2709591,2,right_wrist,-0.0683,-0.0249,-0.1752,-61.46,-24.15,-4.9,-0.0020570594244681832,0.9721395397036595,0.22902816684388755,0.04986564592391812,178.9151704685826,-5.617966976625281,26.56659621276231,17
1767366500.322331,1,left_wrist,0.0693,0.1801,-0.2723,68.25,-73.5,21.98,0.10432041697911722,-0.27894523212074257,-0.9468386889737482,-0.12166883389299724,169.71127021849924,-15.392332444240605,148.56339263412198,17
1767366500.322331,2,right_wrist,-0.0683,-0.0249,-0.1752,-61.46,-24.15,-4.9,0.02616725589342021,0.9720366232572463,0.2297157721198199,0.041118630875232626,175.99039478721178,-3.8942730371510597,26.729230346639383,17
1767366500.375701,1,left_wrist,-0.0956,-0.1835,-0.1469,-40.53,12.74,-22.68,0.10074984762135694,-0.2629745456921487,-0.9470923204632113,-0.15398049565412877,165.63981053287645,-15.772876962137195,150.96321075697455,17
1767366500.375701,2,right_wrist,-0.02,0.0747,-0.1659,48.79,37.59,22.4,0.0057270761795365265,0.9737598614577229,0.22162691840430224,0.05138522989033863,178.04624519293606,-5.597253916333269,25.739614750511937,17
1767366500.427809,1,left_wrist,0.0142,0.2606,-0.1235,-45.01,42.91,-16.45,0.11093228228671626,-0.2545430993310184,-0.9434243259936317,-0.1812522564082479,162.57453832593785,-17.552853805763135,152.51208267396348,17
1767366500.427809,2,right_wrist,-0.02,0.0747,-0.1659,48.79,37.59,22.4,-0.014743802392236794,0.9749023839031287,0.21345511357220007,0.06152135109776604,-179.8565613826668,-7.2528841087122915,24.69098104061667,17
1767366500.478762,1,left_wrist,0.3396,0.2216,-0.1967,-100.87,121.31,-12.88,0.15076133933421687,-0.2438426606550545,-0.9277999509419657,-0.2387446888182091,156.27042949793272,-23.339900412496576,155.51863138864618,17
1767366500.478762,2,right_wrist,0.2708,-0.1537,-0.2952,131.88,77.98,45.15,-0.08205851446633693,0.9733841703463666,0.1965369059917051,0.08463392762894356,-172.58760384739068,-11.362616405389684,22.091908661891146,17
1767366500.575781,1,left_wrist,0.3396,0.2216,-0.1967,-100.87,121.31,-12.88,0.18994518708135105,-0.2320117323580655,-0.9072531681322354,-0.2949289251105455,149.3341282924361,-28.784113935460965,159.35963289897148,17
1767366500.575781,2,right_wrist,0.3836,-0.4485,-0.2664,185.36,87.22,31.78,-0.2601983832605491,0.9414640380815587,0.1734212580812759,0.12596560480253866,-151.8176584334366,-19.11298442823578,16.034375769792668,17
1767366500.6268249,1,left_wrist,0.7203,0.6769,-0.4329,-129.36,128.59,-3.5,0.265284497691769,-0.21383288960567215,-0.8386345962559114,-0.42496075650581977,129.72825860439815,-38.80668145132265,170.1592559101043,17
1767366500.6268249,2,right_wrist,0.8086,-0.8496,-0.6393,124.25,132.37,16.38,-0.32387646012721905,0.9170508453218714,0.15795088804100785,0.1708019397927312,-143.575109273687,-24.555927504359257,11.353742725601897,17
1767366500.719441,1,left_wrist,0.9858,0.8403,-0.4631,-98.21,138.6,-2.17,0.3079995063965299,-0.19813866539319963,-0.8002387457135295,-0.4748634784804288,119.38723352960712,-42.931531813984506,178.07448452311104,17
1767366500.719441,2,right_wrist,0.854,-1.2839,-0.4475,155.19,114.94,25.97,-0.45678328260100626,0.849640623383287,0.1238047731709385,0.23266332322306654,-123.43379892993441,-30.561593127790083,-0.14467658926217616,17
1767366500.770217,1,left_wrist,0.9658,1.0482,-0.3953,-104.02,140.42,-4.06,0.3460330269545274,-0.17930422703691737,-0.7562542347518334,-0.5255384580059766,107.23868802162066,-45.384854759963936,-172.43135171995013,17
1767366500.770217,2,right_wrist,0.9999,-0.8247,-0.5246,105.63,114.17,10.85,-0.5017009574465311,0.8143914184683524,0.10943581557807817,0.2703452775454007,-114.81109589076773,-33.37674535992452,-6.39539449752555,17
1767366501.483724,1,left_wrist,0.3113,0.2996,-0.2001,90.44,-113.61,12.88,0.15677341674281647,-0.2345639438458756,-0.9260300943327556,-0.2507391402240975,154.65391025286917,-24.078163158438926,157.0630773412214,18
1767366501.483724,2,right_wrist,0.2103,-0.4524,-0.3924,-109.69,-76.44,-32.69,-0.1181164345638538,0.9479671280842596,0.29545289591338575,-0.010696646857664372,-166.67086904569413,-2.838192392890589,34.28967905426107,18
1767366501.566519,1,left_wrist,0.083,0.263,-0.4011,24.78,-51.66,10.99,0.1351439175591807,-0.2415572286422504,-0.9314377028274282,-0.23624147093386527,156.2514360149456,-21.462238895573453,155.48647724452192,18
1767366501.566519,2,right_wrist,-0.0434,-0.122,-0.3211,-50.33,-29.54,-11.55,-0.0447895040097488,0.9461254765730671,0.31885772433609894,-0.03420869101780355,-173.87844352570863,2.0727527383858932,37.359939881730995,18
1767366501.616805,1,left_wrist,-0.0332,-0.0337,-0.3123,33.81,-40.39,5.6,0.12044550122358089,-0.24624602362795803,-0.9376532421337336,-0.21368709506780578,158.78798885990923,-19.336248306409978,154.2248821481241,18
1767366501.616805,2,right_wrist,-0.0703,-0.1103,-0.3196,-41.93,2.94,-1.61,-0.030459970796569157,0.9464549144964529,0.31989754068767856,-0.03099755581588978,-175.55226783826615,2.24584989966559,37.43727281350494,18
1767366501.670038,1,left_wrist,-0.0942,-0.0117,-0.2338,36.61,-10.29,3.64,0.11710473574434012,-0.24664252415398485,-0.9421778787939934,-0.19430592079617726,161.02902507139586,-18.452308600410717,153.76990076972,18
1767366501.670038,2,right_wrist,-0.0703,-0.1103,-0.3196,-41.93,2.94,-1.61,-0.016366195423498205,0.9465454815655612,0.3209700581836568,-0.02760472287054927,-177.20596516726212,2.392916646491873,37.52157927176484,18
1767366501.733095,1,left_wrist,-0.0834,-0.1244,-0.1728,18.62,24.01,-1.61,0.12395483411640491,-0.24390465490262184,-0.9473464569610246,-0.16637430360305358,164.42362976996105,-18.422116200688073,153.66543638536285,18
1767366501.733095,2,right_wrist,0.002,-0.06,-0.2245,40.46,55.44,18.2,-0.04544782259087326,0.9487795402318984,0.3124612043072216,-0.010948756184000725,-174.65890398480857,-0.4369103959274754,36.43611099722987,18
1767366501.818218,1,left_wrist,0.1225,0.2006,-0.1557,-21.35,73.78,-10.92,0.15181484840927426,-0.2344778981242331,-0.9417862871114814,-0.18711214953198818,162.34931714890533,-21.94408723814377,155.48675935822556,18
1767366501.818218,2,right_wrist,0.2899,-0.2743,-0.2128,131.53,75.67,30.94,-0.15727118252447528,0.9461577607145509,0.2816849774718114,0.02654883149377269,-163.4163912866066,-7.980763769737999,31.993127864446933,18
1767366501.8692758,1,left_wrist,0.2616,0.2152,-0.3328,-77.56,120.4,-25.41,0.19308583200145624,-0.21847360825558512,-0.9270226353692854,-0.23583082387396995,156.56827108903377,-27.453946355608867,159.27779553439862,18
1767366501.8692758,2,right_wrist,0.2899,-0.2743,-0.2128,131.53,75.67,30.94,-0.22363617313093037,0.9371542751111099,0.26460585467975223,0.041381981314579784,-156.10172935493853,-11.298091652912369,29.135662144614603,18
1767366501.920165,1,left_wrist,0.5207,0.2464,-0.428,-112.91,121.31,-36.4,0.2305248383946806,-0.20046593709962843,-0.904770222185447,-0.2967533521164859,148.22094813444573,-32.42002767741442,164.47559747383133,18
1767366501.920165,2,right_wrist,0.4831,-0.67,-0.3601,148.96,116.55,12.46,-0.30034818482748243,0.9177305596645905,0.24981734877828513,0.07178356342466424,-147.50775244922795,-16.36887683093131,25.65548914861218,18
1767366501.978553,1,left_wrist,0.8652,0.7774,-0.4519,-157.92,116.2,-13.79,0.29509283484185245,-0.17537247978627665,-0.8334394699059863,-0.4330627693088382,126.09015079759301,-40.07416188620015,177.24821420003516,18
1767366501.978553,2,right_wrist,0.9374,-0.7335,-0.7149,78.26,154.91,28.21,-0.35035813961662715,0.9017573337251176,0.22045456009058798,0.12442938564747645,-141.42781263656173,-22.264715877725965,19.597499729219418,18
1767366502.035824,1,left_wrist,1.0799,0.9194,-0.6495,-31.92,134.47,-6.44,0.34348922286768174,-0.15295270114871276,-0.8072462432245032,-0.45494409303231415,119.08238488265246,-43.926150567355585,-174.7745110546593,18
1767366502.035824,2,right_wrist,0.9823,-1.0063,-0.631,83.23,126.63,27.86,-0.3983118547623651,0.8812836547117583,0.19434882494650713,0.16405889349731378,-134.57418466317668,-26.358591837067202,13.676630944522136,18
1767366502.086258,1,left_wrist,1.0799,0.9194,-0.6495,-31.92,134.47,-6.44,0.3858367872302196,-0.12981975813802776,-0.7818422832393487,-0.47222817382694177,111.87613484848342,-46.54677811588787,-166.42682504548762,18
1767366502.086258,2,right_wrist,1.0263,-0.8481,-0.5588,73.57,114.1,20.65,-0.43839440829755116,0.8589196839124882,0.17228474751339148,0.20096090449477585,-128.02969158937844,-29.75391940823816,7.928832739494261,18
1767366502.8182888,1,left_wrist,0.5988,0.5705,-0.1645,152.46,-138.53,41.65,0.17544719227125005,-0.20761301052690037,-0.9377507172917809,-0.21619138003824853,158.5129888370702,-24.76009560802393,159.8024584678285,19
1767366502.8182888,2,right_wrist,0.0605,-0.2874,-0.1044,-146.86,-68.67,-36.12,-0.06552318785080005,0.949451293347209,0.30689641046434263,-0.00797161585141456,-172.56763414881158,-1.4371483441576811,35.73200478635264,19
1767366502.8689148,1,left_wrist,0.3445,0.4641,-0.1723,119.63,-112.7,37.59,0.14415981771216205,-0.22347866746741848,-0.951210313682104,-0.15644222987728307,165.61956887515615,-20.131480248743372,156.1229937361463,19
1767366502.8689148,2,right_wrist,0.0605,-0.2874,-0.1044,-146.86,-68.67,-36.12,0.0016977956428989923,0.9460715485476032,0.3235567578930296,-0.016023948965420406,-179.5897371381494,1.8004306099788983,37.76785368647959,19
1767366502.927595,1,left_wrist,-0.06,0.1279,-0.2006,47.74,-67.48,8.96,0.09352801855154948,-0.2366736508070492,-0.9624530898573143,-0.09445709387649147,171.88496609219624,-12.987805581739034,153.29464758210833,19
1767366502.927595,2,right_wrist,-0.0908,-0.0356,-0.1967,-64.4,-6.58,-25.48,0.028830765127428114,0.9418887301521197,0.33438499339896804,-0.014180380254651875,177.42799832889804,2.636182408592729,39.0321013183232,19
1767366502.979012,1,left_wrist,-0.1259,-0.001,-0.0981,19.67,-11.9,0.84,0.08729520228042638,-0.23659353144876752,-0.9640458184041529,-0.08377773303740807,172.9398514588786,-12.00257723422348,153.1654328510625,19
1767366502.979012,2,right_wrist,-0.0024,-0.1142,-0.1469,12.04,15.19,-0.7,0.017706728933896448,0.9420287169236854,0.3348863253550234,-0.010932398263240804,178.50716153069402,1.8599613912215527,39.11583836035121,19
1767366503.0323489,1,left_wrist,0.0966,-0.0376,-0.2435,-6.72,68.53,-14.42,0.11833702665478274,-0.22869388211057293,-0.9619879158420537,-0.09096541200677528,172.78885680432333,-15.62166785022173,154.2450358810784,19
1767366503.0323489,2,right_wrist,-0.0024,-0.1142,-0.1469,12.04,15.19,-0.7,0.006596722209552122,0.9420589005439184,0.33529315716441793,-0.007746607050235493,179.58543037229754,1.0897851321628742,39.17889976782135,19
1767366503.082751,1,left_wrist,0.2679,0.2186,-0.3714,-36.47,104.72,-22.4,0.15960962337771112,-0.21631914690728893,-0.9555225382611799,-0.12127437355616331,169.96669952456546,-20.946074312582457,156.34712352047922,19
1767366503.082751,2,right_wrist,-0.0361,-0.0171,-0.163,31.43,52.08,16.87,-0.014698702497791835,0.9444450793816244,0.3283119017923149,0.004328431382401828,-178.57169490964694,-1.0214917220676056,38.32463698225801,19
1767366503.135564,1,left_wrist,0.4538,0.2284,-0.4665,-93.59,123.83,-34.93,0.20301477473458182,-0.20090849128023652,-0.9419251532964977,-0.1766289471132502,163.6323024892095,-26.963445997856205,159.86834107334644,19
1767366503.135564,2,right_wrist,0.2547,-0.283,-0.407,129.01,85.19,30.38,-0.08373505909798494,0.9452593854771676,0.3146046692419367,0.02229430726342449,-171.6668843219701,-5.441805147202439,36.42059905621593,19
1767366503.224952,1,left_wrist,0.4538,0.2284,-0.4665,-93.59,123.83,-34.93,0.2455916812271369,-0.1846426755835756,-0.9232205424530978,-0.23077183202889942,156.53960979890675,-32.59458939185226,164.3283412817078,19
1767366503.224952,2,right_wrist,0.3967,-0.3792,-0.3694,135.66,87.92,31.08,-0.22515887653078764,0.930828076537409,0.2818258180966972,0.05862406078726051,-156.58715585231687,-13.65346653786511,30.847388742923883,19
1767366503.2779882,1,left_wrist,0.978,0.6598,-0.529,-99.47,133.42,-24.71,0.3284471820270019,-0.15846857654336255,-0.8612735817723985,-0.35386152123081344,136.56330370331347,-42.681132435410866,176.8403209447535,19
1767366503.2779882,2,right_wrist,0.8721,-0.9082,-0.7442,112.84,158.62,26.53,-0.29309864853118894,0.9144294084072799,0.25728338695672526,0.10824646906563982,-149.1680894260838,-20.413099923000793,25.744442675885438,19
1767366503.3283432,1,left_wrist,0.978,0.6598,-0.529,-99.47,133.42,-24.71,0.36972658925518304,-0.14256652291057825,-0.824181082185954,-0.40460175420987304,125.41055449255143,-46.45293221444906,-174.65455845175038,19
1767366503.3283432,2,right_wrist,0.8721,-0.9082,-0.7442,112.84,158.62,26.53,-0.35872299620201853,0.8907221429907446,0.23075784475830555,0.15710726610925402,-140.74444853727022,-26.45111777729637,19.466335471110284,19
1767366503.383529,1,left_wrist,1.1112,0.8706,-0.4904,-115.5,127.68,-18.2,0.40596960182919717,-0.1311967544053689,-0.7798119323999957,-0.4581150991953061,112.40435184436775,-48.88282537160746,-165.2574330537232,19
1767366503.383529,2,right_wrist,0.9711,-1.0219,-0.5734,78.19,128.1,16.31,-0.4048809233059854,0.8678206298428448,0.2091189877438489,0.19806070111723068,-133.76300733371792,-30.870467434976764,13.651111393889355,19
1767366503.468599,1,left_wrist,1.036,0.712,-0.6661,-85.75,127.47,-18.76,0.4383650789103331,-0.1153919241609554,-0.7419601497817055,-0.49397965298813595,101.42049509279309,-49.86265157500243,-156.03278324490608,19
1767366503.468599,2,right_wrist,0.9887,-0.8423,-0.4958,68.11,114.45,25.76,-0.486084700375668,0.8142608862679038,0.1625777297082059,0.2725240447333601,-118.32433353967355,-37.00354495262402,-0.012782503747518478,19
1767366504.130551,1,left_wrist,0.5392,0.5978,-0.1479,168.42,-122.43,23.1,0.16944615944988345,-0.20752787084479424,-0.9385222869548183,-0.2177064508906632,158.2451219074325,-24.105513954925605,159.76163141858004,20
1767366504.130551,2,right_wrist,0.2918,-0.509,-0.3089,-106.19,-104.79,-9.31,-0.172196409215278,0.9367131323963771,0.30453948083996657,0.013138069083981931,-161.5023059183156,-7.4403774113059225,34.806991988791026,20
1767366504.221026,1,left_wrist,0.3997,0.5222,-0.3314,127.68,-82.67,23.31,0.14991963537963185,-0.21453482110178915,-0.9519728620241058,-0.15889173493953226,165.24728659110374,-20.708552235984246,157.31012279513916,20
1767366504.221026,2,right_wrist,0.0102,-0.4412,-0.0781,-75.32,-77.84,6.51,-0.09435572286513359,0.9459951405031399,0.30834517241048376,-0.033368343653705945,-168.51563753391565,0.2832897435351255,36.135031594997955,20
1767366504.274459,1,left_wrist,-0.1108,0.0376,-0.0805,9.66,-20.23,8.33,0.11074050023033762,-0.22537810643841721,-0.9617917306093927,-0.10907757642319162,170.4621302023208,-15.199810680705076,154.89900473831975,20
1767366504.274459,2,right_wrist,-0.1586,0.0132,-0.1357,-95.69,26.81,-16.1,-0.05654713241327047,0.947438892200754,0.3146787069754837,-0.011801641304576888,-173.42017379821763,-0.7577982595589273,36.70282389046767,20
1767366504.3272388,1,left_wrist,-0.1108,0.0376,-0.0805,9.66,-20.23,8.33,0.10020880989871425,-0.22910249026695728,-0.9627885612107592,-0.10251063249184572,171.02324801328248,-13.882448733810381,154.32504005919273,20
1767366504.3272388,2,right_wrist,-0.1362,0.0693,-0.2264,-39.83,39.55,-3.43,-0.04209624425357333,0.9480912463316028,0.31510899438709433,0.00756415927156836,-175.6920054889825,-2.3424935766009787,36.68151891369395,20
1767366504.387447,1,left_wrist,0.0283,-0.0063,-0.1918,-62.79,57.82,-9.8,0.11653411038867321,-0.22552161469076165,-0.9584373784412025,-0.13022132709332687,168.14712191404,-16.38657921771824,155.23076803744715,20
1767366504.387447,2,right_wrist,-0.1362,0.0693,-0.2264,-39.83,39.55,-3.43,-0.027792439429883433,0.9481281801936919,0.31554195630717274,0.02671718628479888,-177.94123750090094,-3.9107223167644296,36.745122599686916,20
1767366504.4748878,1,left_wrist,0.2074,0.1952,-0.2489,-105.21,101.71,-20.79,0.1491111528942446,-0.21556578367854226,-0.9464809466966104,-0.1883376609440956,161.7187169468442,-21.31284170070609,157.80723049064542,20
1767366504.4748878,2,right_wrist,0.1635,-0.2352,-0.4294,126.28,60.27,26.88,-0.10735637052706744,0.945919034734919,0.301829140643297,0.05109754682901019,-169.94776028804588,-9.292511951589303,34.575227849271066,20
1767366504.5297222,1,left_wrist,0.2952,0.4699,-0.4153,-110.74,132.09,-18.69,0.2320994598193891,-0.1884273380030664,-0.9018817462907059,-0.3118241407464351,145.7567220472746,-32.42294780620285,166.63429634708737,20
1767366504.5297222,2,right_wrist,0.1635,-0.2352,-0.4294,126.28,60.27,26.88,-0.1719919269695575,0.9396674885712845,0.2897906211978625,0.058865812193414746,-162.7988602736164,-12.14062950914512,32.43624614140313,20
1767366504.6158988,1,left_wrist,0.5939,0.4997,-0.5222,-123.2,138.88,-18.83,0.27559620272967394,-0.17379018794153064,-0.8678784004022001,-0.37500771422938767,135.59754623519967,-37.496524608422305,173.1261360559762,20
1767366504.6158988,2,right_wrist,0.8774,-0.7398,-0.7383,139.3,136.43,11.34,-0.32714190090540074,0.8984640224733107,0.26107995163727105,0.13258143100057299,-145.36490372595716,-24.14577872918381,24.775293971923364,20
1767366504.671403,1,left_wrist,0.7281,0.5773,-0.6832,-95.27,134.33,-20.79,0.3166451708782115,-0.15710510344156003,-0.8364291519839377,-0.4188556982345539,126.72914888820198,-41.39995216800872,-179.81341956208033,20
1767366504.671403,2,right_wrist,0.8774,-0.7398,-0.7383,139.3,136.43,11.34,-0.3986759577188452,0.8671784653325264,0.2445958738348197,0.1709732391442212,-135.73710824670144,-29.443010319295166,19.304453460121188,20
1767366504.728069,1,left_wrist,1.0175,0.7081,-0.6061,-72.52,139.79,-17.78,0.3941530397179014,-0.12213670925411682,-0.7584523130560348,-0.5044562363115999,105.0874777838016,-46.14684689481525,-162.14729833926862,20
1767366504.728069,2,right_wrist,0.8774,-0.7398,-0.7383,139.3,136.43,11.34,-0.465638614290458,0.829341642113124,0.2273800270586208,0.20897713949996968,-125.26925001720035,-33.94388820866075,12.710954520938095,20
1767366504.7855208,1,left_wrist,1.059,0.6861,-0.4631,-51.94,112.84,-16.94,0.42466121668915835,-0.1027342850750191,-0.7293164241717056,-0.5265036288038338,97.11038362423025,-46.6859656702079,-154.3156559954337,20
1767366504.7855208,2,right_wrist,1.0394,-0.8969,-0.6451,112.84,107.03,24.36,-0.5178216194136284,0.7957164724853092,0.20849846495368676,0.23499884254042508,-115.94499380885267,-36.15097129517419,6.287842915207831,20
1767366505.482584,1,left_wrist,0.7174,0.7857,-0.1366,144.76,-131.04,38.36,0.21857860999785797,-0.18269384508550535,-0.9175367793241623,-0.2774393786157996,150.23223600297158,-30.164262022877903,165.67130662452556,21
1767366505.482584,2,right_wrist,0.4133,-0.8086,-0.1991,-206.15,-125.65,-44.66,-0.1742402771493568,0.9156521281035341,0.35660122836123215,0.06369513364178525,-163.62252692647593,-13.940477661788654,40.54110392321907,21
1767366505.5667598,1,left_wrist,0.2635,0.2777,-0.2796,93.87,-95.48,16.52,0.1904927368090735,-0.1909065998925811,-0.9341713486488153,-0.23364733832016243,156.02949163219367,-26.430719161318656,162.6080673437647,21
1767366505.5667598,2,right_wrist,0.042,-0.2162,-0.3479,-60.41,-71.82,-17.85,-0.09384446833065971,0.9192438994534183,0.3818214190014754,0.0199066087797257,-170.89405277313176,-6.215120650402128,44.61713621359436,21
1767366505.616805,1,left_wrist,0.0273,0.2089,-0.3128,51.03,-70.0,12.67,0.162904437102147,-0.19755951207233263,-0.9441786757476379,-0.207265558705761,159.20237266860408,-22.92440905246535,160.62591096733658,21
1767366505.616805,2,right_wrist,0.042,-0.2162,-0.3479,-60.41,-71.82,-17.85,-0.06140996847205486,0.9184360448569459,0.39077358162169745,0.00023491773437606055,-173.526080244839,-2.7757082454893736,45.94027854569166,21
1767366505.679481,1,left_wrist,-0.0712,0.0903,-0.2796,17.57,-9.24,0.42,0.12844292903369903,-0.2034263111116512,-0.9551953905298408,-0.1724004519695202,163.02161561696445,-18.392073524038906,158.72331091163846,21
1767366505.679481,2,right_wrist,-0.1713,-0.2796,-0.1645,-50.19,11.62,6.93,-0.04490924110722338,0.9207576632518324,0.3873965119109091,0.010603215807455563,-175.72199604122616,-3.113916868865757,45.520217170096494,21
1767366505.739111,1,left_wrist,-0.0439,0.0595,-0.1898,-7.07,36.75,-11.48,0.13755750850977946,-0.1956786018279064,-0.9544158993626629,-0.1785444137547206,162.2848811329594,-19.41747457802495,159.88159377689115,21
1767366505.739111,2,right_wrist,-0.1713,-0.2796,-0.1645,-50.19,11.62,6.93,-0.028403496753990048,0.9226917254079552,0.38391694088013756,0.02100008907299493,-177.91640947095559,-3.472093703103893,45.11963375893017,21
1767366505.8186738,1,left_wrist,0.0849,0.1508,-0.2386,-50.12,75.53,-18.83,0.16187924742542742,-0.18383741331927483,-0.9462848463089305,-0.2110542687631289,158.39937466538152,-22.579631478775315,162.37381239221347,21
1767366505.8186738,2,right_wrist,0.1552,-0.2869,-0.3719,-15.26,78.68,21.35,-0.037732979974691404,0.9258119501425862,0.36932117707965406,0.07106562710558333,-178.99151885079704,-9.175437479196535,43.41476770789305,21
1767366505.871038,1,left_wrist,0.0849,0.1508,-0.2386,-50.12,75.53,-18.83,0.18458119462224526,-0.1712268398048568,-0.9368570450372923,-0.24271388317576614,154.31170758960099,-25.402252571756396,165.16847830454427,21
1767366505.871038,2,right_wrist,0.1552,-0.2869,-0.3719,-15.26,78.68,21.35,-0.04893640780822997,0.9264105475836839,0.35832351456260253,0.10475201300228039,-179.0817002870605,-13.247438294926205,42.185001900618595,21
1767366505.931328,1,left_wrist,0.4782,0.2865,-0.3562,-105.91,111.16,-27.86,0.25731159085443156,-0.1409304534672961,-0.8931503515374487,-0.34089852162483136,139.817309697372,-33.7604478760656,174.73350466112976,21
1767366505.931328,2,right_wrist,0.4778,-0.4294,-0.5046,153.44,108.08,41.37,-0.1329970222209688,0.9209484636090839,0.34454377222721594,0.12431938093420367,-170.31804302982357,-18.701033554856373,39.42554779561198,21
1767366506.018583,1,left_wrist,0.7252,0.5866,-0.4778,-108.22,156.94,-10.85,0.31202335298319717,-0.12529179768075924,-0.8551966160534855,-0.39443902002427966,129.63908271118063,-39.236480023905216,-177.6432616841572,21
1767366506.018583,2,right_wrist,0.8965,-0.8603,-0.6598,145.39,123.2,21.21,-0.294942290981569,0.8858043899346896,0.3155153854763603,0.16973411351487236,-151.60327448664108,-29.131789838827796,31.688098871685078,21
1767366506.0774348,1,left_wrist,1.0682,0.7027,-0.5612,-126.42,132.09,-17.71,0.39605700964554075,-0.10117939926978559,-0.7680929178391993,-0.49288420936291133,106.48962760335863,-45.085130492300145,-160.55990505880624,21
1767366506.0774348,2,right_wrist,0.8032,-0.9921,-0.6432,93.24,121.17,7.98,-0.35091912236468414,0.8628283889169968,0.30213066986618975,0.2027313472650618,-144.27000551542065,-34.18671447670786,27.275786584753064,21
1767366506.1327128,1,left_wrist,1.0146,0.9184,-0.5119,-64.54,134.82,-12.81,0.4332505209184373,-0.0796531023025985,-0.7324791442787204,-0.5190603747293641,97.06934774639974,-45.83887607322355,-151.43900159321947,21
1767366506.1327128,2,right_wrist,0.8032,-0.9921,-0.6432,93.24,121.17,7.98,-0.4053040488655692,0.8357949031666957,0.2868841121086859,0.23424989654930686,-135.96525130183426,-38.61765063267296,21.761109208589303,21
1767366506.882327,1,left_wrist,0.3943,0.4436,-0.0527,125.58,-141.96,19.53,0.1861354731260058,-0.12582754233593058,-0.9521981600550492,-0.20697748481812384,157.65624768450328,-23.98908774048277,169.74996779480767,22
1767366506.882327,2,right_wrist,0.3309,-0.5807,-0.2391,-262.92,-86.94,-58.52,0.02055533861861687,0.9060926380143693,0.40088502043097834,0.13365930489303451,171.47503279833325,-13.046089012410572,48.70888101709894,22
1767366506.96619,1,left_wrist,0.1781,0.1376,-0.1137,115.71,-80.92,26.46,0.16331011207960844,-0.13447961086484717,-0.9651385381642076,-0.15411892714537487,164.25113778498906,-20.896778499996262,167.05728673555353,22
1767366506.96619,2,right_wrist,0.101,-0.1923,-0.2128,-79.45,-94.85,-24.85,0.12421803282989619,0.8969332296683443,0.4149433602710852,0.08889696059778633,162.7178419491528,-3.2321864665691553,50.14416267196585,22
1767366507.017523,1,left_wrist,0.0493,0.1893,-0.305,38.15,-28.21,17.78,0.15168581887411242,-0.1400723851633554,-0.9686074825393354,-0.13845823932128284,166.1512485373281,-19.428871973762238,165.92482872738358,22
1767366507.017523,2,right_wrist,-0.123,-0.0815,-0.2025,-29.54,6.37,1.61,0.13310695213464577,0.8956646738752656,0.41403424956424495,0.09296758280772806,161.58344141406081,-3.228255766421152,50.142354774456166,22
1767366507.0749922,1,left_wrist,-0.0673,0.0346,-0.2577,-6.23,-3.08,1.19,0.13410197269913074,-0.14655723045271457,-0.9721692723901707,-0.12419559147005842,167.77598388951245,-17.286095119277846,164.71913246395653,22
1767366507.0749922,2,right_wrist,-0.123,-0.0815,-0.2025,-29.54,6.37,1.61,0.141932805142988,0.8942916510730667,0.41313271312948835,0.09705092986426597,160.4530407574509,-3.2280042672327043,50.14688038640555,22
1767366507.1665971,1,left_wrist,0.1137,0.0986,-0.4016,-56.07,72.1,-13.16,0.15608407199251204,-0.1394067421650995,-0.9653632538812691,-0.15581177992988238,164.09032705283937,-20.16947034079079,166.41291419623877,22
1767366507.1665971,2,right_wrist,0.0234,0.0356,-0.3597,47.53,49.28,25.27,0.0762686570180741,0.9046057645951043,0.40290071770025176,0.11637230896818987,166.44501434755563,-8.573889045040161,49.036089832182036,22
1767366507.221141,1,left_wrist,0.1137,0.0986,-0.4016,-56.07,72.1,-13.16,0.17792516277424314,-0.1325553137329243,-0.9578743312902832,-0.18234168669867495,160.8517286567673,-22.90476826399042,168.15652298248364,22
1767366507.221141,2,right_wrist,0.2162,-0.3338,-0.4719,161.07,68.53,31.92,-0.005208979664635603,0.9095756326331168,0.39915441282585,0.11541572584604559,175.14559216357873,-12.363731038850455,47.9132926007317,22
1767366507.283649,1,left_wrist,0.3884,0.3567,-0.4426,-91.63,100.38,-25.55,0.2405277747221033,-0.10815996397865067,-0.9239466761345368,-0.2770746315332954,147.81155127696758,-30.291958470748288,175.57767224709835,22
1767366507.283649,2,right_wrist,0.3426,-0.429,-0.4909,149.31,105.91,27.93,-0.08805284094272328,0.9056514620307302,0.3935034522966226,0.13113794094065911,-176.6097581464597,-17.86821854561394,46.43655080821115,22
1767366507.3712242,1,left_wrist,0.5558,0.4743,-0.5163,-94.08,124.18,-17.5,0.2860853957477927,-0.09569714134565212,-0.8965460095145574,-0.32434928133359914,139.91222862882583,-35.10355665927703,-179.02021859116968,22
1767366507.3712242,2,right_wrist,0.6393,-0.5905,-0.5739,106.47,109.2,35.98,-0.23559994674154855,0.8836204195551426,0.36789583822358346,0.16840508145047223,-160.6389571450766,-28.09694315039307,40.32054404988512,22
1767366507.436158,1,left_wrist,0.916,0.5217,-0.5553,-78.19,130.83,-21.07,0.3707048747646472,-0.07115016035579501,-0.8267047597763422,-0.41722271111507386,120.61552723234853,-42.24466609318929,-164.9924770975302,22
1767366507.436158,2,right_wrist,0.7115,-0.8247,-0.486,104.16,158.97,14.91,-0.3047499207286626,0.8597083840766709,0.3513127023416287,0.21120692540154853,-152.6144126123825,-35.259302059452985,35.59923260719888,22
1767366507.5249128,1,left_wrist,1.0272,1.0399,-0.5329,-114.31,108.22,-20.65,0.401547132908699,-0.060710230860722955,-0.7852457675041357,-0.46740052689153266,109.34521309671653,-43.42294002361942,-157.32236727996346,22
1767366507.5249128,2,right_wrist,1.1541,-0.6603,-0.589,60.55,148.75,40.53,-0.4112678389660568,0.8129489200656966,0.2846618571933771,0.2982288467861963,-134.12237229397022,-45.97479731885285,18.24013035137152,22
1767366508.235739,1,left_wrist,0.2713,0.3655,-0.3309,100.66,-110.25,19.11,0.10232289713495485,-0.11185017632197058,-0.9738261179337787,-0.16935836208667013,161.58017625335754,-13.719863078608522,169.1308226256257,23
1767366508.235739,2,right_wrist,0.4368,-0.6456,-0.3362,-116.48,-138.53,-23.31,-0.08751998558088947,0.9012169355535301,0.42429208993643097,0.011158387553803075,-171.4342064684356,-5.415655136631717,50.01614478951464,23
1767366508.322152,1,left_wrist,0.2713,0.3655,-0.3309,100.66,-110.25,19.11,0.06331437791032461,-0.123319042786066,-0.9826655021715345,-0.12309432999989442,166.75789068839526,-8.904817800643814,166.7298815988231,23
1767366508.322152,2,right_wrist,0.1591,-0.3538,-0.3211,-95.48,-86.1,-19.88,0.012843603644614432,0.8962519235488035,0.44290914966499184,-0.019975397956576883,179.69440714957588,2.7043952400623024,52.58804520329303,23
1767366508.3734558,1,left_wrist,0.1,0.1,-0.3533,57.19,-45.22,13.09,0.05182588274394774,-0.13004732237235628,-0.985304750119641,-0.09785867980543546,169.58134351267128,-7.329835337169517,165.6315102996819,23
1767366508.3734558,2,right_wrist,-0.0454,-0.0664,-0.1274,-90.51,-49.21,-10.78,0.05532955476796664,0.8923108480981486,0.44729726985243445,-0.02539966767695534,175.6203997969319,5.441323300177013,53.039131241362654,23
1767366508.42825,1,left_wrist,-0.144,0.0839,-0.1581,-6.86,-13.51,5.46,0.03234028395057331,-0.13541233179697112,-0.9848417606900046,-0.10346164908948202,168.70540040089173,-5.262570384655818,164.8629850997437,23
1767366508.42825,2,right_wrist,-0.0864,-0.124,-0.2489,-56.98,-17.92,-13.09,0.07810753457103539,0.8878654458660096,0.4527387929017377,-0.02493488484560783,173.2870299676257,6.603755813784458,53.64799823029462,23
1767366508.487305,1,left_wrist,0.0039,0.1059,-0.2259,-27.02,53.34,-3.36,0.05163128101760703,-0.1315032184284319,-0.9823684744852266,-0.12244710981078273,166.7587461600747,-7.680347159515288,165.6438010767107,23
1767366508.487305,2,right_wrist,-0.0649,0.0137,-0.2298,39.55,34.65,6.79,0.056602178169958745,0.8904093029089453,0.45099509706234253,-0.02389328661675873,175.4346460508001,5.370989465332616,53.510461723217944,23
1767366508.565393,1,left_wrist,0.0039,0.1059,-0.2259,-27.02,53.34,-3.36,0.07004205680825441,-0.12719830265874765,-0.9793161156920576,-0.14090652087331973,164.80414392805505,-9.9641977962352,166.5315957201646,23
1767366508.565393,2,right_wrist,0.2001,-0.2269,-0.4412,113.33,75.67,23.94,-0.04734212699998831,0.8975859501809083,0.4382728944035492,-0.0038800876392710033,-174.92607022113472,-1.9789380410241222,51.96293457624874,23
1767366508.619704,1,left_wrist,0.1044,0.2479,-0.2908,-66.85,115.92,-12.39,0.11562181627901048,-0.11629685733533618,-0.9699011452596148,-0.1799955693853453,160.46872994603902,-15.435255702582175,168.99738297158083,23
1767366508.619704,2,right_wrist,0.2001,-0.2269,-0.4412,113.33,75.67,23.94,-0.11013181300298615,0.8978799571351262,0.42621348977472784,0.004962607555205029,-168.78035500788496,-5.899910352329928,50.20630925199053,23
1767366508.673573,1,left_wrist,0.6183,0.4221,-0.57,-112.63,103.18,-17.22,0.19889088585405507,-0.09123223072876263,-0.9349290244161469,-0.27933280313045034,147.56553872097643,-25.01566484014868,176.23669263681336,23
1767366508.673573,2,right_wrist,0.3777,-0.4436,-0.4446,162.19,71.12,19.11,-0.1900378430022942,0.8901289811467719,0.41418345096694187,0.0028432542552798566,-160.09353102694445,-9.351035442108094,48.261288350744856,23
1767366508.7296581,1,left_wrist,0.5978,0.6695,-0.4441,-197.89,101.01,-13.86,0.23146672992295245,-0.08989851293742648,-0.8967229270555525,-0.36637331016783486,135.41284503459,-28.750464637109822,-179.45244802615647,23
1767366508.7296581,2,right_wrist,0.4704,-0.7588,-0.5373,160.37,53.48,38.78,-0.2648715707296423,0.8803514637201835,0.3933951437844988,-0.00803817091856712,-151.19287972685638,-11.200653997751504,45.27088737997763,23
1767366508.780072,1,left_wrist,0.9775,1.0521,-0.5373,-103.11,147.28,-1.19,0.28638873961477374,-0.07622829498277482,-0.8608972597616446,-0.4135536784998674,126.46260208994691,-33.79006708230171,-172.69834550662492,23
1767366508.780072,2,right_wrist,0.8106,-0.8755,-0.5929,98.91,137.34,19.11,-0.3284989311614245,0.8691109352223567,0.36876843099007317,0.027285138955881198,-144.86091993681237,-16.840457028260587,40.61649573618124,23
1767366508.868501,1,left_wrist,1.0121,0.795,-0.6783,-51.45,149.45,-4.48,0.342925436834862,-0.056235494992752655,-0.830473754303981,-0.43537691404895396,119.39767147560453,-38.21020990758336,-164.86156266754156,23
1767366508.868501,2,right_wrist,0.8638,-0.914,-0.6398,91.49,126.0,-4.41,-0.4443652087851072,0.8292610831747119,0.32418606307015135,0.09883832082925721,-131.02875851771614,-26.874615564705202,30.284495168984105,23
1767366508.926435,1,left_wrist,1.1039,0.7466,-0.5422,-60.34,113.68,1.61,0.434778106322305,-0.0271480632043683,-0.7665563951510803,-0.47182864896064014,104.17113972378907,-43.803109516150066,-149.2824474658928,23
1767366508.926435,2,right_wrist,0.8691,-0.9843,-0.6315,73.15,117.39,2.8,-0.48903164146082323,0.8069951013858189,0.3032819725440783,0.13276673197453437,-124.46288533941338,-30.724674456766888,24.731390540869658,23
1767366509.6350698,1,left_wrist,0.4953,0.5226,-0.2542,123.97,-119.14,29.47,0.15085545870710165,-0.09542656584072715,-0.9722688869612907,-0.15109471386242593,163.74305590343315,-18.794876164382778,171.49720286578957,24
1767366509.6350698,2,right_wrist,0.4236,-0.5402,-0.2635,-146.86,-125.23,-49.49,-0.051984974492598895,0.8990011317146933,0.434789894753516,-0.007230146812546276,-174.2718819292129,-1.8455447595076644,51.527886373177964,24
1767366509.723086,1,left_wrist,0.3221,0.2567,-0.3065,95.06,-89.81,23.94,0.1206350536575668,-0.10506594091957165,-0.9812347013642916,-0.10764196545144694,168.9023654570077,-15.032185749575909,169.24537022859164,24
1767366509.723086,2,right_wrist,0.0439,-0.2762,-0.3704,-95.76,-71.96,-31.15,0.0497517077718767,0.8823491625995863,0.46666992578462396,-0.0346973082783662,176.8048860153756,6.180761208264804,55.57571756412872,24
1767366509.7777112,1,left_wrist,0.0415,0.1557,-0.406,30.52,-42.14,17.15,0.0765741123494049,-0.1231044966641774,-0.9874699953110064,-0.06232733412750242,173.93155159017422,-9.58873159639711,166.29704324955284,24
1767366509.7777112,2,right_wrist,-0.0966,-0.1381,-0.3792,-47.95,-49.63,-27.02,0.07477471163835858,0.8745223816925737,0.47677413871570296,-0.0480184034516809,175.06415807896684,8.933478490903811,56.81106111248204,24
1767366509.867771,1,left_wrist,-0.0102,0.0342,-0.3933,23.94,-32.55,8.61,0.05919265803716199,-0.1267016742367312,-0.9889648046700172,-0.04890327293851798,175.27224198073233,-7.4390339911619225,165.70611224385786,24
1767366509.867771,2,right_wrist,-0.1181,-0.144,-0.3109,-12.81,20.44,10.99,0.09076980675147596,0.8721202210893135,0.47946195052622864,-0.03582457462428396,172.79724585581397,8.599574993042156,57.058727763509395,24
1767366509.921521,1,left_wrist,-0.0405,0.1586,-0.3353,9.24,3.57,-0.84,0.05827644049506118,-0.1256732544824592,-0.9891637780902474,-0.04863239357918154,175.2829824764236,-7.325928803634743,165.82087185214374,24
1767366509.921521,2,right_wrist,-0.0034,-0.0508,-0.3245,40.32,62.44,28.21,0.05781320678744438,0.8802340803545684,0.47059785219667255,-0.01957698677473246,175.19966255961234,5.0990742701197505,56.04655151507996,24
1767366509.97357,1,left_wrist,-0.0122,0.0093,-0.2972,-42.0,40.88,-12.25,0.06878375411400331,-0.1204986362625606,-0.9880391948694645,-0.06728612955541415,173.23734457259312,-8.750839273124559,166.61143118367383,24
1767366509.97357,2,right_wrist,0.1664,-0.1752,-0.3855,97.09,78.54,31.08,0.0003738102812276238,0.8883633828662877,0.45908224423799765,-0.007338478973391092,-179.65196519246783,0.7667373207754911,54.6597319343181,24
1767366510.025436,1,left_wrist,0.2957,0.1762,-0.4353,-67.06,93.66,-25.83,0.14737455403612004,-0.09614703881655942,-0.9742867462770575,-0.14071895315957447,164.99044773645267,-18.31430995829089,171.1611479923021,24
1767366510.025436,2,right_wrist,0.2089,-0.3367,-0.4182,119.0,95.27,41.09,-0.06863152328788617,0.8945645461093121,0.44159500605332797,0.006151218105870637,-173.24291979784806,-4.107039921379268,52.30323839927169,24
1767366510.077944,1,left_wrist,0.61,0.4168,-0.4641,-114.94,128.87,-25.48,0.19805684925665343,-0.08448314452483636,-0.9561876397986425,-0.19834636434788577,157.69046532777688,-24.347693231114864,174.7732236786134,24
1767366510.077944,2,right_wrist,0.2089,-0.3367,-0.4182,119.0,95.27,41.09,-0.1373171978296572,0.8960509919094202,0.4217277201414868,0.019553443242019183,-166.57029816867183,-8.676924698660544,49.384665688646756,24
1767366510.129288,1,left_wrist,0.61,0.4168,-0.4641,-114.94,128.87,-25.48,0.19805684925665343,-0.08448314452483636,-0.9561876397986425,-0.19834636434788577,157.69046532777688,-24.347693231114864,174.7732236786134,24
1767366510.129288,2,right_wrist,0.69,-0.8696,-0.6242,94.43,137.83,31.5,-0.2027561786868218,0.8918769304221998,0.40052773755615817,0.0549818554901299,-160.79303490289774,-15.099319637545898,45.79891795639502,24
1767366510.179432,1,left_wrist,0.8013,0.7525,-0.4817,-121.31,143.01,-14.35,0.30681265790018925,-0.0671641455836736,-0.8958519420736437,-0.3143314626045532,139.63706938162002,-36.294871547899184,-174.8360240091791,24
1767366510.179432,2,right_wrist,0.69,-0.8696,-0.6242,94.43,137.83,31.5,-0.26706785919650405,0.8823778733821573,0.376809067133447,0.08999430024062265,-154.37364168826358,-21.10542487181758,41.39640559068343,24
1767366510.233813,1,left_wrist,0.8979,0.8457,-0.4187,-144.27,103.46,-22.68,0.34084199481750316,-0.06294384408109972,-0.8584017802743068,-0.37816820422005315,128.46133377274498,-39.25444997985647,-168.8509188029806,24
1767366510.233813,2,right_wrist,1.0072,-0.8501,-0.6505,67.34,83.51,45.85,-0.31102596293017404,0.8765295077728168,0.3513100273809111,0.10742502989771441,-149.05234449462694,-24.007454454789137,36.94423903590754,24
1767366510.3186371,1,left_wrist,0.8979,0.8457,-0.4187,-144.27,103.46,-22.68,0.37289547053427335,-0.05857536341473516,-0.8151727200089227,-0.4393305491416561,116.53693083032242,-41.2553734574403,-162.01294153983565,24
1767366510.3186371,2,right_wrist,0.7427,-0.9462,-0.5871,125.51,91.77,20.79,-0.4180126439447329,0.8431411197585624,0.30831556524061876,0.1389963809060122,-134.6608592945233,-29.481778334245725,27.62954088602963,24
1767366511.027369,1,left_wrist,0.4948,0.5246,-0.3162,99.47,-122.99,20.79,0.095903701222418,-0.09028489727057802,-0.9793560892635157,-0.15333873561222275,163.15152626825832,-12.446980508071968,171.31631971536714,25
1767366511.027369,2,right_wrist,0.4626,-0.5978,-0.3323,-136.08,-124.53,-48.93,-0.046345264621259034,0.9097335246090155,0.41138253502073874,0.03164554517707134,-176.64308861543412,-5.492145254889009,48.50401460707978,25
1767366511.082456,1,left_wrist,0.2499,0.2723,-0.3026,118.65,-104.37,29.19,0.06007338813476599,-0.10462634409144156,-0.9876720960221346,-0.09974140012709005,169.2644981362416,-8.021042276201454,168.66103872518264,25
1767366511.082456,2,right_wrist,0.2196,-0.5383,-0.344,-102.76,-100.38,-32.83,0.009775298785956822,0.9054987172822727,0.42410553317273475,0.010536283314071644,178.4733690506076,-0.6182142878228339,50.20189966928695,25
1767366511.135493,1,left_wrist,0.1318,0.3084,-0.2869,100.31,-81.48,23.87,0.03128807082231572,-0.11551972481517424,-0.991255002952742,-0.05558568992108796,174.07305928227052,-4.29383333115654,166.92798845260643,25
1767366511.135493,2,right_wrist,0.061,-0.2133,-0.344,-80.99,-80.29,-21.49,0.052550921160820864,0.9005960617627957,0.4314097830107885,-0.007122734381979756,174.9135462067011,3.334856951675024,51.043187836529825,25
1767366511.2167501,1,left_wrist,-0.0425,0.0234,-0.2425,32.27,-46.9,9.94,0.007977876840955222,-0.12024238421886882,-0.991969334804992,-0.03840522523061228,175.73908925800956,-1.4361825904015517,166.23055680954084,25
1767366511.2167501,2,right_wrist,-0.1293,-0.0146,-0.183,-29.19,-4.34,-6.02,0.10877609410008585,0.8909223657356812,0.4408352049048406,-0.009456304816030242,169.24118333256368,6.474115145738931,52.042834824461714,25
1767366511.2678778,1,left_wrist,-0.1947,-0.1854,-0.1576,-30.8,0.07,-2.73,0.0043154813648560155,-0.11911161108846048,-0.9916496999474326,-0.04924097195088401,174.45362232065688,-1.1625672839685464,166.35782276623905,25
1767366511.2678778,2,right_wrist,-0.1181,-0.1303,-0.0644,-9.38,33.39,10.43,0.10478403603787366,0.8925128020243567,0.43866896871665767,0.0032771785592233624,169.01074185790046,4.938198803045729,51.87280366729383,25
1767366511.323339,1,left_wrist,-0.083,0.0166,-0.1362,16.73,22.19,3.36,0.010534511263119363,-0.11984751258886266,-0.9918139659464682,-0.0427861514072906,175.27423218707983,-1.7851771660398001,166.29361505698012,25
1767366511.323339,2,right_wrist,0.0068,0.0669,-0.205,46.62,73.43,22.82,0.07416019927569845,0.8982060210913302,0.4323348777123958,0.028508981603652915,170.91576997685257,0.7397207231878484,51.34719208193626,25
1767366511.384365,1,left_wrist,0.1932,0.1957,-0.3109,-56.91,127.47,-12.39,0.09471744549250168,-0.10583920954922309,-0.9838545883928889,-0.10888900835084207,168.54392213646068,-12.08870712401571,168.93697716920138,25
1767366511.384365,2,right_wrist,0.1113,-0.0273,-0.3099,87.57,81.06,38.85,0.019894538935825438,0.9061157203329484,0.41989569075086886,0.04739322287926126,175.6392436457683,-3.9669034935414302,49.87727890835483,25
1767366511.470155,1,left_wrist,0.5636,0.4729,-0.449,-92.82,153.02,-18.06,0.15737192498236333,-0.09427170825063994,-0.9701448649966076,-0.1586375213231905,162.82948102837202,-19.588178295068317,171.88541433983374,25
1767366511.470155,2,right_wrist,0.4641,-0.6866,-0.4719,184.31,105.0,33.46,-0.17155599397645926,0.9003696998088739,0.3948547533835679,0.06318756465657936,-164.48620693681647,-14.433948200594374,45.38304112698306,25
1767366511.526842,1,left_wrist,0.8281,0.7169,-0.5456,-110.11,136.15,-16.8,0.2714747733345681,-0.07280253626976885,-0.9234202771832749,-0.2613354737543251,148.24790855819683,-32.64432718551005,-179.49392684287062,25
1767366511.526842,2,right_wrist,0.6749,-0.5563,-0.6627,127.82,134.61,34.65,-0.24840320464089907,0.889074705862069,0.37307569062159246,0.09304055238243585,-156.57570782164163,-20.535422250558977,41.22666171305842,25
1767366511.5775611,1,left_wrist,1.0097,0.8311,-0.5578,-105.28,140.0,-12.46,0.3245727605615979,-0.06394585567400195,-0.8909476172090072,-0.31108808082781936,139.27859301989255,-38.18045194171149,-173.57253281833715,25
1767366511.5775611,2,right_wrist,0.8486,-0.9784,-0.5573,136.92,140.14,24.15,-0.3273755839053448,0.868126753017042,0.35219269665660685,0.1230506894757987,-147.4725070034145,-26.37509347141137,36.34291641251434,25
1767366511.630566,1,left_wrist,1.0355,0.8359,-0.5222,-102.55,138.11,-17.43,0.37440921453108367,-0.052704252082410134,-0.8535806396439329,-0.35838539801686264,128.9558819794899,-42.60605702112889,-165.97350386775378,25
1767366511.630566,2,right_wrist,1.0009,-0.8335,-0.7798,88.2,136.29,42.28,-0.3856890679994321,0.8508623939612991,0.3203557877013206,0.15700095112591803,-139.60831009028544,-30.949866471999822,29.633585140219985,25
1767366511.685329,1,left_wrist,1.0433,0.8359,-0.4895,-88.41,112.35,-13.51,0.4139172063444619,-0.04465755488372836,-0.8179479575537734,-0.39703826996577224,119.18053270304951,-45.44579115098581,-158.63199442352237,25
1767366511.685329,2,right_wrist,1.0043,-0.8789,-0.589,71.82,100.17,29.47,-0.4302625583007183,0.8330527678683622,0.29682832249342284,0.1810805451646371,-132.794505249702,-33.85737884006308,24.07236459095871,25
1767366512.375374,1,left_wrist,0.5822,0.6139,-0.1893,124.18,-127.82,24.29,0.16359972196975037,-0.10671919881011664,-0.9677228553224692,-0.15924389741297698,163.03333272652517,-20.525678738569436,170.50774632652696,26
1767366512.375374,2,right_wrist,0.2752,-0.4729,-0.3045,-94.64,-109.97,-28.91,0.0202874731879556,0.8999203541104294,0.43557473072074393,-0.0025354776589329438,178.0335709011829,1.2741842400175034,51.63346576493606,26
1767366512.4269938,1,left_wrist,0.2128,0.326,-0.2938,116.13,-76.37,25.69,0.11419219664838454,-0.12075924018571021,-0.9844769989786932,-0.05641264588984007,175.06792780548162,-13.795894960362979,166.6107147564781,26
1767366512.4269938,2,right_wrist,0.2752,-0.4729,-0.3045,-94.64,-109.97,-28.91,0.07517850891415515,0.8917972721790691,0.44527970203746053,-0.027781362184853456,173.67910843328968,6.690243433242093,52.696631894335695,26
1767366512.479294,1,left_wrist,0.0522,0.1103,-0.1869,46.13,-37.8,6.37,0.10018267693823338,-0.12155532077069213,-0.9867609588796976,-0.03860758040389505,176.96269386680788,-11.95237806459806,166.27269396698128,26
1767366512.479294,2,right_wrist,-0.0346,-0.3416,-0.1132,-78.19,-68.32,-23.87,0.11624807523354345,0.8828940633737258,0.45307031516755025,-0.04137326888106508,170.18225623868935,10.2762015031677,53.445672776075774,26
1767366512.5338728,1,left_wrist,-0.0683,0.0215,-0.2015,-5.04,6.93,-11.27,0.0980019106346711,-0.11668205179667235,-0.9874482051264349,-0.04155678636582472,176.53365998360394,-11.726576511767483,166.87783589522243,26
1767366512.5338728,2,right_wrist,-0.0864,-0.1352,-0.1786,-42.49,2.73,11.06,0.1295152783568943,0.882849164237023,0.45014901033930876,-0.03419085211964015,168.40006485884453,10.193499619206685,52.99432010111186,26
1767366512.6202319,1,left_wrist,-0.0683,0.0215,-0.2015,-5.04,6.93,-11.27,0.09581812548165469,-0.11177777149613784,-0.9881038320868554,-0.04444585069284349,176.11390950060039,-11.495597030650222,167.48318209033573,26
1767366512.6202319,2,right_wrist,0.0034,-0.0874,-0.3118,41.79,77.21,23.24,0.10695808511061024,0.8903090215418725,0.4425941495952562,-0.004498103453327537,169.1953632486299,5.893946916967741,52.308293930308785,26
1767366512.6755059,1,left_wrist,0.1503,0.163,-0.324,-51.38,85.26,-24.85,0.14661655908656912,-0.09417443810224307,-0.980567548543485,-0.09012237543008596,170.99258214137527,-17.728646345630505,170.43580059100833,26
1767366512.6755059,2,right_wrist,0.2664,-0.222,-0.4089,84.21,78.75,31.57,0.05513040349768809,0.8995225854839026,0.43319624935057544,0.012679367615595996,173.67305652453507,1.4298965893283786,51.35046914522248,26
1767366512.729912,1,left_wrist,0.4148,0.2611,-0.4553,-71.33,94.15,-39.41,0.18510398498735045,-0.0778152223819909,-0.971040967497819,-0.12946329730214567,166.07595398724567,-22.311108742503684,173.59555922471145,26
1767366512.729912,2,right_wrist,0.2664,-0.222,-0.4089,84.21,78.75,31.57,0.003105030619899394,0.9058957722325156,0.42243720087243025,0.02983320222788154,178.2308933489611,-2.947918260038188,50.04667435712935,26
1767366512.8159108,1,left_wrist,0.5427,0.4094,-0.408,-126.63,112.21,-41.02,0.22788121512348225,-0.06386580316261951,-0.9523701745319059,-0.19230798642361682,157.70057460830657,-27.297988242267895,177.8072053539481,26
1767366512.8159108,2,right_wrist,0.5612,-0.3289,-0.5573,132.65,115.99,35.07,-0.15116190880341848,0.9038895542091859,0.3928339396529047,0.07625776665497226,-167.24712661480007,-14.86961402938492,45.308934937203304,26
1767366512.866274,1,left_wrist,0.6681,0.4675,-0.4392,-115.43,126.56,-30.73,0.2766449440372265,-0.05172483076404971,-0.9268914382382731,-0.2483231333195837,149.1788351462224,-32.583530627472705,-177.1763827221053,26
1767366512.866274,2,right_wrist,0.7871,-0.9984,-0.7056,93.24,135.1,17.92,-0.21461808430965237,0.8932929217523788,0.37846476450878463,0.11283286693008963,-161.33811481927623,-21.348291188542255,42.374421784690625,26
1767366512.919123,1,left_wrist,0.8511,0.7471,-0.5022,-109.13,140.91,-21.91,0.3300441558924322,-0.04038334302536638,-0.8941586024388392,-0.29986736143163245,139.76573641148875,-37.911454127585905,-170.83084953398063,26
1767366512.919123,2,right_wrist,0.9662,-0.9179,-0.5758,129.99,108.01,32.9,-0.28712086159279915,0.8777717544542551,0.360356810281506,0.13123005450066022,-152.91446657412186,-25.932500638153183,38.29114272715775,26
1767366512.975805,1,left_wrist,1.1043,0.8843,-0.4094,-95.76,115.99,-17.71,0.41812804424827815,-0.02374942919352248,-0.8231114856056483,-0.3835262513703001,120.21723497169181,-44.95482573657478,-156.54864460146624,26
1767366512.975805,2,right_wrist,0.9262,-0.8994,-0.5573,57.61,119.84,40.32,-0.3328036516304828,0.8672487999325625,0.33197866769183365,0.164046983131362,-147.12659797361815,-30.364982344751528,32.73896529702357,26
1767366513.035413,1,left_wrist,1.0726,0.7496,-0.3357,-85.61,107.59,-14.84,0.4558288132152941,-0.01741779323616763,-0.7859369449492356,-0.41739649266061263,110.23523042647012,-46.97412730649443,-148.83145754306045,26
1767366513.035413,2,right_wrist,0.996,-0.856,-0.547,85.75,105.49,22.4,-0.3842856740573391,0.8474782880698645,0.3132670563971094,0.18965448410401142,-139.91430572568277,-34.2097559026255,27.76212714776073,26
1767366513.685714,1,left_wrist,0.4621,0.3631,-0.2489,101.22,-129.08,27.86,0.14979318998076074,-0.12544722717504994,-0.9725219483395551,-0.12659404973107988,167.26305853745572,-18.85147696276181,167.42279052466495,27
