timestamp,node_id,node_name,ax,ay,az,gx,gy,gz,qw,qx,qy,qz,roll,pitch,yaw,rep_number
1767487325.6443331,1,left_wrist,0.5876,-0.3138,-0.732,3.64,-2.45,-5.25,-0.35785249462222973,0.33233344650764857,0.8714699068171672,-0.045125092100437476,-156.83797307287304,-36.42159453734197,130.53753465815151,1
1767487325.6443331,2,right_wrist,1.0204,-0.2035,0.1122,-88.2,-38.36,-101.92,0.5689005742086451,0.4091019923053751,-0.1667876271386351,0.693663884017548,21.00579103871047,-49.22935297076719,91.57732415944389,1
1767487325.696618,1,left_wrist,0.5832,-0.3284,-0.734,3.5,-2.59,-5.95,-0.3572577869282983,0.3310956306589946,0.8718870934903961,-0.05055149100161635,-156.29664592900792,-36.121687306789184,130.58237424900142,1
1767487325.696618,2,right_wrist,1.0204,-0.2035,0.1122,-88.2,-38.36,-101.92,0.6094481434233519,0.406991179523161,-0.18830497478169675,0.6538137171554602,22.682265613793554,-49.61580539344374,83.42948193961328,1
1767487325.778369,1,left_wrist,0.5754,-0.3133,-0.7476,1.89,3.64,-6.09,-0.35428048695984155,0.3268157484498639,0.874657680568506,-0.05148538576308775,-156.61176813610075,-35.88044303040602,131.3558136025814,1
1767487325.778369,2,right_wrist,1.0204,-0.2035,0.1122,-88.2,-38.36,-101.92,0.6476744328283921,0.4033095405969423,-0.20914486424744602,0.6116515914168958,24.41726574564418,-49.84346052006322,75.2413376566812,1
1767487325.8455832,1,left_wrist,0.5822,-0.3294,-0.7437,0.35,4.48,-8.12,-0.3556656560895645,0.3254212206019596,0.874441574473504,-0.05435902034262454,-156.22016764074226,-35.918828124447145,131.36636078358373,1
1767487325.8455832,2,right_wrist,1.0204,-0.2035,0.1122,-88.2,-38.36,-101.92,0.7166764790106782,0.39131613075793353,-0.248479717360095,0.5210607836924055,27.900898205625186,-49.81439038309122,58.87866972499087,1
1767487325.922657,1,left_wrist,0.6422,-0.3065,-0.71,13.79,5.6,-9.52,-0.3687925383962972,0.3113289944989886,0.8742241282655123,-0.05290079740296534,-155.9670144038088,-37.725242546316544,132.47758674583756,1
1767487325.922657,2,right_wrist,1.0204,-0.2035,0.1122,-88.2,-38.36,-101.92,0.7472357309231685,0.3830636496646774,-0.2668260084541289,0.4729745066594313,29.56944386537559,-49.56325839641634,50.770508847847836,1
1767487325.9736261,1,left_wrist,0.6495,-0.307,-0.7403,-35.49,17.78,-1.33,-0.3722808946210899,0.315055115689768,0.8724084150236334,-0.03241553599402014,-158.00338386977452,-38.98645184223507,132.41624404904223,1
1767487325.9736261,2,right_wrist,1.0204,-0.2035,0.1122,-88.2,-38.36,-101.92,0.7750393324491194,0.3733581320743991,-0.28419883759417436,0.42325968279634074,31.140549482780724,-49.16409584697756,42.75066852407715,1
1767487326.024426,1,left_wrist,0.7647,-0.2777,-0.8057,-10.57,29.33,5.39,-0.383780586276471,0.31740436276255896,0.8669011110221619,-0.021198957642375883,-158.2988018815503,-40.68820731993248,131.6504925012545,1
1767487326.024426,2,right_wrist,1.0204,-0.2035,0.1122,-88.2,-38.36,-101.92,0.8000028304697471,0.3622452866538932,-0.3005343526210461,0.37209263152080907,32.58388434987903,-48.628009660788,34.842838570591795,1
1767487326.094548,1,left_wrist,0.9862,-0.5334,-0.6159,-68.53,3.08,12.25,-0.378358254534165,0.33335710658466616,0.8635472208536992,0.002065931076351651,-160.78864761224864,-40.90735405546691,130.5601613352594,1
1767487326.094548,2,right_wrist,1.0204,-0.2035,0.1122,-88.2,-38.36,-101.92,0.8411137668930334,0.3360060021312792,-0.32986349248299635,0.2661159033235082,34.99676258768845,-47.20073083189328,19.4281104270561,1
1767487326.1468759,1,left_wrist,1.0575,-0.2133,-0.609,37.87,16.17,7.84,-0.3929915504600169,0.3288973307820996,0.8586577022693554,-0.009546591274016514,-158.30382190929117,-41.95993191078094,129.67722998059017,1
1767487326.1468759,2,right_wrist,1.0204,-0.2035,0.1122,-88.2,-38.36,-101.92,0.8571335729702863,0.32099445863337595,-0.3427554132626151,0.21166795291926135,35.93685197345826,-46.34112267388096,11.938545923103291,1
1767487326.200641,1,left_wrist,0.9082,-0.1215,-0.4046,45.92,42.63,2.94,-0.4182092526499929,0.32092876870904197,0.8495500208155289,-0.01924859852475079,-155.12422630354973,-44.28472843552681,128.3535399756564,1
1767487326.200641,2,right_wrist,1.0204,-0.2035,0.1122,-88.2,-38.36,-101.92,0.8700579184250135,0.3048041509805484,-0.35440664023002355,0.15649147418254475,36.68942573903223,-45.40661515530054,4.596621599635317,1
1767487326.271511,1,left_wrist,0.7993,-0.1669,-0.3655,-9.17,84.84,-28.91,-0.4819195870112088,0.3008901547958026,0.8229226897700289,0.004107683479136081,-152.12251886052283,-52.71546795954843,125.80995034259202,1
1767487326.271511,2,right_wrist,1.0204,-0.2035,0.1122,-88.2,-38.36,-101.92,0.879843292541876,0.2875006439504364,-0.36477947407692424,0.10077249421006551,37.2531620057019,-44.41431786362241,-2.6014435393538258,1
1767487326.344585,1,left_wrist,0.8125,-0.1527,-0.4246,16.59,94.43,-58.45,-0.5192265657638949,0.27373908767002275,0.8091898025676407,0.02612563314367669,-152.22464514171972,-58.71655439426352,126.78416338272915,1
1767487326.344585,2,right_wrist,1.0204,-0.2035,0.1122,-88.2,-38.36,-101.92,0.8898660098782447,0.2498286079086898,-0.3815638982487675,-0.011538747201585197,37.82724627737756,-42.323519424215014,-16.59692528444613,1
1767487326.421185,1,left_wrist,0.9213,-0.3909,-0.4558,72.52,59.85,-71.26,-0.582334318830592,0.19095243008306295,0.7898924990945786,0.022220495755150314,-149.72124022116157,-68.19433993838706,132.06081493673437,1
1767487326.421185,2,right_wrist,1.0204,-0.2035,0.1122,-88.2,-38.36,-101.92,0.8900602903842051,0.2296028741233428,-0.3879242376016962,-0.06774943214985205,37.85088289496203,-41.25725347148916,-23.415012043002665,1
1767487326.4760609,1,left_wrist,0.9057,-0.3992,-0.4226,70.56,53.48,-58.52,-0.6040678390101216,0.15503067785383706,0.7815911571107693,0.013520278254173887,-148.37571763393288,-71.52468596651337,134.50499376265938,1
1767487326.4760609,2,right_wrist,1.0204,-0.2035,0.1122,-88.2,-38.36,-101.92,0.8870301938583214,0.20854926870797336,-0.39290333215939705,-0.12374008761545785,37.71086887838674,-40.197355077552444,-30.129044797682493,1
1767487326.552724,1,left_wrist,0.9301,-0.3919,-0.284,83.44,19.32,-38.64,-0.6155248421268685,0.12259604138423885,0.7784885692603846,-0.007411267943276711,-146.1417563496735,-73.04634274715988,136.69472642501108,1
1767487326.552724,2,right_wrist,1.0204,-0.2035,0.1122,-88.2,-38.36,-101.92,0.8713173608471141,0.1642659503573493,-0.39866371252276955,-0.23428614674619425,36.982535374716456,-38.152359504724956,-43.29413176556115,1
1767487326.624095,1,left_wrist,0.8257,-0.3494,-0.2054,84.91,-6.44,-6.23,-0.6194521848377764,0.07291602236734535,0.7785709248544661,-0.06920664240585263,-138.38123378599968,-72.64643575251539,138.0771882860508,1
1767487326.624095,2,right_wrist,1.0204,-0.2035,0.1122,-88.2,-38.36,-101.92,0.8586707237265602,0.1411947252604255,-0.3994284800447558,-0.288453682768438,36.4171332762745,-37.19278503308244,-49.76917869865826,1
1767487326.6910589,1,left_wrist,0.774,-0.3904,-0.1376,87.99,-10.22,2.8,-0.6186241092837621,0.05245459252112322,0.7770342193303716,-0.10378125613979987,-133.28976039138362,-71.89647140454383,137.50207573240067,1
1767487326.6910589,2,right_wrist,1.0204,-0.2035,0.1122,-88.2,-38.36,-101.92,0.8239675063455603,0.09360316913514735,-0.3967171821068502,-0.39361335423958393,34.94377755810927,-35.455974050692575,-62.55982531336002,1
1767487326.7422678,1,left_wrist,0.7735,-0.347,-0.1669,71.05,-8.19,7.21,-0.6165149846361707,0.03835154632185647,0.7749483892700925,-0.13376631332840802,-128.7066536439976,-70.95705715880221,136.5520905442021,1
1767487326.7422678,2,right_wrist,1.0204,-0.2035,0.1122,-88.2,-38.36,-101.92,0.8020120922448735,0.06925212611620472,-0.39324972327379537,-0.4442244951220828,34.060362468174326,-34.698296897389206,-68.89528024533854,1
1767487326.79537,1,left_wrist,0.8413,-0.3421,-0.1513,54.39,-3.43,6.79,-0.6160100425184418,0.028552472616756745,0.7712747130161435,-0.1576442224940779,-124.5075985508559,-70.25808221056026,135.14012979765113,1
1767487326.79537,2,right_wrist,1.0204,-0.2035,0.1122,-88.2,-38.36,-101.92,0.7770735946611494,0.04464647917277957,-0.3883872502423933,-0.4932734173123732,33.095670667769674,-34.02572757937412,-75.20261771455424,1
1767487326.873379,1,left_wrist,0.8628,-0.4036,-0.1762,46.06,6.16,9.52,-0.6165093960955341,0.014046451600401712,0.7602773771328233,-0.2041988529433796,-115.51113586688993,-68.70134502182908,131.2382447785385,1
1767487326.873379,2,right_wrist,1.0204,-0.2035,0.1122,-88.2,-38.36,-101.92,0.7492307601496583,0.019874734296585202,-0.3821448584569964,-0.5405770714126594,32.06222282488257,-33.44537464420095,-81.48961481210725,1
1767487326.9248571,1,left_wrist,0.9004,-0.3323,-0.1703,61.25,3.36,9.52,-0.6140955404253814,0.002727771464776888,0.7555840494136516,-0.2279736185705771,-112.18188354853643,-67.93493748909003,130.85945941895446,1
1767487326.9248571,2,right_wrist,1.0204,-0.2035,0.1122,-88.2,-38.36,-101.92,0.7185737159183807,-0.004973364826725046,-0.3745421025843776,-0.5859567337485115,30.97261629676651,-32.96322141942654,-87.76325353968646,1
1767487326.982052,1,left_wrist,0.9262,-0.3548,-0.1562,71.75,2.45,10.22,-0.61087096136997,-0.011761015579988337,0.7496475827285097,-0.25441471808202837,-108.69607905952974,-67.19956803884793,130.83545583021981,1
1767487326.982052,2,right_wrist,1.0204,-0.2035,0.1122,-88.2,-38.36,-101.92,0.6852039558171789,-0.029807073225678094,-0.3656030765868713,-0.6292388002248611,29.83951807873016,-32.58409354901565,-94.02980314050262,1
1767487327.0411031,1,left_wrist,0.9204,-0.3933,-0.163,72.1,-5.32,19.04,-0.6034771636230202,-0.02389462171861236,0.7449492668393849,-0.2833636354119951,-105.76435955891,-65.87577834634116,131.43734415943575,1
1767487327.0411031,2,right_wrist,1.0204,-0.2035,0.1122,-88.2,-38.36,-101.92,0.6107885920412215,-0.07906505448557224,-0.34383568335443226,-0.7088462709527972,27.493791182551842,-32.14824955692058,-106.56378362024496,1
1767487327.093106,1,left_wrist,0.9155,-0.4294,-0.0888,107.8,1.12,36.33,-0.5980394221329428,-0.037995651279848754,0.7290425919925743,-0.330759851129887,-98.578094268164,-63.78299481413571,129.63606463233072,1
1767487327.093106,2,right_wrist,1.0204,-0.2035,0.1122,-88.2,-38.36,-101.92,0.5700018126818953,-0.10330555982768337,-0.33107872187828724,-0.7448575533398868,26.306713943767242,-32.09514501283378,-112.84119269896699,1
1767487327.145819,1,left_wrist,0.8516,-0.5768,-0.0542,105.91,7.0,48.37,-0.5892212799191849,-0.04580662043563514,0.7115737170922948,-0.37997747559311734,-91.98494617919806,-60.851439548019464,128.2341863967403,1
1767487327.145819,2,right_wrist,1.0204,-0.2035,0.1122,-88.2,-38.36,-101.92,0.5270194586636884,-0.12716489529634575,-0.3171283157375801,-0.7781447236546348,25.127191418910158,-32.152256294279674,-119.13173468047927,1
1767487327.2212439,1,left_wrist,0.9321,-0.7676,0.1376,99.68,12.81,77.28,-0.5635710648056258,-0.04625656260334448,0.6681358232472783,-0.48357264916831033,-80.17190360862627,-52.922509995752414,126.72264277897511,1
1767487327.2212439,2,right_wrist,1.0204,-0.2035,0.1122,-88.2,-38.36,-101.92,0.4819973250885625,-0.15055229369447787,-0.30203180590158085,-0.8085724294672877,23.96793981701281,-32.31827410608118,-125.4399053051492,1
1767487327.2721238,1,left_wrist,0.8428,-0.875,0.2084,125.79,11.83,105.28,-0.5397689279733074,-0.04069163271583261,0.6378505127380034,-0.5478507267690099,-74.39089877813511,-47.152779870104034,127.50018620335116,1
1767487327.2721238,2,right_wrist,1.0204,-0.2035,0.1122,-88.2,-38.36,-101.92,0.43510100017083947,-0.1733782055034191,-0.2858410646908259,-0.8360155520342696,22.84157942957407,-32.59064450335986,-131.77024386450628,1
1767487327.341115,1,left_wrist,0.8037,-0.8618,0.2821,96.25,31.15,121.94,-0.5154105779523139,-0.01884631323184787,0.6064596871175953,-0.6051474204800488,-69.74400611701766,-40.388051206188955,127.91037030582383,1
1767487327.341115,2,right_wrist,1.0204,-0.2035,0.1122,-88.2,-38.36,-101.92,0.3363936018976287,-0.21699614934746494,-0.2504061610984651,-0.881503698378312,20.737250368374117,-33.43810753986139,-144.51651503339056,1
1767487327.393642,1,left_wrist,0.7564,-0.8867,0.3621,102.34,35.63,141.61,-0.48492583640405945,0.0071859314523008925,0.5682264025479873,-0.6647661626650073,-65.08644868915052,-32.78863031481219,129.0471316313331,1
1767487327.393642,2,right_wrist,1.0204,-0.2035,0.1122,-88.2,-38.36,-101.92,0.28495710353731174,-0.23761919433084402,-0.23128693336222717,-0.8993569492059774,19.78360572358335,-34.00205629971332,-150.94275654026129,1
1767487327.476963,1,left_wrist,0.6071,-0.9789,0.6364,104.58,91.91,168.42,-0.42604566497568724,0.08481463985036818,0.461078950588644,-0.7737556265039703,-54.50369929483829,-15.16678872801021,130.16952683482162,1
1767487327.476963,2,right_wrist,1.0204,-0.2035,0.1122,-88.2,-38.36,-101.92,0.23239396963639014,-0.25734363698406354,-0.21132285056572117,-0.913843503127988,18.91138781355273,-34.65014507541314,-157.41192634536972,1
1767487327.542618,1,left_wrist,0.4719,-0.9902,0.7379,94.71,113.19,171.85,-0.39459066441419277,0.13504991725360996,0.4006604459935476,-0.8158007933455388,-49.80155651566305,-5.500019074746968,130.92993190718693,1
1767487327.542618,2,right_wrist,1.0204,-0.2035,0.1122,-88.2,-38.36,-101.92,0.12470969841751964,-0.2937929360178827,-0.16914958377444986,-0.9324814315446361,17.456222899911598,-36.16425402220434,-170.50421706570617,1
1767487327.623947,1,left_wrist,0.1874,-0.8984,0.8296,50.05,143.64,149.87,-0.3358074196391271,0.25323955456119573,0.28998563377543085,-0.8596577441777745,-43.543093429417105,13.924318731064629,131.74144381825403,1
1767487327.623947,2,right_wrist,1.0204,-0.2035,0.1122,-88.2,-38.36,-101.92,0.0700110653819214,-0.3103755634805742,-0.1470925149427135,-0.9365517884057624,16.89453546475985,-37.01052976454248,-177.14092087915606,1
1767487327.677637,1,left_wrist,0.0561,-0.7242,0.753,3.64,152.88,131.95,-0.30683444031892065,0.32171296110864034,0.25285527423560133,-0.8593122873438528,-43.53640844044171,23.43662031705169,131.22978726121792,1
1767487327.677637,2,right_wrist,1.0204,-0.2035,0.1122,-88.2,-38.36,-101.92,0.015028611032370456,-0.32577575650742013,-0.12449412240124531,-0.9370941845993921,16.456563621065946,-37.90158882151268,176.15245418074375,1
1767487327.7447062,1,left_wrist,-0.1318,-0.6407,0.6456,-5.81,150.01,112.35,-0.2815457690276893,0.38641599330001686,0.22092795693825656,-0.850062055327525,-44.49478366856576,32.17807865567328,129.89190788183194,1
1767487327.7447062,2,right_wrist,1.0204,-0.2035,0.1122,-88.2,-38.36,-101.92,-0.09491620894471434,-0.35279325413952345,-0.07800249261206567,-0.9276009078582845,15.985980325886384,-39.769101337549245,162.50037922088833,1
1767487327.797963,1,left_wrist,-0.2577,-0.5534,0.5217,-5.18,135.1,99.05,-0.25843749419490314,0.44251399314657897,0.19183996393543132,-0.8370118611471293,-45.798217392621254,39.91284787775333,128.24282947519134,1
1767487327.797963,2,right_wrist,1.0204,-0.2035,0.1122,-88.2,-38.36,-101.92,-0.14944289435062924,-0.36430507842994614,-0.054277705077196536,-0.9176069757198941,15.967562890061377,-40.719389547711714,155.54108998411536,1
1767487327.872504,1,left_wrist,-0.5158,-0.4451,0.3997,-5.53,108.08,69.72,-0.21933212335510796,0.5331893388221637,0.14909452050724611,-0.8033513381986975,-50.73970760745013,52.30475697387298,123.24383548767786,1
1767487327.872504,2,right_wrist,1.0204,-0.2035,0.1122,-88.2,-38.36,-101.92,-0.20338454988747387,-0.3744238839263695,-0.030347845576422377,-0.9041683959757895,16.10066951634408,-41.66237580277132,148.48487477347015,1
1767487327.941107,1,left_wrist,-0.6505,-0.3899,0.4407,8.75,106.26,62.72,-0.20651189199955453,0.5701547606258621,0.1202134270056853,-0.7860185235514359,-52.906667361409376,57.849519321012856,119.81125424931264,1
1767487327.941107,2,right_wrist,1.0204,-0.2035,0.1122,-88.2,-38.36,-101.92,-0.3086689991186865,-0.39032952629798573,0.017779832762763167,-0.8672082722333699,16.830183281095415,-43.469643022969734,134.06500408075004,1
1767487327.995599,1,left_wrist,-0.7266,-0.4011,0.1435,9.94,115.71,52.08,-0.19687384608226963,0.6132703106283991,0.09469896475270702,-0.7590601563152207,-59.17638982376403,63.3458441931803,112.30757382600554,1
1767487327.995599,2,right_wrist,1.0204,-0.2035,0.1122,-88.2,-38.36,-101.92,-0.3596025228194975,-0.39605391019150465,0.04180305663832455,-0.8438482270287503,17.424481177282527,-44.305481210581405,126.69786387647709,1
1767487328.0711281,1,left_wrist,-0.8067,-0.3792,-0.0151,-16.8,29.54,8.75,-0.1842066370226306,0.6512356347888656,0.08231448298318518,-0.7315629766118341,-69.01336195890602,67.29642528124006,102.5581384024933,1
1767487328.0711281,2,right_wrist,1.0204,-0.2035,0.1122,-88.2,-38.36,-101.92,-0.40913483038883125,-0.4002606873393335,0.06568263933831776,-0.8173651959943602,18.165253064717223,-45.07764875310707,119.22780523376348,1
1767487328.127114,1,left_wrist,-0.8525,-0.2845,-0.0332,-5.53,6.16,-0.56,-0.1817950112031763,0.6564005398371849,0.0833008221256938,-0.7274268885848754,-70.9300099560375,67.62006937202433,100.92764425290123,1
1767487328.127114,2,right_wrist,1.0204,-0.2035,0.1122,-88.2,-38.36,-101.92,-0.4570790532555897,-0.40293336334630325,0.08933137818819815,-0.787872672865614,19.043187114828694,-45.773113254083775,111.66004348120617,1
1767487328.191054,1,left_wrist,-0.9101,-0.3884,0.0288,8.82,-16.87,-3.01,-0.1848491842946755,0.6527517183283554,0.08391759246430057,-0.7298656115751503,-69.81568031091913,67.19330544344436,101.8339044783112,1
1767487328.191054,2,right_wrist,1.0204,-0.2035,0.1122,-88.2,-38.36,-101.92,-0.5475009398475662,-0.40364162999997827,0.13559012220895517,-0.7203689847268223,21.154358643647182,-46.887505788631906,96.2693216906185,1
1767487328.244645,1,left_wrist,-0.9477,-0.365,0.0976,3.99,-14.28,-4.9,-0.18596083505883132,0.6504245214020955,0.08496193238493797,-0.731538091850653,-69.15248246430058,66.92921692175341,102.48760850036592,1
1767487328.244645,2,right_wrist,1.0204,-0.2035,0.1122,-88.2,-38.36,-101.92,-0.589652119820382,-0.40167592762640136,0.15802919991534659,-0.6826372380195174,22.350262661867255,-47.28714278120853,88.47381641238916,1
1767487328.3236191,1,left_wrist,-0.9287,-0.4402,0.1684,5.74,-15.4,-7.98,-0.20028493890543833,0.6367595518440997,0.09356379986234023,-0.7386941395044814,-66.43193023690772,64.59024606085097,104.69471464476044,1
1767487328.3236191,2,right_wrist,1.0204,-0.2035,0.1122,-88.2,-38.36,-101.92,-0.6295631837716416,-0.3981738040550513,0.17989627381673345,-0.6424524496571702,23.60941676958078,-47.57216027457275,80.63488825848613,1
1767487328.405281,1,left_wrist,-0.8647,-0.3821,0.0307,-6.23,-24.15,-11.97,-0.20088553519816493,0.6317770878482972,0.10149186050636531,-0.7417561022796026,-65.87403536553684,63.69820213389939,105.84814662431388,1
1767487328.405281,2,right_wrist,1.0204,-0.2035,0.1122,-88.2,-38.36,-101.92,-0.702128390617617,-0.38663075520922324,0.2215902365082904,-0.5553648794254643,26.213268276797542,-47.783564280116394,64.90926363196697,1
1767487328.478592,1,left_wrist,-0.6944,-0.2904,0.103,-24.78,-79.03,-44.8,-0.20668677819613332,0.5957205536908747,0.1399212610498025,-0.763426249440883,-61.36777618058115,58.40117358676257,113.00765139849625,1
1767487328.478592,2,right_wrist,1.0204,-0.2035,0.1122,-88.2,-38.36,-101.92,-0.7345408670116137,-0.3786415381496743,0.24126139962257573,-0.5087958700005647,27.50384085113167,-47.70886500151117,57.065679284579126,1
1767487328.5417001,1,left_wrist,-0.6364,-0.3548,0.1166,-27.58,-102.13,-67.2,-0.21505925732821426,0.5621254160965286,0.17646808309379902,-0.7788604162909689,-59.3842993740968,53.10454470973818,117.31887040385824,1
1767487328.5417001,2,right_wrist,1.0204,-0.2035,0.1122,-88.2,-38.36,-101.92,-0.7910988072908519,-0.3584041513219248,0.2778870693691719,-0.4104727982407791,29.93268531307389,-47.214565708415385,41.51909338206445,1
1767487328.621702,1,left_wrist,-0.3592,-0.4538,0.3323,-30.03,-145.95,-123.13,-0.24936149077754677,0.4452365904028659,0.2853856160768382,-0.8112572191482019,-57.251604729844466,35.45577789224917,126.03287636571686,1
1767487328.621702,2,right_wrist,1.0204,-0.2035,0.1122,-88.2,-38.36,-101.92,-0.8150632524122287,-0.3462439608288478,0.2947072022394198,-0.359074754201635,31.02565291267832,-46.808062839368596,33.85064695636665,1
1767487328.677208,1,left_wrist,-0.2416,-0.8408,0.4602,-118.44,-154.07,-167.09,-0.2670730050416359,0.37737964594572365,0.37714077189022355,-0.8025094709609083,-61.9078657543629,23.844339873927684,128.7511355504276,1
1767487328.677208,2,right_wrist,1.0204,-0.2035,0.1122,-88.2,-38.36,-101.92,-0.8360464908230926,-0.3327900583948664,0.3104499447433119,-0.30642759997234026,32.012806832987486,-46.307144635240654,26.27002605430188,1
1767487328.7311602,1,left_wrist,-0.0059,-0.9355,0.4421,-44.8,-134.89,-212.66,-0.3124408680354387,0.2951101421472871,0.4432854654478338,-0.7866312376874992,-63.85704266650613,10.79436588110218,129.93664158369347,1
1767487328.7311602,2,right_wrist,1.0204,-0.2035,0.1122,-88.2,-38.36,-101.92,-0.8539814453371856,-0.31809864631362195,0.32505948187211536,-0.252715799819253,32.88011379740643,-45.72247491904676,18.786341560865452,1
1767487328.805722,1,left_wrist,0.0249,-0.794,0.4987,-207.62,-80.15,-232.75,-0.34896488770641265,0.24457254942075846,0.5502863310124188,-0.7180478599082182,-74.04474146483908,-1.8814516011869402,129.58030135505072,1
1767487328.805722,2,right_wrist,1.0204,-0.2035,0.1122,-88.2,-38.36,-101.92,-0.8804839086734413,-0.2852476863830838,0.3506801283426099,-0.14284709155543754,34.21775104973346,-44.34923447744046,4.128956568044226,1
1767487328.870089,1,left_wrist,0.5031,-1.1639,0.3611,-305.06,-57.96,-260.89,-0.43367615777109497,0.1274627308437968,0.7057783291647479,-0.5454861982746759,-91.86939106138293,-28.2357227113552,132.161808663049,1
1767487328.870089,2,right_wrist,1.0204,-0.2035,0.1122,-88.2,-38.36,-101.92,-0.888963111787041,-0.2672188356648847,0.36160415426623227,-0.0870696006951174,34.678041097368364,-43.5857000889957,-3.0429575410976852,1
1767487328.921216,1,left_wrist,0.9292,-1.1,0.0317,-91.14,-22.54,-224.35,-0.47533608379522896,0.06646641606553638,0.739607563301968,-0.4718246234398367,-97.69756688948941,-39.821902267919306,134.59946308732432,1
1767487328.921216,2,right_wrist,1.0204,-0.2035,0.1122,-88.2,-38.36,-101.92,-0.8942176853891999,-0.24821313649115725,0.3712207478584459,-0.03098590598675699,34.99767279715791,-42.78791539391679,-10.113522062661863,1
1767487328.991106,1,left_wrist,0.9536,-0.7149,-0.0156,-211.33,4.69,-213.22,-0.5131858214278427,0.03915847344682382,0.7806638889633805,-0.3545008026948818,-110.49745745890378,-50.66813697699169,137.89208772875273,1
1767487328.991106,2,right_wrist,1.0204,-0.2035,0.1122,-88.2,-38.36,-101.92,-0.8949809366670308,-0.20756271867151924,0.3864107108462948,0.08132406386521203,35.22462777487019,-41.13996806477136,-23.971741059473512,1
1767487329.041124,1,left_wrist,1.1502,-0.7613,-0.2801,-40.39,26.95,-177.24,-0.5501305642756837,-0.010877726273251112,0.7803176136036168,-0.29722459390299233,-115.7563300425236,-59.88491983550518,141.83352317377447,1
1767487329.041124,2,right_wrist,1.0204,-0.2035,0.1122,-88.2,-38.36,-101.92,-0.8904785292773453,-0.18606937559220696,0.391935324494359,0.1371600443871463,35.14138814777904,-40.314097668023635,-30.773155936508132,1
1767487329.0972118,1,left_wrist,1.1229,-0.5124,-0.2606,-131.18,11.48,-166.6,-0.5760841282720115,-0.03744013011094383,0.7894183169153118,-0.20867207462654982,-131.03080039983433,-67.69372350722716,151.46490150895724,1
1767487329.0972118,2,right_wrist,1.0204,-0.2035,0.1122,-88.2,-38.36,-101.92,-0.8827298065262882,-0.16390159656999395,0.3960548519945897,0.1925224909547254,34.93563020391161,-39.502312155874925,-37.49991295654474,1
1767487329.147302,1,left_wrist,1.1458,-0.4846,-0.3367,-50.68,26.18,-132.02,-0.5950988703899354,-0.06467239119333715,0.7845590453925868,-0.16168463306892228,-143.56812026949285,-72.68703163398169,162.20285027973352,1
1767487329.147302,2,right_wrist,1.0204,-0.2035,0.1122,-88.2,-38.36,-101.92,-0.871755213836236,-0.14113996336571413,0.39875633185759446,0.24721598996411864,34.615121134848444,-38.715349536237326,-44.16032430065253,1
1767487329.230068,1,left_wrist,1.0756,-0.1542,-0.3138,-46.55,21.7,-77.63,-0.6191324453133609,-0.08559006213717583,0.7767891453412844,-0.07712314894770117,-176.42552079022806,-77.18018499783076,-170.27731644724267,1
1767487329.230068,2,right_wrist,1.0204,-0.2035,0.1122,-88.2,-38.36,-101.92,-0.8575859726477753,-0.11786677944977264,0.40003130371242485,0.30104597301748764,34.18838194426655,-37.96324410142836,-50.762746128989434,1
1767487329.295809,1,left_wrist,1.0482,-0.1996,-0.2728,13.93,17.57,-55.93,-0.6251364309108453,-0.1047029596054666,0.7701862183519835,-0.07109797506664269,174.13693550032002,-77.9131345259809,-159.77487382730507,1
1767487329.295809,2,right_wrist,1.0204,-0.2035,0.1122,-88.2,-38.36,-101.92,-0.8198432896557588,-0.07012282001778151,0.3982903781146332,0.405344970636716,33.05304565432804,-36.599903499718486,-63.826133916431466,1
1767487329.348632,1,left_wrist,0.876,-0.2406,-0.2167,17.22,11.48,-36.47,-0.6283855253309228,-0.11825008655557226,0.7655551534414642,-0.07123100184186609,168.82016386385092,-78.22982313924,-153.3383980747782,1
1767487329.348632,2,right_wrist,1.0204,-0.2035,0.1122,-88.2,-38.36,-101.92,-0.7963875141100935,-0.04582407856601434,0.39528011244524275,0.4554346428395603,32.363868119899045,-36.004766022436,-70.30251807267143,1
1767487329.4244921,1,left_wrist,0.954,-0.1879,-0.1708,22.54,5.25,-8.75,-0.6299340809553602,-0.1346800554635113,0.7595317680636386,-0.09030963189712547,170.29811266113848,-78.88306140077675,-151.9025064713787,1
1767487329.4244921,2,right_wrist,1.0204,-0.2035,0.1122,-88.2,-38.36,-101.92,-0.76997257166441,-0.02135753187585054,0.39085467053515677,0.503903484049794,31.607122561736915,-35.476604602404784,-76.75159858599756,1
1767487329.494551,1,left_wrist,0.9526,-0.1166,-0.1581,26.11,3.92,3.5,-0.629591612496095,-0.1374497469262021,0.7575799328136328,-0.10389713154164411,175.18006074034105,-79.26315945197749,-155.44045647123988,1
1767487329.494551,2,right_wrist,1.0204,-0.2035,0.1122,-88.2,-38.36,-101.92,-0.7086239156716105,0.027723251583771757,0.37782007523557865,0.595260916077008,29.93249439472834,-34.64359033175788,-89.59377697980639,1
1767487329.544566,1,left_wrist,0.9745,-0.1376,-0.1444,9.8,5.11,7.98,-0.6306045909331677,-0.13424191653612325,0.7559656668707645,-0.11328225038090077,-179.37017617657398,-79.68727183549802,-160.38670074937838,1
1767487329.544566,2,right_wrist,1.0204,-0.2035,0.1122,-88.2,-38.36,-101.92,-0.6738974483069704,0.052158096246380285,0.369253539746668,0.6378037202352016,29.035756376298174,-34.34753993437337,-95.9987191134566,1
1767487329.619946,1,left_wrist,0.9843,-0.04,-0.1454,9.45,1.75,14.77,-0.6340942887449578,-0.1251151137186521,0.7517827157538718,-0.13074169034370017,-166.80281254514097,-80.44191572224554,-172.27716234489353,1
1767487329.619946,2,right_wrist,1.0204,-0.2035,0.1122,-88.2,-38.36,-101.92,-0.636626048735024,0.07640250565209766,0.3593571292545927,0.67803568110831,28.113662548290293,-34.13602069499061,-102.40012593121433,1
1767487329.67438,1,left_wrist,0.9823,-0.0107,-0.1449,14.42,1.33,15.33,-0.6351167052779273,-0.12621459664782092,0.7495680040755553,-0.13727510166132198,-163.7061862952385,-80.67268628604415,-174.74596368042344,1
1767487329.67438,2,right_wrist,1.0204,-0.2035,0.1122,-88.2,-38.36,-101.92,-0.5969405310962808,0.10036652915216045,0.3481639821998387,0.715800533430361,27.176975267852193,-34.010941810887985,-108.80300637339984,1
1767487329.7421288,1,left_wrist,0.9819,-0.0366,-0.1444,27.65,2.17,22.05,-0.6355871374402673,-0.12784589085755763,0.7462151504021672,-0.1511534591783968,-156.68757739310976,-80.82940919305366,179.51778875768755,1
1767487329.7421288,2,right_wrist,1.0204,-0.2035,0.1122,-88.2,-38.36,-101.92,-0.5109021063822966,0.1470964118144157,0.3220436277668102,0.7833451251780715,25.302867050147437,-34.02261248482726,-121.63206829447692,1
1767487329.796654,1,left_wrist,0.9579,-0.1684,-0.1737,60.34,6.16,43.75,-0.6291325730903844,-0.12696084156604306,0.7438709073370421,-0.18635778331768113,-139.7758710166932,-79.51642792387953,165.48536053266292,1
1767487329.796654,2,right_wrist,1.0204,-0.2035,0.1122,-88.2,-38.36,-101.92,-0.4648613505772395,0.16968627260324606,0.307206132544121,0.8128560055488337,24.386840826554018,-34.15804027609347,-128.06734161957735,1
1767487329.873049,1,left_wrist,1.0092,-0.5563,-0.1137,97.09,7.49,107.94,-0.6013254136783697,-0.1113895094329774,0.728919030860136,-0.30769655588377703,-105.53590236406224,-70.9411035141046,140.5093857354074,1
1767487329.873049,2,right_wrist,1.0204,-0.2035,0.1122,-88.2,-38.36,-101.92,-0.4170298050279312,0.19164452167752363,0.2912511412011277,0.8393636230969267,23.498917865991153,-34.377274716288795,-134.52242209281889,1
1767487329.94593,1,left_wrist,0.9662,-0.6451,0.0151,187.25,16.45,150.78,-0.5733803381652816,-0.10675740583108673,0.7019952584051387,-0.4087058860383423,-91.06469610045633,-63.16183866504711,135.0784522399996,1
1767487329.94593,2,right_wrist,1.0204,-0.2035,0.1122,-88.2,-38.36,-101.92,-0.3167157660419015,0.23333360390941968,0.25621691934841934,0.8829492868034602,21.84856091106921,-35.05337987672358,-147.51019666583466,1
1767487330.0200582,1,left_wrist,0.9301,-0.9374,0.3597,229.18,76.09,205.17,-0.5014783704411667,-0.06520816255444231,0.5849997727346405,-0.6340682971229238,-65.58657977589338,-42.02249503382996,131.11867136595973,1
1767487330.0200582,2,right_wrist,1.0204,-0.2035,0.1122,-88.2,-38.36,-101.92,-0.26461265585695226,0.2529045522808542,0.23726203899652504,0.8998478508321073,21.106066953423316,-35.50094000898601,-154.0522651716638,1
1767487330.078379,1,left_wrist,0.8642,-1.0399,0.5075,137.2,106.05,200.2,-0.4649074780025591,-0.011309524592617352,0.5241670050870115,-0.7134298019629554,-58.59246807849107,-30.232852436669237,131.0562858568386,1
1767487330.078379,2,right_wrist,1.0204,-0.2035,0.1122,-88.2,-38.36,-101.92,-0.21147591553596645,0.27152487275117526,0.21743790369442484,0.913385427222625,20.431424836993767,-36.01375692789968,-160.63294010334403,1
1767487330.145204,1,left_wrist,0.7837,-1.0019,0.6163,125.16,121.66,200.97,-0.4286487845686927,0.04275657835194139,0.45966908601158213,-0.7766185845450091,-52.60711684809696,-19.12693474814669,131.72907500274454,1
1767487330.145204,2,right_wrist,1.0204,-0.2035,0.1122,-88.2,-38.36,-101.92,-0.10292432802970926,0.30562998018339843,0.1754702895082479,0.9301650796566274,19.321198897764987,-37.206753119412426,-173.93036132182687,1
1767487330.222056,1,left_wrist,0.4836,-0.8525,0.7906,61.46,162.89,164.64,-0.3673333103328502,0.17670213119163913,0.337068405443232,-0.8486621742508615,-44.65958044220351,2.9972441442505624,131.95908865357964,1
1767487330.222056,2,right_wrist,1.0204,-0.2035,0.1122,-88.2,-38.36,-101.92,-0.04793056340742205,0.32098283924194365,0.15347858879485723,0.9333364885105302,18.901919217088974,-37.87077445052918,179.34259165080857,1
1767487330.2953038,1,left_wrist,0.3353,-0.7764,0.7662,31.85,166.39,138.67,-0.3432536314008416,0.24848651869070001,0.2887844649146151,-0.8585073834179243,-43.19859874328439,13.203031964176995,131.16751587213892,1
1767487330.2953038,2,right_wrist,1.0204,-0.2035,0.1122,-88.2,-38.36,-101.92,0.06242222894706003,0.34799200616584686,0.10787822242180795,0.9291756120912025,18.37019229966988,-39.28833952683681,165.7065438551416,1
1767487330.345582,1,left_wrist,0.163,-0.6608,0.7584,11.27,155.96,120.68,-0.3196565045018537,0.3153428058812899,0.24886900115889876,-0.8581624870446993,-42.87305641726261,22.465405984853867,130.22298388919234,1
1767487330.345582,2,right_wrist,1.0204,-0.2035,0.1122,-88.2,-38.36,-101.92,0.11735045006484805,0.35954354894050583,0.08443547314805659,0.9218611387617485,18.268954732285575,-40.02197509486099,158.7882206154773,1
1767487330.4213629,1,left_wrist,-0.2128,-0.5212,0.4982,6.51,127.19,91.84,-0.27632353882505173,0.4262876970204803,0.18461618376337785,-0.8413328508698695,-43.86118151061455,37.97169366805302,127.86298876412128,1
1767487330.4213629,2,right_wrist,1.0204,-0.2035,0.1122,-88.2,-38.36,-101.92,0.1718272699399713,0.3697315521354731,0.06067775053969958,0.9110939464456517,18.282938428018355,-40.75820055023837,151.79770245980535,1
1767487330.472033,1,left_wrist,-0.3684,-0.4392,0.3963,-11.06,112.49,53.9,-0.265420516681468,0.47071717821064957,0.1688335864678383,-0.8243012237904012,-46.58096100650763,43.345942592196934,124.88820080662121,1
1767487330.472033,2,right_wrist,1.0204,-0.2035,0.1122,-88.2,-38.36,-101.92,0.2256408937232621,0.378516406348737,0.036691728091278214,0.8969198594602983,18.414434385566693,-41.486185956927635,144.73201046347327,1
1767487330.545803,1,left_wrist,-0.5309,-0.425,0.3909,-9.52,95.27,53.41,-0.25330574061429256,0.5084381583054677,0.1542894852868313,-0.8084068256025019,-49.348790242015596,48.06341210185073,122.0510208085224,1
1767487330.545803,2,right_wrist,1.0204,-0.2035,0.1122,-88.2,-38.36,-101.92,0.3304500053018487,0.3917454669121815,-0.011614176338872883,0.8586054938432054,19.030308721634974,-42.873769204451875,130.36910585942312,1
1767487330.597654,1,left_wrist,-0.6773,-0.4021,0.2591,8.26,85.33,37.31,-0.2461094287858618,0.5428106382443424,0.13317079248277852,-0.7918663397954071,-51.872181426323394,52.57200616760538,118.45427399900537,1
1767487330.597654,2,right_wrist,1.0204,-0.2035,0.1122,-88.2,-38.36,-101.92,0.3810438118454502,0.3961381304465898,-0.035757250546684834,0.8346266315508457,19.509788263310025,-43.51188483955496,123.0726556810233,1
1767487330.649467,1,left_wrist,-0.7491,-0.4377,0.2157,-3.99,67.48,26.74,-0.23892269617473533,0.5707466861071321,0.12140047216774016,-0.7761611243213433,-55.32661163085621,55.89098605218972,114.7001485737044,1
1767487330.649467,2,right_wrist,1.0204,-0.2035,0.1122,-88.2,-38.36,-101.92,0.4301731094806536,0.39902483164170743,-0.05977559128033296,0.8075624795024465,20.096603294174272,-44.09919195790296,115.70303796690578,1
1767487330.722133,1,left_wrist,-0.8808,-0.4158,0.0605,-45.5,71.75,17.29,-0.2170582802285841,0.6269597919278995,0.11479093307104137,-0.7393444149884505,-67.01014234203603,61.311889463231715,104.42868737644561,1
1767487330.722133,2,right_wrist,1.0204,-0.2035,0.1122,-88.2,-38.36,-101.92,0.4776541203117469,0.4003944543955979,-0.0835808220071945,0.7775249632205158,20.78247545716622,-44.626219538033475,108.26538674639143,1
1767487330.773136,1,left_wrist,-0.7891,-0.2294,-0.1171,-25.13,39.06,8.54,-0.20748086763733614,0.6451069563703099,0.11579656639762732,-0.7262092395567639,-72.09154815767386,62.73711132059756,100.25840414901745,1
1767487330.773136,2,right_wrist,1.0204,-0.2035,0.1122,-88.2,-38.36,-101.92,0.5233114210477848,0.400241955604624,-0.1070851222166061,0.7446370325028085,21.55668764707438,-45.08440619263652,100.7669411637108,1
1767487330.84669,1,left_wrist,-0.793,-0.4041,0.0815,18.9,-12.74,1.33,-0.21176222451536728,0.6418876298940788,0.11186602757020685,-0.7284387570228037,-70.85776396914748,62.59480519982711,100.8033123732285,1
1767487330.84669,2,right_wrist,1.0204,-0.2035,0.1122,-88.2,-38.36,-101.92,0.6084988259220455,0.39538130362073276,-0.1528444234042271,0.6708512397192774,23.31583507232697,-45.7658853760187,85.62670390540606,1
1767487330.92005,1,left_wrist,-0.8926,-0.4338,0.1864,28.42,-19.11,0.35,-0.22242373040553123,0.6243413906509954,0.09981526497814018,-0.7421336974897531,-64.79325694666895,61.91948582784344,104.95235038326929,1
1767487330.92005,2,right_wrist,1.0204,-0.2035,0.1122,-88.2,-38.36,-101.92,0.6477251517288459,0.39069409320991677,-0.17492964006292674,0.6302458840612759,24.26875496609147,-45.97852156663375,78.00877938636506,1
1767487330.9811552,1,left_wrist,-0.9091,-0.468,0.1693,7.63,-14.56,-4.76,-0.226128010749774,0.6208967593840875,0.10211424027814044,-0.7435899534508967,-64.31167293216524,61.30683021242886,105.30200770947496,1
1767487330.9811552,2,right_wrist,1.0204,-0.2035,0.1122,-88.2,-38.36,-101.92,0.6845208453852847,0.3845266393953589,-0.19637513492161798,0.587373205222066,25.24685087586558,-46.101315849215254,70.37702880325156,1
1767487331.0346282,1,left_wrist,-0.9448,-0.4621,0.2142,6.02,-12.04,-6.65,-0.2279613566145164,0.6189204455805226,0.10259357256505644,-0.7446110802299514,-63.92792749714038,61.03731970359828,105.56566913623179,1
1767487331.0346282,2,right_wrist,1.0204,-0.2035,0.1122,-88.2,-38.36,-101.92,0.7187594739262195,0.3769048850965318,-0.21710126501873628,0.542397056554457,26.231382245867582,-46.133084307843994,62.745824427875995,1
1767487331.097736,1,left_wrist,-0.9355,-0.4397,0.2469,14.0,-6.93,-5.18,-0.23182512626613622,0.6132116584443237,0.0974368280281022,-0.7488221666881091,-61.98011032418329,60.832228322683974,106.74991921407262,1
1767487331.097736,2,right_wrist,1.0204,-0.2035,0.1122,-88.2,-38.36,-101.92,0.7791114092061426,0.35743188337825343,-0.2560914780126425,0.4468165346971768,28.145395934560614,-45.92752524595688,47.541823267920854,1
1767487331.174646,1,left_wrist,-0.8384,-0.4387,0.1898,4.13,-14.63,-10.43,-0.23697407097551193,0.6105534753497613,0.10294777134475759,-0.748645109380118,-62.25923388238972,59.92656389628335,106.47766342862701,1
1767487331.174646,2,right_wrist,1.0204,-0.2035,0.1122,-88.2,-38.36,-101.92,0.8050232642778353,0.34566142874230266,-0.27421207086006544,0.3965645733621735,29.03985933124134,-45.69635875830427,39.9953328938453,1
1767487331.243617,1,left_wrist,-0.7842,-0.388,0.0795,-10.78,-27.93,-19.67,-0.23834726483344662,0.6045192323899825,0.11474893517126969,-0.7513852280249466,-62.2072973733673,58.62229327762688,107.3758253389172,1
1767487331.243617,2,right_wrist,1.0204,-0.2035,0.1122,-88.2,-38.36,-101.92,0.8478909269921818,0.31829355169150425,-0.30737456597857027,0.292046344037093,30.62807404347447,-45.00375711997934,25.06793208194772,1
1767487331.309642,1,left_wrist,-0.7496,-0.4319,0.1479,-6.44,-59.01,-36.54,-0.24564352689411334,0.5863699165450513,0.13402742318669306,-0.7601751301508789,-60.664253250511585,55.65360564584861,109.85883387944985,1
1767487331.309642,2,right_wrist,1.0204,-0.2035,0.1122,-88.2,-38.36,-101.92,0.8647055634909615,0.3028065634799213,-0.32229738321711826,0.2381530397720274,31.297871148602756,-44.55658204182721,17.70302374386023,1
1767487331.3703942,1,left_wrist,-0.6178,-0.366,0.1967,-45.57,-103.67,-81.62,-0.2575247301727174,0.5294857491416389,0.20959166466522577,-0.7806389619460755,-59.63920806234132,45.94925955727847,116.17014061739009,1
1767487331.3703942,2,right_wrist,1.0204,-0.2035,0.1122,-88.2,-38.36,-101.92,0.8783631633887148,0.28619808134556923,-0.33604275351461893,0.18342322439156347,31.872757696260685,-44.053193062930035,10.411079777124202,1
1767487331.430218,1,left_wrist,-0.53,-0.5461,0.0595,-86.94,-116.76,-121.73,-0.2673651396274847,0.4891793179733739,0.28143752337330374,-0.7810329041830324,-62.63066837885357,37.85295771151226,118.63881273147832,1
1767487331.430218,2,right_wrist,1.0204,-0.2035,0.1122,-88.2,-38.36,-101.92,0.8888179748829613,0.2685331323776702,-0.3485626653720503,0.12804933677735317,32.3466837443843,-43.502679962066104,3.1947914106969657,1
1767487331.494242,1,left_wrist,-0.3118,-0.3753,0.4207,-79.38,-147.07,-168.84,-0.2891408759522422,0.4224810487158018,0.35872489007428643,-0.7805278794320915,-64.3829007421435,26.876725965228676,122.23788636879955,1
1767487331.494242,2,right_wrist,1.0204,-0.2035,0.1122,-88.2,-38.36,-101.92,0.8999864566566816,0.2303099990377223,-0.36975794065449874,0.01614767787453331,32.9785992869705,-42.29842805424644,-11.009527337589425,1
1767487331.577961,1,left_wrist,0.0644,-0.9809,0.5993,-123.69,-129.22,-187.39,-0.3468211724573874,0.2795022485974082,0.5062660882598605,-0.7384363312042107,-70.62334465669147,3.5328978005102787,127.18104912568074,1
1767487331.577961,2,right_wrist,1.0204,-0.2035,0.1122,-88.2,-38.36,-101.92,0.9006592183790112,0.20989700011899007,-0.37836120898944203,-0.03998771338805408,33.13505573328905,-41.66410143552179,-18.000946037058448,1
1767487331.644162,1,left_wrist,0.2264,-1.3313,0.4621,-111.65,-98.91,-196.91,-0.37506807396275255,0.21608252525022537,0.5795629858724003,-0.690462908186982,-76.28784609911936,-7.837107978968038,129.13573970078522,1
1767487331.644162,2,right_wrist,1.0204,-0.2035,0.1122,-88.2,-38.36,-101.92,0.8921575166247478,0.16684960064809146,-0.3914346764411758,-0.15164125551091687,33.137720491362415,-40.37896033943817,-31.78007244245873,1
1767487331.721689,1,left_wrist,0.4612,-1.057,0.2318,-117.95,-39.27,-202.58,-0.44080725679578714,0.09900818163123189,0.6779300112600588,-0.5799114088886219,-85.99145686797881,-28.871116459722078,132.5135706660177,1
1767487331.721689,2,right_wrist,1.0204,-0.2035,0.1122,-88.2,-38.36,-101.92,0.8830052135662334,0.14437421033741119,-0.3958614383690133,-0.20676460484501497,32.99149547639881,-39.74653277664687,-38.57749514142349,1
1767487331.774512,1,left_wrist,0.7349,-0.9584,0.04,-58.45,-38.01,-183.82,-0.47388148181205614,0.04268630408319472,0.7062260185612933,-0.5242699985183119,-90.08470927651759,-38.65111535559106,134.4839388226739,1
1767487331.774512,2,right_wrist,1.0204,-0.2035,0.1122,-88.2,-38.36,-101.92,0.8706181046167227,0.12137345582080683,-0.3988605015202203,-0.2611568503078914,32.753707004095176,-39.1324574914686,-45.32085677244702,1
1767487331.844769,1,left_wrist,0.7984,-0.9984,-0.0264,-117.25,-15.47,-204.33,-0.5090919703105724,0.0007279103195994148,0.7384316847605572,-0.44220298829106847,-97.88620021596675,-48.695779479111486,136.8620210802758,1
1767487331.844769,2,right_wrist,1.0204,-0.2035,0.1122,-88.2,-38.36,-101.92,0.836303994787476,0.07413266777553014,-0.4005408009249638,-0.36697008415589005,32.02872432641257,-37.99108097544178,-58.6690570436587,1
1767487331.92312,1,left_wrist,1.0946,-0.6778,-0.0551,-100.8,15.54,-155.33,-0.5784431533456593,-0.08030683563731353,0.7421880064521468,-0.32880281868627526,-106.17051652267847,-65.70474723630336,140.59474655720106,1
1767487331.92312,2,right_wrist,1.0204,-0.2035,0.1122,-88.2,-38.36,-101.92,0.814487078372274,0.050064350393473955,-0.3992165343136994,-0.4180077974330568,31.55569408228453,-37.47815026979198,-65.2858491013073,1
1767487331.978851,1,left_wrist,1.0526,-0.6461,-0.0737,-87.15,19.18,-118.65,-0.603148090879263,-0.09089245092496596,0.7435325172333977,-0.2740626546067889,-112.30395465316013,-71.21629761125165,142.63025289476056,1
1767487331.978851,2,right_wrist,1.0204,-0.2035,0.1122,-88.2,-38.36,-101.92,0.7896556076287023,0.025813707866614032,-0.39645359356987236,-0.4675491652994972,31.01920153112113,-37.01221351978647,-71.87227179463815,1
1767487332.04318,1,left_wrist,1.0399,-0.4802,-0.1264,-103.74,25.97,-100.94,-0.6254182631233856,-0.08979991719444397,0.7438405312624531,-0.21792024934546603,-120.08143706481995,-75.82711846823105,145.41328226685837,1
1767487332.04318,2,right_wrist,1.0204,-0.2035,0.1122,-88.2,-38.36,-101.92,0.7312920190142379,-0.02288094887005949,-0.38665324937310236,-0.5614158083400455,29.78860803415706,-36.24251730902266,-84.97645940050735,1
1767487332.0956879,1,left_wrist,1.036,-0.3465,-0.1859,-99.82,18.69,-81.97,-0.6398217502390537,-0.0845632844891249,0.7455265837023397,-0.1663348785750107,-132.0095554119903,-79.155035245424,152.54050166414925,1
1767487332.0956879,2,right_wrist,1.0204,-0.2035,0.1122,-88.2,-38.36,-101.92,0.6979590424672715,-0.04714701601950538,-0.3796486731087398,-0.605390137783396,29.111518025812593,-35.94745899737283,-91.5048830669008,1
1767487332.171105,1,left_wrist,1.0224,-0.2948,-0.2001,-3.15,5.18,-37.66,-0.6486688398630842,-0.10111516350536985,0.741407905341219,-0.1389920062360016,-147.9837572788239,-81.87610550764033,167.58369513124146,1
1767487332.171105,2,right_wrist,1.0204,-0.2035,0.1122,-88.2,-38.36,-101.92,0.6620095043989892,-0.07124003836206563,-0.3712711010332153,-0.6471677082156991,28.404870369130837,-35.71674342569529,-98.02423712851207,1
1767487332.2456121,1,left_wrist,0.9838,-0.2211,-0.1703,2.1,2.1,-26.46,-0.6489775157404487,-0.10724105641685049,0.7409406666349795,-0.1354048315551035,-153.07010485624747,-82.2007346939587,172.8754119194293,1
1767487332.2456121,2,right_wrist,1.0204,-0.2035,0.1122,-88.2,-38.36,-101.92,0.5827768380033725,-0.11855190104686329,-0.35051575904518356,-0.7235021123023376,26.938451472887724,-35.45687533680669,-111.0545403891873,1
1767487332.3001752,1,left_wrist,0.9906,-0.2211,-0.142,10.5,0.14,-18.41,-0.6484001300466634,-0.11295907952272666,0.7402787116747853,-0.1371311297626057,-155.0511522592159,-82.29608331243146,175.46933183407606,1
1767487332.3001752,2,right_wrist,1.0204,-0.2035,0.1122,-88.2,-38.36,-101.92,0.5397771129485085,-0.14159496741015357,-0.33820936155007375,-0.7577637899114621,26.19655016682121,-35.42989670066332,-117.57442832575035,1
1767487332.373664,1,left_wrist,0.9897,-0.1684,-0.0795,2.17,-6.23,-4.41,-0.6459131642212399,-0.11393253192635219,0.7417042564897173,-0.1403223373508011,-154.21427576170092,-81.94239530484603,174.9806732742169,1
1767487332.373664,2,right_wrist,1.0204,-0.2035,0.1122,-88.2,-38.36,-101.92,0.49472684683324586,-0.1641141104551228,-0.32467260192216124,-0.7892398921323297,25.460735147000094,-35.471597324779424,-124.10319230704484,1
1767487332.443647,1,left_wrist,0.9711,-0.1488,-0.0595,-8.05,-4.48,-1.47,-0.646216598039852,-0.10993337708216389,0.742111060725645,-0.13996404741850363,-152.40742326646617,-81.85084458688836,172.81524646310208,1
1767487332.443647,2,right_wrist,1.0204,-0.2035,0.1122,-88.2,-38.36,-101.92,0.3991437989384626,-0.20724412977028533,-0.2941019519342062,-0.8433493583997199,24.042473337039773,-35.7561199010603,-137.20394068304014,1
1767487332.505016,1,left_wrist,0.9745,-0.1142,-0.0615,-23.73,-0.91,2.52,-0.648709993088939,-0.10057924854605989,0.7421513252132365,-0.13516867282286815,-150.06674972161534,-81.91979943282269,169.30690327905668,1
1767487332.505016,2,right_wrist,1.0204,-0.2035,0.1122,-88.2,-38.36,-101.92,0.34896602096539425,-0.22769198172828373,-0.2771760879707175,-0.8657669974799664,23.377174856872756,-35.994421412521106,-143.78410005500123,1
1767487332.574163,1,left_wrist,1.0087,-0.1161,-0.1391,-40.81,11.83,7.21,-0.6560786142488055,-0.07505575036436374,0.7410944558013649,-0.12127033373042333,-143.47287026588367,-82.15314266597447,159.47015296077703,1
1767487332.574163,2,right_wrist,1.0204,-0.2035,0.1122,-88.2,-38.36,-101.92,0.29744636454505835,-0.2472905734585364,-0.25923558218432824,-0.8849688951748693,22.75214524420641,-36.29240162848687,-150.38953203043124,1
1767487332.626647,1,left_wrist,1.0355,-0.0644,-0.1264,-49.7,4.34,14.91,-0.6570312799973944,-0.058535252813453106,0.7440096383998139,-0.1064574058073398,-144.43024788391526,-81.94672428545177,157.86317724225648,1
1767487332.626647,2,right_wrist,1.0204,-0.2035,0.1122,-88.2,-38.36,-101.92,0.24477963761311894,-0.2659652069594327,-0.24034469902801933,-0.9008772742977519,22.175287998669624,-36.645840907018766,-157.02428893870996,1
1767487332.697637,1,left_wrist,0.9414,-0.0015,-0.1303,7.98,-2.87,10.64,-0.6549339113266955,-0.0606661423662151,0.7454033293387424,-0.10842078940607494,-145.2875079216441,-81.7035685545045,159.0574651768458,1
1767487332.697637,2,right_wrist,1.0204,-0.2035,0.1122,-88.2,-38.36,-101.92,0.13681072162292915,-0.30026080750747425,-0.1999871301549199,-0.9225678412433266,21.195688300289437,-37.498647203401084,-170.39788978671828,1
1767487332.774116,1,left_wrist,0.975,-0.1547,-0.0195,20.09,-7.77,0.91,-0.6536241865542438,-0.07061521617736251,0.7431876008297486,-0.12434268763562131,-141.09557719113513,-81.52946826763187,156.98686087941883,1
1767487332.774116,2,right_wrist,1.0204,-0.2035,0.1122,-88.2,-38.36,-101.92,0.08192193859136039,-0.3157503100483471,-0.17866645636767609,-0.928261189025386,20.806498110113445,-37.98614625022378,-177.1446461315619,1
1767487332.84104,1,left_wrist,0.9745,-0.1713,-0.0137,7.28,-2.45,2.94,-0.6542870950361466,-0.07009906837249613,0.741745139180056,-0.12964824096465025,-137.60676649019422,-81.41864368513997,153.8922399136511,1
1767487332.84104,2,right_wrist,1.0204,-0.2035,0.1122,-88.2,-38.36,-101.92,-0.02860936621379373,-0.3431153301248899,-0.13412840049971436,-0.9292270694386391,20.258518350876358,-39.049344056916496,169.2231927425759,1
1767487332.8910458,1,left_wrist,0.974,-0.1381,-0.0532,-0.56,1.89,5.74,-0.6565487150970912,-0.06631664902900111,0.7394583906641284,-0.1332185243963462,-132.96472966976344,-81.3593821688514,149.23342806923506,1
1767487332.8910458,2,right_wrist,1.0204,-0.2035,0.1122,-88.2,-38.36,-101.92,-0.083825646531659,-0.3548854689629641,-0.11107339348202606,-0.9244956820682687,20.10908193056577,-39.6100081331112,162.33107426571723,1
1767487332.941074,1,left_wrist,0.9716,-0.121,-0.1161,8.61,3.5,8.96,-0.6542899503927111,-0.06415302620211429,0.7403850599396276,-0.14006788733470932,-130.26501488556576,-80.68896227034348,146.92613979628732,1
1767487332.941074,2,right_wrist,1.0204,-0.2035,0.1122,-88.2,-38.36,-101.92,-0.1387249290017026,-0.36531850822717826,-0.08760611416420297,-0.9163094184723795,20.04735291779719,-40.17941824388673,155.3844871803182,1
1767487332.9925702,1,left_wrist,0.9677,-0.1386,-0.1283,42.42,-8.61,16.94,-0.6464768746571381,-0.06999880242939403,0.7428115818521077,-0.15936992206297645,-127.77261772732528,-79.33698056812284,146.52231839378507,1
1767487332.9925702,2,right_wrist,1.0204,-0.2035,0.1122,-88.2,-38.36,-101.92,-0.19309580842375235,-0.37437415303116534,-0.063812469633303,-0.9047021449243248,20.075469325725564,-40.74928946226944,148.38132890874977,1
1767487333.045839,1,left_wrist,0.9184,-0.1967,-0.1649,78.33,-12.95,36.19,-0.6342414755843041,-0.07935931405566439,0.7436611627686955,-0.19597939919994367,-121.87522120273285,-77.01453193279039,144.4757487723367,1
1767487333.045839,2,right_wrist,1.0204,-0.2035,0.1122,-88.2,-38.36,-101.92,-0.2467294779448067,-0.3820173911397609,-0.03977968238074834,-0.8897217848572332,20.19431689594122,-41.31121827133891,141.32026169115218,1
1767487333.127081,1,left_wrist,0.9887,-0.5095,-0.0761,183.89,9.59,112.98,-0.600279319964369,-0.10350979767283479,0.7078769977961299,-0.3575760279996146,-93.53675399429527,-67.4990354896255,132.3688019862577,1
1767487333.127081,2,right_wrist,1.0204,-0.2035,0.1122,-88.2,-38.36,-101.92,-0.2994207669302716,-0.3882186445811229,-0.01559597231504135,-0.8714300052086984,20.403399726014392,-41.856805149734136,134.20086744593368,1
1767487333.198546,1,left_wrist,1.0468,-0.8745,0.1166,192.5,42.21,153.51,-0.5763766405963434,-0.09625137322309506,0.6687912867973798,-0.45961272396600056,-80.21284760655905,-59.252426247740026,128.32643829826634,1
1767487333.198546,2,right_wrist,1.0204,-0.2035,0.1122,-88.2,-38.36,-101.92,-0.4011796672642688,-0.3962048512918015,0.03286825820341141,-0.8252249802261477,21.082703723835344,-42.86618647923414,119.79088817220969,1
1767487333.270984,1,left_wrist,0.8955,-1.0336,0.4753,132.58,84.63,204.33,-0.5076456067145673,-0.026441870221465533,0.5667838111741071,-0.6483462630983108,-63.301445388226654,-37.57053207442833,127.5626407828248,1
1767487333.270984,2,right_wrist,1.0204,-0.2035,0.1122,-88.2,-38.36,-101.92,-0.4498638777906731,-0.39795895568152706,0.05697022141102437,-0.7974995642157967,21.544106517060435,-43.314450114064435,112.50527993030374,1
1767487333.324406,1,left_wrist,0.8008,-1.0404,0.6403,90.79,112.91,213.15,-0.47129561239842205,0.039683320337904324,0.5122640004456114,-0.7168621022682217,-58.552317312836415,-25.211482350265282,127.6469808132015,1
1767487333.324406,2,right_wrist,1.0204,-0.2035,0.1122,-88.2,-38.36,-101.92,-0.4968406052674241,-0.3982095658987922,0.08086664435967124,-0.7668371016155919,22.078042424205535,-43.71561387579232,105.17144147884068,1
1767487333.398654,1,left_wrist,0.7115,-0.9492,0.7359,89.32,135.52,213.99,-0.43555309168218725,0.10746763264634278,0.447983030822451,-0.7733404272082314,-53.805170411314904,-12.945413621345205,127.81183518591398,1
1767487333.398654,2,right_wrist,1.0204,-0.2035,0.1122,-88.2,-38.36,-101.92,-0.5849876115888247,-0.39420344163863913,0.1276903348005249,-0.6972003437222218,23.3280498756404,-44.3526040149472,90.38351909649495,1
1767487333.483279,1,left_wrist,0.3758,-0.8818,0.8091,69.16,171.22,190.05,-0.36452311560835887,0.25689426384998243,0.3133608521079207,-0.8384111233484135,-46.70127378002447,11.672160060283556,127.94998490222079,1
1767487333.483279,2,right_wrist,1.0204,-0.2035,0.1122,-88.2,-38.36,-101.92,-0.6258379929603334,-0.3899632368700784,0.15044413578913413,-0.6584998424174858,24.02286843423361,-44.57873755697464,82.94463253625483,1
1767487333.552572,1,left_wrist,0.1698,-0.7642,0.7305,35.07,179.48,168.98,-0.3313007764614209,0.33439223474812424,0.2536740674695456,-0.8450272755063422,-45.11606206009212,23.394281280170084,127.3526448048736,1
1767487333.552572,2,right_wrist,1.0204,-0.2035,0.1122,-88.2,-38.36,-101.92,-0.7003637884530882,-0.37709458663702994,0.19421422118267817,-0.5740828100919684,25.49092535628755,-44.83021099298859,68.02188041432383,1
1767487333.622061,1,left_wrist,-0.1889,-0.4265,0.5095,-9.73,172.97,118.58,-0.2710127210099749,0.4811237676625333,0.1670995124829776,-0.8167923715173456,-47.96430780993133,44.05784561822625,122.88083875776425,1
1767487333.622061,2,right_wrist,1.0204,-0.2035,0.1122,-88.2,-38.36,-101.92,-0.7337774482201764,-0.3685181570994583,0.21506839824012045,-0.5286876284252682,26.237775717026842,-44.85270768622773,60.557561844389255,1
1767487333.6730812,1,left_wrist,-0.3148,-0.4002,0.4085,-11.27,157.99,98.28,-0.24623818029380143,0.5413069402097813,0.13292784582530737,-0.7928957957074592,-51.580114820248816,52.460754254052524,118.71122204496454,1
1767487333.6730812,2,right_wrist,1.0204,-0.2035,0.1122,-88.2,-38.36,-101.92,-0.7644674310150145,-0.35855781142415555,0.23513171853052023,-0.48139268557478915,26.97538142732502,-44.80654792924989,53.10443855827369,1
1767487333.7267368,1,left_wrist,-0.4778,-0.3572,0.2416,18.83,126.7,82.67,-0.23161601843102553,0.5858346757432931,0.09712843922571061,-0.770530868295675,-55.009187143846255,59.07206224365536,113.66574386378332,1
1767487333.7267368,2,right_wrist,1.0204,-0.2035,0.1122,-88.2,-38.36,-101.92,-0.7923284979113815,-0.34725348703543063,0.2543303513202983,-0.4323732641324179,27.690819266449285,-44.693383710200045,45.671960680945645,1
1767487333.78091,1,left_wrist,-0.6178,-0.3816,0.0503,12.04,101.15,54.25,-0.2207330468195758,0.6226251091813773,0.07067266218414607,-0.7474090381300126,-60.568013028411286,64.09395430850998,106.93056184739078,1
1767487333.78091,2,right_wrist,1.0204,-0.2035,0.1122,-88.2,-38.36,-101.92,-0.8172657942216691,-0.33465029206614505,0.27259396597026575,-0.3818092892163177,28.37193152875352,-44.516017229949476,38.26886279116298,1
1767487333.843882,1,left_wrist,-0.7017,-0.1474,-0.3343,-91.35,63.63,14.07,-0.1917018695843681,0.6548287233047445,0.0897951501627626,-0.7255250287482736,-71.67979065552286,66.31409697025782,99.87563260754702,1
1767487333.843882,2,right_wrist,1.0204,-0.2035,0.1122,-88.2,-38.36,-101.92,-0.8580417122847908,-0.30575186769220614,0.3060540472183195,-0.27678716654389623,29.58814002031787,-43.98505094479971,23.58063451935357,1
1767487333.922101,1,left_wrist,-0.9853,-0.5226,0.3719,27.79,-20.58,-0.35,-0.21000500159830277,0.6380892895624624,0.07593334748024008,-0.7368677524426036,-65.37305053153845,65.29642130837058,103.48837379342528,1
1767487333.922101,2,right_wrist,1.0204,-0.2035,0.1122,-88.2,-38.36,-101.92,-0.8737427345430294,-0.28957006480201275,0.3211298106595001,-0.22270710835000493,30.105165538149052,-43.64184935560666,16.307322733444337,1
1767487333.9811468,1,left_wrist,-0.9775,-0.3582,0.1103,-9.66,9.66,5.11,-0.20411134025576097,0.644893625037779,0.07541520011523298,-0.732641331591529,-67.23475682999576,66.08745871510105,102.09051719248568,1
1767487333.9811468,2,right_wrist,1.0204,-0.2035,0.1122,-88.2,-38.36,-101.92,-0.8862448432807059,-0.2723155935935851,0.3350295406658166,-0.16783772557259724,30.551992386942494,-43.25496185966033,9.086833744306572,1
1767487334.045289,1,left_wrist,-0.9062,-0.4285,0.1693,10.92,-3.85,-1.47,-0.21069586081303607,0.6415048287718601,0.07623219871953177,-0.7336671321362475,-66.60819729124209,65.39205807504116,102.22259975449266,1
1767487334.045289,2,right_wrist,1.0204,-0.2035,0.1122,-88.2,-38.36,-101.92,-0.9014926674484905,-0.23485747212053854,0.359108791787933,-0.056513838892492445,31.216217200078543,-42.377572523060785,-5.1870027751404715,1
1767487334.12131,1,left_wrist,-0.9174,-0.3919,0.1688,-12.6,-3.5,-6.02,-0.210207674225954,0.6406502119834576,0.08460136438715414,-0.7336365917304684,-67.27190834920393,64.74812209797761,102.28373312346133,1
1767487334.12131,2,right_wrist,1.0204,-0.2035,0.1122,-88.2,-38.36,-101.92,-0.9041851507572316,-0.214796153682996,0.3692040342347602,-0.0004545524075710138,31.428085001348563,-41.90156479059578,-12.239191887847806,1
1767487334.174674,1,left_wrist,-0.8838,-0.3538,0.0893,-9.73,-13.51,-12.39,-0.2094508745769841,0.6395175925360789,0.0916642903145979,-0.7339926688032488,-67.67925888917391,64.21123761558684,102.51782437091012,1
1767487334.174674,2,right_wrist,1.0204,-0.2035,0.1122,-88.2,-38.36,-101.92,-0.9035724393824468,-0.19394623848836637,0.37795481046393486,0.05560453769108424,31.558515658141182,-41.41059160022072,-19.23600059023498,1
1767487334.2271612,1,left_wrist,-0.8916,-0.4138,0.1937,4.06,-22.54,-15.61,-0.2162808025549291,0.6284874873815951,0.09765528887419454,-0.7407358079679035,-65.37383852650017,62.72839763767424,104.72301117577335,1
1767487334.2271612,2,right_wrist,1.0204,-0.2035,0.1122,-88.2,-38.36,-101.92,-0.8996549361455238,-0.17238550747380263,0.38533100364297096,0.11146412119374437,31.60818441935707,-40.91208914693283,-26.179445512882495,1
1767487334.293813,1,left_wrist,-0.8686,-0.4172,0.0996,-6.51,-24.29,-19.67,-0.21938065768381845,0.6231003947707051,0.10812545264802484,-0.742917836345626,-65.24888547467789,61.44797999938795,105.43877169931798,1
1767487334.293813,2,right_wrist,1.0204,-0.2035,0.1122,-88.2,-38.36,-101.92,-0.8819621914078873,-0.12745332110273996,0.3958635077216805,0.22178915014302686,31.473517832024754,-39.92152271905095,-39.91795180823948,1
1767487334.379333,1,left_wrist,-0.692,-0.3133,-0.0073,-15.61,-100.45,-56.28,-0.22601919449057709,0.5779577338609825,0.15882292170594808,-0.7678902663355583,-60.87378758842473,54.66873835336238,113.40956628249658,1
1767487334.379333,2,right_wrist,1.0204,-0.2035,0.1122,-88.2,-38.36,-101.92,-0.8682430361578057,-0.10424730312866638,0.3989839669155139,0.2758592468963751,31.29570645228057,-39.443346638257296,-46.72022716044644,1
1767487334.4478312,1,left_wrist,-0.5241,-0.3845,0.063,-42.63,-125.51,-84.98,-0.2347317958438797,0.5355695919104967,0.2081957074688222,-0.7840412894945572,-59.556613964123386,47.908649557696364,118.13937202260325,1
1767487334.4478312,2,right_wrist,1.0204,-0.2035,0.1122,-88.2,-38.36,-101.92,-0.8312832981971331,-0.056780298510707324,0.40088045327817995,0.38083977998498586,30.74125876839288,-38.55327518929648,-60.211498316383974,1
1767487334.521116,1,left_wrist,-0.2103,-0.5412,0.203,1.26,-178.01,-163.73,-0.2991527572480895,0.3812306201249049,0.31264254193611835,-0.8169611270322281,-55.185950151634,25.839102569643483,126.10411895027971,1
1767487334.521116,2,right_wrist,1.0204,-0.2035,0.1122,-88.2,-38.36,-101.92,-0.8081660375510988,-0.032692812235029595,0.3996501080882465,0.43136831928431396,30.375330082105645,-38.152887528115755,-66.90933863043281,1
1767487334.574995,1,left_wrist,0.0015,-0.8711,0.791,-19.74,-199.08,-165.83,-0.32770613042365054,0.2844348326297391,0.37194534620405295,-0.8205864838679691,-54.82919999659654,12.887016114108567,129.7559920131369,1
1767487334.574995,2,right_wrist,1.0204,-0.2035,0.1122,-88.2,-38.36,-101.92,-0.782058051006863,-0.008486427495034919,0.39697135378287574,0.480340431027318,29.958206171492698,-37.78908660443131,-73.58132009420386,1
1767487334.643563,1,left_wrist,0.1352,-0.9618,0.5578,-92.05,-135.1,-175.84,-0.35725217383112146,0.21615934730692818,0.4463791460944338,-0.7914491005723522,-59.457417776442156,1.3304359651920956,130.65234925793843,1
1767487334.643563,2,right_wrist,1.0204,-0.2035,0.1122,-88.2,-38.36,-101.92,-0.7212389760164224,0.039928705471374684,0.3873102721949212,0.5728968415050472,28.996400227149916,-37.18830997495612,-86.86558098224819,1
1767487334.721659,1,left_wrist,0.5456,-0.9745,0.4153,-127.61,-97.58,-244.23,-0.43616259949166364,0.06965021329041622,0.6029909954655363,-0.6643138520163161,-73.02495039113583,-25.687661960320405,132.5863105620162,1
1767487334.721659,2,right_wrist,1.0204,-0.2035,0.1122,-88.2,-38.36,-101.92,-0.6867396227665032,0.06395992526432381,0.3803611543592887,0.6161357080523513,28.465404179246093,-36.958337568296095,-93.48659556526664,1
1767487334.781152,1,left_wrist,0.9101,-0.8467,0.3128,-189.91,-124.67,-247.24,-0.46653740025890067,0.0006428435457251374,0.6821641416305702,-0.5630226680918535,-84.84865496678027,-39.47832724879652,137.0194276043558,1
1767487334.781152,2,right_wrist,1.0204,-0.2035,0.1122,-88.2,-38.36,-101.92,-0.649672594505935,0.08775554144561526,0.37203002579635813,0.657128712505758,27.910461869879597,-36.778908521924805,-100.09917676932594,1
1767487334.841253,1,left_wrist,1.0282,-1.2273,0.1337,-227.01,-51.87,-238.0,-0.5066352540161277,-0.03758202924038611,0.7386198920816093,-0.4431128134996105,-98.66415141644336,-51.41905466320617,140.87943884509,1
1767487334.841253,2,right_wrist,1.0204,-0.2035,0.1122,-88.2,-38.36,-101.92,-0.5683735046473599,0.13428944635321158,0.3513422703229333,0.7317626069275147,26.757788109943043,-36.57847763955258,-113.31525803254407,1
1767487334.92463,1,left_wrist,1.1268,-0.7266,-0.1274,-105.7,23.1,-158.55,-0.580293958914839,-0.09960432424346688,0.7537894041423431,-0.2917866241651199,-115.72407980047853,-68.9018716396397,148.42515468543021,1
1767487334.92463,2,right_wrist,1.0204,-0.2035,0.1122,-88.2,-38.36,-101.92,-0.524434752747282,0.15685506214136585,0.339057990977512,0.765117218696468,26.174690921725738,-36.55916883043515,-119.92657991534959,1
1767487334.9766989,1,left_wrist,1.0814,-0.4465,-0.1142,-43.82,33.95,-105.35,-0.6071143471312638,-0.11672692141942179,0.743618389189053,-0.25459514249726295,-119.34398111438651,-74.22969914025093,150.0862742955984,1
1767487334.9766989,2,right_wrist,1.0204,-0.2035,0.1122,-88.2,-38.36,-101.92,-0.47851406093502297,0.17884037344073384,0.3255362432960416,0.7956548049347484,25.596814168539854,-36.59378188439186,-126.54513007589198,1
1767487335.04866,1,left_wrist,1.0233,-0.4216,-0.1659,-62.16,24.15,-93.66,-0.6260259186793844,-0.12466280360380338,0.7394545034883544,-0.21391066315184828,-127.87788402681112,-78.28474271797043,155.72937548372224,1
1767487335.04866,2,right_wrist,1.0204,-0.2035,0.1122,-88.2,-38.36,-101.92,-0.38141020896015865,0.2207431420961729,0.2949762893673962,0.8478134856379198,24.485369334394925,-36.820636415618914,-139.8185024227471,1
1767487335.1256561,1,left_wrist,1.058,-0.3109,-0.1127,-19.32,14.98,-60.76,-0.6530599886981986,-0.1471332525995245,0.722751117456429,-0.17174189749876523,-147.5021763301582,-84.00859311500369,173.6005368487164,1
1767487335.1256561,2,right_wrist,1.0204,-0.2035,0.1122,-88.2,-38.36,-101.92,-0.3305877442113479,0.24050300047463674,0.27804704899664684,0.8692294798752546,23.965716968218914,-37.00914524824095,-146.48042497923296,1
1767487335.1916502,1,left_wrist,1.0019,-0.285,-0.122,-11.13,12.18,-43.26,-0.6593543873434684,-0.15349075540071613,0.7183801069484305,-0.1600699904360548,-160.81820849378877,-85.18620137181244,-173.53852046897623,1
1767487335.1916502,2,right_wrist,1.0204,-0.2035,0.1122,-88.2,-38.36,-101.92,-0.2253531978086464,0.27726672049878465,0.2411935909626149,0.9023107854945682,23.031527464087684,-37.5222159157124,-159.87192685823243,1
1767487335.269387,1,left_wrist,1.0336,-0.225,-0.124,5.04,0.49,-11.62,-0.6599221571180383,-0.15893659166582752,0.7173654583327793,-0.15693535473349202,-169.07825658895203,-85.34135030159726,-165.08767554555348,1
1767487335.269387,2,right_wrist,1.0204,-0.2035,0.1122,-88.2,-38.36,-101.92,-0.17133833856106248,0.29413115587187094,0.22140237783235867,0.9138440917217714,22.629201496819345,-37.839342150758824,-166.60811507569204,1
1767487335.327637,1,left_wrist,1.0009,-0.2123,-0.0942,17.92,-3.43,2.1,-0.6563290512498605,-0.1604161132095845,0.7181972439846127,-0.1664078298671501,-161.09338372532213,-84.96183750203302,-172.15667047237565,1
1767487335.327637,2,right_wrist,1.0204,-0.2035,0.1122,-88.2,-38.36,-101.92,-0.11666384872773859,0.3098971435447895,0.20079606394866248,0.9219730188706913,22.277499349229142,-38.19099617928644,-173.37546881757834,1
1767487335.4017558,1,left_wrist,0.9926,-0.1845,-0.0625,-6.44,-4.2,8.54,-0.6543946911766908,-0.1528897497390122,0.7207319686909074,-0.17011096934482098,-152.22873406673497,-84.44444409770458,178.66567106018192,1
1767487335.4017558,2,right_wrist,1.0204,-0.2035,0.1122,-88.2,-38.36,-101.92,-0.006170841301843279,0.33789764318850973,0.15744077163409956,0.9279005910508611,21.745191807542064,-38.9774094686203,172.98474931296394,1
1767487335.4765508,1,left_wrist,1.0024,-0.083,-0.0493,-44.73,-4.69,20.3,-0.6557409147513426,-0.11273740866459717,0.7298286722635895,-0.15698483541613253,-138.1373563382055,-83.00330011634193,160.16881721065124,1
1767487335.4765508,2,right_wrist,1.0204,-0.2035,0.1122,-88.2,-38.36,-101.92,0.0492258324854052,0.3500251255054638,0.13485002276937177,0.925675267191526,21.57263233939136,-39.40092541005794,166.10716074994966,1
1767487335.546326,1,left_wrist,0.978,-0.0288,-0.0449,-0.49,-8.75,21.07,-0.653984588186515,-0.1082791371493524,0.7312805049199146,-0.1606505835556811,-134.89409369370765,-82.42909506291679,156.8671077229905,1
1767487335.546326,2,right_wrist,1.0204,-0.2035,0.1122,-88.2,-38.36,-101.92,0.15926201692613703,0.3703024391656731,0.08825546245360848,0.9108911498415556,21.42924603852689,-40.27815433787579,152.22632938178242,1
1767487335.597648,1,left_wrist,0.9848,-0.0878,-0.0239,3.43,-5.32,17.5,-0.6534138102099479,-0.1038518726211423,0.731024547122555,-0.16693799053619723,-129.82688834604016,-81.88905151904808,151.96103456848687,1
1767487335.597648,2,right_wrist,1.0204,-0.2035,0.1122,-88.2,-38.36,-101.92,0.21348155563906207,0.37837443346417987,0.06442262478127479,0.8983919739840054,21.461652008306494,-40.71909443636709,145.220391010765,1
1767487335.673318,1,left_wrist,0.9721,-0.0483,-0.0576,-6.72,-1.96,5.32,-0.6552830460300818,-0.10034989733870103,0.7306825553784895,-0.16320855049662855,-129.41594889451022,-82.03946841979467,150.94983604400022,1
1767487335.673318,2,right_wrist,1.0204,-0.2035,0.1122,-88.2,-38.36,-101.92,0.26689274052666745,0.3850254964251809,0.04034916086395225,0.8825506089592159,21.563984526570778,-41.152935120176444,138.16996533710244,1
1767487335.732694,1,left_wrist,0.9936,-0.0996,-0.0703,-8.96,-0.35,0.07,-0.6582313292341041,-0.09844914504042915,0.7290207610522499,-0.1599000094131059,-128.4900245375752,-82.39874696013334,149.58880972023965,1
1767487335.732694,2,right_wrist,1.0204,-0.2035,0.1122,-88.2,-38.36,-101.92,0.31929303178330004,0.39023002771467025,0.016123713658324542,0.8634306637954784,21.735308240365306,-41.57323110182495,131.0753238260147,1
1767487335.791171,1,left_wrist,1.0019,-0.1274,-0.0752,-6.58,-1.33,-1.33,-0.658553694113526,-0.09394382251061721,0.7291224265294389,-0.1608169061801184,-126.1372691561076,-82.11609954441742,146.94322079521922,1
1767487335.791171,2,right_wrist,1.0204,-0.2035,0.1122,-88.2,-38.36,-101.92,0.42027502720845683,0.3962249870760555,-0.032425535622812134,0.8156734921284889,22.2754866625786,-42.34829570419559,116.75850622735324,1
1767487335.8736,1,left_wrist,0.9814,-0.1562,-0.0752,-2.03,0.98,-0.91,-0.6578707064208188,-0.0861114781630562,0.7296895504042035,-0.16536053638295245,-121.91179932589628,-81.32570192667836,142.4565990171951,1
1767487335.8736,2,right_wrist,1.0204,-0.2035,0.1122,-88.2,-38.36,-101.92,0.46847848072552223,0.3969923825595447,-0.05657003496605906,0.7872260110227187,22.63669563545137,-42.69138399980662,109.54105092147098,1
1767487335.9252899,1,left_wrist,0.9867,-0.184,-0.0805,-8.05,-0.77,1.26,-0.656906172833532,-0.08008796440956001,0.7309424488902211,-0.16668333588064935,-120.44707999706507,-80.75838195606552,140.6116900962572,1
1767487335.9252899,2,right_wrist,1.0204,-0.2035,0.1122,-88.2,-38.36,-101.92,0.514916114462211,0.3962673156193026,-0.08050859346310689,0.7558782812183477,23.051624998754153,-42.99778288496588,102.28885812507147,1
1767487336.0010948,1,left_wrist,0.9721,-0.1962,-0.1288,-10.99,-2.03,6.3,-0.6536293433088624,-0.07302816544502579,0.7345813156198923,-0.16681084904617985,-120.99818604170774,-79.94860306290975,140.60246607254396,1
1767487336.0010948,2,right_wrist,1.0204,-0.2035,0.1122,-88.2,-38.36,-101.92,0.6018183234552184,0.3903574949191818,-0.12741447321936702,0.6849826886339555,24.015116500451857,-43.482815190740126,87.69923511403405,1
1767487336.081163,1,left_wrist,1.015,-0.2747,-0.2035,24.22,-10.5,33.95,-0.6395434175467019,-0.06164982029799165,0.7421632785945073,-0.19072803841009275,-118.13408705009695,-76.6079383755125,138.83676838613965,1
1767487336.081163,2,right_wrist,1.0204,-0.2035,0.1122,-88.2,-38.36,-101.92,0.641966643806805,0.385196144160351,-0.15020805638428852,0.6457091439345423,24.547618775145466,-43.65437341377737,80.37313792672101,1
1767487336.149937,1,left_wrist,1.0316,-0.3767,-0.1454,68.67,-16.73,59.99,-0.6250579547089482,-0.05949547044398554,0.7428167660391557,-0.23234907863567159,-112.22133825804842,-72.99015268701442,136.30899452259447,1
1767487336.149937,2,right_wrist,1.0204,-0.2035,0.1122,-88.2,-38.36,-101.92,0.7149366046902478,0.37056225821903577,-0.1940548242953747,0.5602606440089115,25.668879766143885,-43.84395642550809,65.69081458167159,1
1767487336.2234318,1,left_wrist,1.0458,-0.6617,-0.0737,126.42,2.31,153.93,-0.5796832359712352,-0.030119201343249028,0.7198185313268868,-0.38068551535718526,-94.24551800852694,-59.03317363523875,129.33159095167645,1
1767487336.2234318,2,right_wrist,1.0204,-0.2035,0.1122,-88.2,-38.36,-101.92,0.7474991326248751,0.361147300481336,-0.21494589197768754,0.5144083374149563,26.23837743882992,-43.85995873224693,58.348467270203514,1
1767487336.275063,1,left_wrist,1.018,-0.8281,0.0376,179.76,10.85,203.49,-0.5423151260784954,-0.006905369133316144,0.6835106118348804,-0.48852826265499283,-84.33260081784508,-48.426339291538696,128.34609193142677,1
1767487336.275063,2,right_wrist,1.0204,-0.2035,0.1122,-88.2,-38.36,-101.92,0.777290875432491,0.35038112052679204,-0.23504512147807843,0.4666966426032405,26.800852262832027,-43.82358690565607,51.01461198862389,1
1767487336.331021,1,left_wrist,0.9545,-1.0399,0.2855,190.54,40.95,244.72,-0.497262392715134,0.03123849530244083,0.6254871604953335,-0.6004332446308616,-74.59129875982596,-35.77115098696568,128.35812659076208,1
1767487336.331021,2,right_wrist,1.0204,-0.2035,0.1122,-88.2,-38.36,-101.92,0.8042079537941178,0.3383058366681601,-0.25427862308638477,0.4173021804062695,27.346894524827846,-43.73606189855991,43.69592186951258,1
1767487336.3943522,1,left_wrist,0.8018,-1.1278,0.5192,192.29,75.6,261.38,-0.44809084911739105,0.08024792974605992,0.546188569373941,-0.7031734546994607,-65.06972555050068,-22.12495484820261,129.20479674790636,1
1767487336.3943522,2,right_wrist,1.0204,-0.2035,0.1122,-88.2,-38.36,-101.92,0.8490554938190054,0.3104209698876664,-0.28987031410379976,0.31419546602573684,28.354765214686918,-43.41657628937203,29.128245707201824,1
1767487336.475615,1,left_wrist,0.4948,-0.9438,0.7266,98.28,160.72,229.67,-0.36392216200099275,0.21926103397298385,0.3731826506057424,-0.8247544896952629,-51.10687035808836,5.166723475604391,129.9095378977637,1
1767487336.475615,2,right_wrist,1.0204,-0.2035,0.1122,-88.2,-38.36,-101.92,0.8668313917178144,0.29471938778932133,-0.3060989530149376,0.26085868158220016,28.801056440876206,-43.19099948146933,21.889658478440744,1
1767487336.546772,1,left_wrist,0.3006,-0.8579,0.7452,48.51,182.84,193.62,-0.32857406300789177,0.3028818747402594,0.3076688771193277,-0.8400247122105658,-48.77965252661449,17.858813439582942,129.12455875073871,1
1767487336.546772,2,right_wrist,1.0204,-0.2035,0.1122,-88.2,-38.36,-101.92,0.8927821296276195,0.2600994534671118,-0.3351288589188543,0.1515816322759082,29.546710354074772,-42.62886426438485,7.522751231144953,1
1767487336.621056,1,left_wrist,-0.0508,-0.6393,0.6037,7.35,171.78,133.7,-0.27055174113728875,0.453158634928216,0.2053302780688873,-0.8241895921847902,-49.13453792413243,39.48471380902422,125.01948833136552,1
1767487336.621056,2,right_wrist,1.0204,-0.2035,0.1122,-88.2,-38.36,-101.92,0.9008675902299969,0.24131308339028062,-0.34782608745454335,0.09603433523452992,29.836648104670108,-42.30206588227633,0.3996189451463242,1
1767487336.676364,1,left_wrist,-0.2118,-0.5163,0.3884,-48.51,161.14,108.99,-0.23764883120497032,0.5221237111481299,0.18449520411528758,-0.7980422187718355,-54.52523262898299,48.216110838593586,120.86347668890974,1
1767487336.676364,2,right_wrist,1.0204,-0.2035,0.1122,-88.2,-38.36,-101.92,0.9056518853257199,0.2216360525123528,-0.35924978422026166,0.040146175040794846,30.066911763265747,-41.95187459396879,-6.68135959521252,1
1767487336.729363,1,left_wrist,-0.3943,-0.3484,0.1523,-21.91,126.91,91.42,-0.21146512193485034,0.5762248142523229,0.16074557367554645,-0.7729219405532969,-59.99254871868022,55.36299386507871,115.70154729339478,1
1767487336.729363,2,right_wrist,1.0204,-0.2035,0.1122,-88.2,-38.36,-101.92,0.907117972381339,0.20114233790531855,-0.369359561703756,-0.015882640295631856,30.235571813523485,-41.58389953382252,-13.71981069036955,1
1767487336.785911,1,left_wrist,-0.5656,-0.3728,0.2445,22.89,87.85,68.95,-0.20167198107575132,0.6050810015562045,0.12838500986632254,-0.7594225983247711,-61.86383909036046,60.13959797346425,111.98739965440359,1
1767487336.785911,2,right_wrist,1.0204,-0.2035,0.1122,-88.2,-38.36,-101.92,0.9052599943607151,0.1799085872336333,-0.3781198541457808,-0.07185136568228531,30.34175116712197,-41.203863814122265,-20.716145162905118,1
1767487336.84161,1,left_wrist,-0.7813,-0.3767,0.2269,29.19,81.83,48.23,-0.19651632741343922,0.6300365161751021,0.0959025738981343,-0.7451429511614446,-64.32910670694272,64.32176552944334,107.30181813990426,1
1767487336.84161,2,right_wrist,1.0204,-0.2035,0.1122,-88.2,-38.36,-101.92,0.8916047115482605,0.1355392492811061,-0.39147420383259995,-0.18280617599766466,30.36801392862445,-40.43053538041923,-34.587507038633845,1
1767487336.933557,1,left_wrist,-0.6612,0.0883,-0.429,1.26,-13.86,-12.11,-0.1721800582943981,0.6721584343218916,0.1154907307651665,-0.7107875616546825,-80.00459687290262,66.31293422650086,95.30072699088642,1
1767487336.933557,2,right_wrist,1.0204,-0.2035,0.1122,-88.2,-38.36,-101.92,0.8798521331858186,0.11256782732076606,-0.39602175434268544,-0.23739308765839945,30.29095750313158,-40.048477417448396,-41.466469434403955,1
1767487336.994613,1,left_wrist,-0.9345,-0.6798,0.1649,49.0,-45.92,-1.61,-0.18779916414730752,0.6521996238237735,0.10710296417861843,-0.7265645736573279,-72.49731159750932,65.1624775711874,100.80352525127151,1
1767487336.994613,2,right_wrist,1.0204,-0.2035,0.1122,-88.2,-38.36,-101.92,0.8466940503433462,0.06547421683643455,-0.40077885265358426,-0.34380026659168184,29.96928074639622,-39.320227997200625,-55.124029793089996,1
1767487337.048804,1,left_wrist,-0.9609,-0.3767,0.1181,-31.15,12.32,5.46,-0.17458229773617398,0.6604058798414676,0.11113994396138663,-0.7218261619283654,-75.24009152831309,66.14761808729318,99.50401849450975,1
1767487337.048804,2,right_wrist,1.0204,-0.2035,0.1122,-88.2,-38.36,-101.92,0.8254013457890842,0.041524965596339024,-0.40097200853793824,-0.3952337839441907,29.731690961341677,-38.983866288512786,-61.90877536606961,1
1767487337.1255932,1,left_wrist,-0.8696,-0.5344,0.1044,18.06,-33.81,-19.95,-0.19026280148060568,0.6423543724391789,0.11926376637016188,-0.7327735534339539,-70.76020689637882,63.63944766220554,103.32858142174571,1
1767487337.1255932,2,right_wrist,1.0204,-0.2035,0.1122,-88.2,-38.36,-101.92,0.8010601890688385,0.017424237755553768,-0.399705740911383,-0.44523509532618516,29.448489884641216,-38.67198216781512,-68.66858998172802,1
1767487337.198739,1,left_wrist,-0.8184,-0.4514,0.0283,-7.77,-37.94,-22.82,-0.19403023622170093,0.6318563864320601,0.1331371968961719,-0.7385013616503359,-69.40155506773873,61.83455906989692,105.50981674667511,1
1767487337.198739,2,right_wrist,1.0204,-0.2035,0.1122,-88.2,-38.36,-101.92,0.7435812833135845,-0.030877897053415194,-0.3928178723789994,-0.5402106530964726,28.764428884560843,-38.13709078473861,-82.12734738145605,1
1767487337.283372,1,left_wrist,-0.7178,-0.3924,0.0083,-26.53,-75.67,-47.32,-0.20277881876307058,0.5888678056281827,0.17830518824061356,-0.7617891558706922,-64.55519544586058,55.57563646720428,113.36865591756813,1
1767487337.283372,2,right_wrist,1.0204,-0.2035,0.1122,-88.2,-38.36,-101.92,0.7106452007629002,-0.054902008296370916,-0.38722040600630137,-0.5848329037340474,28.37396433437744,-37.92065681414913,-88.8333466683809,1
1767487337.352654,1,left_wrist,-0.6651,-0.4241,0.1796,-10.22,-108.08,-72.59,-0.2161690333918983,0.5494865552488086,0.21175611009939463,-0.7787777760303536,-61.6263108566356,49.845255298570535,117.99298035859599,1
1767487337.352654,2,right_wrist,1.0204,-0.2035,0.1122,-88.2,-38.36,-101.92,0.63696343139019,-0.1022547812421111,-0.3718165609590522,-0.6675132895915602,27.523940772982606,-37.60251608098839,-102.21615315925686,1
1767487337.425644,1,left_wrist,-0.4685,-0.5592,0.3533,-38.15,-129.71,-138.74,-0.25489219193294455,0.44436267987116457,0.3213617268653019,-0.7964285402567434,-61.643320334160585,32.95505969551803,124.48951959837078,1
1767487337.425644,2,right_wrist,1.0204,-0.2035,0.1122,-88.2,-38.36,-101.92,0.5964817764664673,-0.1254087379435137,-0.36206442694735236,-0.7052598737558431,27.075969905012876,-37.50431435430477,-108.89985959838127,1
1767487337.477091,1,left_wrist,-0.3138,-0.6827,0.4041,-84.91,-122.29,-186.97,-0.2870876908677787,0.3793747802135237,0.40027273901113025,-0.7832222981342365,-65.12484987019933,21.373297027651443,125.99620473697162,1
1767487337.477091,2,right_wrist,1.0204,-0.2035,0.1122,-88.2,-38.36,-101.92,0.5537651005725259,-0.148099704881448,-0.35098984719412246,-0.7404166516013634,26.620561653013525,-37.448121064752875,-115.5829302423335,1
1767487337.543097,1,left_wrist,-0.0669,-0.8267,0.3792,-87.36,-103.6,-215.81,-0.3287660598824476,0.3117183057480186,0.478029811357554,-0.752483936828167,-69.33566069107268,8.9055497412579,126.63264758971201,1
1767487337.543097,2,right_wrist,1.0204,-0.2035,0.1122,-88.2,-38.36,-101.92,0.4622575233282002,-0.19175753391150624,-0.32503527831600365,-0.8024332359546769,25.71113251999367,-37.462730431504866,-128.96021359425663,1
1767487337.6242611,1,left_wrist,0.3143,-0.8159,0.143,-102.83,-58.87,-206.57,-0.39869116921139064,0.19437411502464275,0.630903048911587,-0.636573167731177,-82.37027982309765,-14.80939311028265,128.8562297204319,1
1767487337.6242611,2,right_wrist,1.0204,-0.2035,0.1122,-88.2,-38.36,-101.92,0.413802872106601,-0.21256167233923498,-0.31024789784195567,-0.8290542565920057,25.268827260207896,-37.53263831853243,-135.66075383561218,1
1767487337.702637,1,left_wrist,0.591,-1.0224,0.1908,-87.5,-40.81,-212.45,-0.4395528466462626,0.1353507682055067,0.6771669256168632,-0.5743852534683948,-87.04804580475205,-26.092035200199927,129.97224161301722,1
1767487337.702637,2,right_wrist,1.0204,-0.2035,0.1122,-88.2,-38.36,-101.92,0.3123886323726499,-0.25173143761313843,-0.277317949171481,-0.8730059454258554,24.437399607519648,-37.79137007842107,-149.10081314169003,1
1767487337.7536871,1,left_wrist,0.6876,-0.9218,0.0493,-114.94,-30.31,-199.01,-0.4737738717797512,0.0869709894329485,0.7203169304793519,-0.4991171055781222,-93.772122367519,-36.56378120706345,131.85683751818263,1
1767487337.7536871,2,right_wrist,1.0204,-0.2035,0.1122,-88.2,-38.36,-101.92,0.2598073909418862,-0.2699499283779639,-0.2592940737789048,-0.8901650066610358,24.05903927394617,-37.9761201512212,-155.8461197545752,1
1767487337.825561,1,left_wrist,1.0516,-0.8179,-0.143,-66.01,13.09,-200.76,-0.5561934352550434,-0.014281327809558169,0.7495726427999735,-0.35858856565854574,-103.38359043198206,-57.57104241768555,135.25765730383497,1
1767487337.825561,2,right_wrist,1.0204,-0.2035,0.1122,-88.2,-38.36,-101.92,0.20623814229057824,-0.2871647990984829,-0.24031665366246527,-0.9040188674998624,23.71230892393849,-38.19426362625764,-162.61194878986242,1
1767487337.893141,1,left_wrist,1.1673,-0.6281,-0.1523,-21.21,35.14,-164.08,-0.5941602014112105,-0.06035105095449254,0.7404514577615662,-0.3083229547186679,-105.09620242691716,-66.50700277816249,135.9808365023138,1
1767487337.893141,2,right_wrist,1.0204,-0.2035,0.1122,-88.2,-38.36,-101.92,0.09694607714348046,-0.3183274481173082,-0.19978018868602407,-0.9216056478289343,23.131849097294733,-38.717467923097566,-176.21534173038563,1
1767487337.9483972,1,left_wrist,1.1624,-0.7169,-0.0356,-24.29,26.18,-118.02,-0.6183504364245208,-0.08587486619857408,0.7317887483776134,-0.27341081338693923,-106.2676140135926,-72.16865601233069,136.0708969788086,1
1767487337.9483972,2,right_wrist,1.0204,-0.2035,0.1122,-88.2,-38.36,-101.92,0.04163640549619435,-0.3321571527545199,-0.17836887349099934,-0.9252689233843958,22.9061110426595,-39.014914011410134,176.9424641549932,1
1767487338.029682,1,left_wrist,0.9697,-0.4543,-0.1025,-28.21,16.94,-51.1,-0.6419215603473303,-0.09698511538647712,0.7254324384190155,-0.2286446479674564,-108.9914740155884,-77.34102298498584,135.78196460284553,1
1767487338.029682,2,right_wrist,1.0204,-0.2035,0.1122,-88.2,-38.36,-101.92,-0.013836786734855982,-0.34474758537671407,-0.15629892970372553,-0.9254881362196108,22.727867367805086,-39.33061354790451,170.07056265390634,1
1767487338.092588,1,left_wrist,0.9243,-0.3992,-0.0996,-11.34,15.96,-45.64,-0.6502007999922592,-0.10337279261155605,0.7209937346662296,-0.21615045687936243,-109.00007233923601,-79.19459167165033,135.2346575698403,1
1767487338.092588,2,right_wrist,1.0204,-0.2035,0.1122,-88.2,-38.36,-101.92,-0.12443231003611419,-0.36602382504529535,-0.11050878891626006,-0.9156041542558382,22.523878862845848,-39.99824475534877,156.2312550355195,1
1767487338.1597,1,left_wrist,0.954,-0.4089,-0.1015,-9.17,8.75,-37.73,-0.6551634189459276,-0.10854730761104607,0.7186647718251028,-0.2061536374237644,-110.1454093818661,-80.55395300462001,135.9495531516019,1
1767487338.1597,2,right_wrist,1.0204,-0.2035,0.1122,-88.2,-38.36,-101.92,-0.17913527099142307,-0.3746284925246104,-0.08695674071757888,-0.9055399342488121,22.501484642593542,-40.34045234149592,149.26156570593645,1
1767487338.2263758,1,left_wrist,0.9677,-0.2879,-0.0747,2.45,5.95,-11.83,-0.6586930671850607,-0.1110344215767931,0.7160250921132724,-0.2027384224354717,-109.15579368101966,-81.22814604500985,134.8702691507201,1
1767487338.2263758,2,right_wrist,1.0204,-0.2035,0.1122,-88.2,-38.36,-101.92,-0.23316489901331816,-0.38183195404701076,-0.06308172957961168,-0.8921094014357182,22.533176592832355,-40.68159691946744,142.2577117180404,1
1767487338.3008761,1,left_wrist,0.9872,-0.1913,-0.0786,-4.69,4.62,-11.34,-0.658937476349595,-0.11044311288414617,0.7165453983414722,-0.20041560117452792,-109.89588475613418,-81.33506705815822,135.36566530634084,1
1767487338.3008761,2,right_wrist,1.0204,-0.2035,0.1122,-88.2,-38.36,-101.92,-0.3383915499781927,-0.39193044982540043,-0.014715676701628896,-0.8553742632685583,22.75711784502075,-41.34069672756727,128.1480982825693,1
1767487338.352148,1,left_wrist,0.998,-0.1469,-0.0566,10.92,5.88,-5.6,-0.6580761512765309,-0.11345253477599412,0.7159822162188368,-0.20355286176404688,-109.73696637288727,-81.31324178755642,135.71946990638224,1
1767487338.352148,2,right_wrist,1.0204,-0.2035,0.1122,-88.2,-38.36,-101.92,-0.3891928095683474,-0.394786787326456,0.009596853860465769,-0.8322140649669004,22.94641879550745,-41.64890737380801,121.04404278204001,1
1767487338.422143,1,left_wrist,0.9911,-0.0869,-0.0371,13.51,3.29,-7.77,-0.6627288371843665,-0.13075127602539766,0.7094724486650308,-0.20085675683738596,-110.10811134483376,-83.16849724610242,137.27951952582325,1
1767487338.422143,2,right_wrist,1.0204,-0.2035,0.1122,-88.2,-38.36,-101.92,-0.43853090030486597,-0.3961647063344985,0.03387600284513117,-0.8059755525845316,23.183881783630273,-41.9367236923066,113.90929021541272,1
1767487338.473567,1,left_wrist,0.9809,-0.1269,-0.0571,7.7,5.04,-10.85,-0.6621822014316393,-0.13428478415279357,0.7090639855018991,-0.20176866287000114,-111.01795989162524,-83.33810587420167,138.55829734553765,1
1767487338.473567,2,right_wrist,1.0204,-0.2035,0.1122,-88.2,-38.36,-101.92,-0.48622220311084485,-0.39605893535690906,0.058031964705980627,-0.7767609542184469,23.46590538991583,-42.19988423724985,106.74620925812634,1
1767487338.542735,1,left_wrist,0.9862,-0.161,-0.0605,5.95,2.52,-13.93,-0.6617823177110718,-0.13722977494050045,0.7086641564733525,-0.20250250903298325,-111.76473304252997,-83.48468605781339,139.6105114141141,1
1767487338.542735,2,right_wrist,1.0204,-0.2035,0.1122,-88.2,-38.36,-101.92,-0.575965887422033,-0.3914038248646075,0.10561747101966007,-0.7098670947599397,24.14525617475248,-42.63718175264639,92.34750325472183,1
1767487338.6212091,1,left_wrist,0.995,-0.1879,-0.0425,-0.21,-4.2,-3.08,-0.659163743866105,-0.1356553819007515,0.7106263577537498,-0.2052095411997716,-112.52354478466346,-82.98481515528128,140.4713911675317,1
1767487338.6212091,2,right_wrist,1.0204,-0.2035,0.1122,-88.2,-38.36,-101.92,-0.6176888528317585,-0.3868725326395875,0.12887082296832567,-0.6724451171388517,24.531614361917974,-42.80499226696608,85.11944918420996,1
1767487338.6742651,1,left_wrist,0.9921,-0.1903,-0.0346,-0.49,-3.01,0.84,-0.6576783116254772,-0.13213545731038825,0.7116682780633969,-0.2086329823808204,-111.23898011735247,-82.40765962637676,139.18792046129138,1
1767487338.6742651,2,right_wrist,1.0204,-0.2035,0.1122,-88.2,-38.36,-101.92,-0.6571073130930418,-0.3808935846320854,0.15164930553438308,-0.6325603089008218,24.940788680905307,-42.93561321006697,77.87806699818553,1
1767487338.7412171,1,left_wrist,0.9853,-0.1161,0.0083,0.7,0.42,2.52,-0.660025305702131,-0.13133889328163398,0.7092092533742048,-0.21009266020679307,-107.98424449277077,-82.47105000224694,135.98763532387187,1
1767487338.7412171,2,right_wrist,1.0204,-0.2035,0.1122,-88.2,-38.36,-101.92,-0.7284705805773449,-0.3646907512609501,0.19544667966425308,-0.5460145278161093,25.80014428021767,-43.0790862693808,63.374642186456214,1
1767487338.793715,1,left_wrist,1.0165,-0.1083,0.0132,-7.77,-0.42,-1.4,-0.6630576811293063,-0.12995639195921355,0.7074946917760239,-0.20716444867090358,-106.10357252359887,-82.77698116516832,133.74148880643537,1
1767487338.793715,2,right_wrist,1.0204,-0.2035,0.1122,-88.2,-38.36,-101.92,-0.7601598411996461,-0.35452947397799234,0.2163037831589718,-0.4996784378971476,26.236066000090762,-43.09047392116585,56.12263877716556,1
1767487338.845381,1,left_wrist,1.038,-0.0737,0.0088,-8.33,0.21,-1.05,-0.6662048145609862,-0.1296452334355206,0.7058816216518605,-0.20271752444559632,-104.8845120493923,-83.25865043526179,132.11765612556806,1
1767487338.845381,2,right_wrist,1.0204,-0.2035,0.1122,-88.2,-38.36,-101.92,-0.7890341180935359,-0.3430454644518367,0.2363630973864839,-0.4515279127553991,26.666601431996256,-43.061760015677855,48.87712411067482,1
1767487338.92412,1,left_wrist,1.0297,-0.0356,0.001,-3.78,0.21,-1.89,-0.6719470135763288,-0.13281634161360548,0.7021373505402106,-0.1945512048860263,-102.65955161287356,-84.42940522435642,129.46069400009668,1
1767487338.92412,2,right_wrist,1.0204,-0.2035,0.1122,-88.2,-38.36,-101.92,-0.8149914556360607,-0.3302829122348045,0.2555508834099918,-0.40174104982473985,27.084795158234733,-42.99385990503295,41.642905649831945,1
1767487338.991154,1,left_wrist,1.0311,-0.0454,-0.0049,4.76,-0.98,-3.78,-0.6735798101168858,-0.13836768107598452,0.7001915253811707,-0.1920324244000062,-102.85313513088988,-85.14488948697904,129.89940947754036,1
1767487338.991154,2,right_wrist,1.0204,-0.2035,0.1122,-88.2,-38.36,-101.92,-0.8578012346853402,-0.3011226817900053,0.2910341689284097,-0.29799544426056407,27.858195502996153,-42.74723546904053,27.225922724664706,1
1767487339.041164,1,left_wrist,1.0102,-0.0332,-0.0054,13.86,-2.24,-4.97,-0.6742171545328719,-0.14717021640451705,0.6978638498907593,-0.19172428889604215,-104.08276827515121,-85.91202650572288,131.8307268768407,1
1767487339.041164,2,right_wrist,1.0204,-0.2035,0.1122,-88.2,-38.36,-101.92,-0.8745039662312986,-0.284836402672709,0.30720021754224086,-0.24441575869857135,28.20173163059032,-42.57328097294249,20.05080661411797,1
1767487339.0986612,1,left_wrist,1.0204,-0.0683,0.0093,20.37,-2.66,-9.38,-0.6753169621748254,-0.15597337820643187,0.6938385592882355,-0.19546702927773926,-100.72936303997153,-86.46489053823288,129.52159103617015,1
1767487339.0986612,2,right_wrist,1.0204,-0.2035,0.1122,-88.2,-38.36,-101.92,-0.88799058788304,-0.26749385793805885,0.32223629487604727,-0.18995663205348734,28.509789454715868,-42.36956708423933,12.902129580124862,1
1767487339.191676,1,left_wrist,0.997,-0.1088,0.0,19.25,-3.71,-7.35,-0.6726922865317735,-0.1677790416852493,0.6898373782660041,-0.20846983560918264,-97.41119973842298,-86.42157810073023,128.28511151608868,1
1767487339.191676,2,right_wrist,1.0204,-0.2035,0.1122,-88.2,-38.36,-101.92,-0.8982141033422564,-0.24916070164143184,0.33608806348126175,-0.13481536596408905,28.77826240232711,-42.13961420521424,5.782275270577217,1
1767487339.2467752,1,left_wrist,0.9677,-0.0561,-0.0044,24.71,-5.6,-4.27,-0.6720566516078404,-0.1785390933909446,0.6864613779643367,-0.21268386333735198,-96.80830193129184,-86.996830990741,128.93874792479278,1
1767487339.2467752,2,right_wrist,1.0204,-0.2035,0.1122,-88.2,-38.36,-101.92,-0.9087404561669117,-0.20980226697612292,0.3600438680167849,-0.023285300099950244,29.184002013130254,-41.61664865746859,-8.364599919655287,1
1767487339.329679,1,left_wrist,0.9531,-0.0922,-0.0229,20.51,-0.7,-16.17,-0.6657635952435051,-0.19627281208516056,0.6831189733801613,-0.2271217442092677,-101.93546775004008,-87.13162945457434,136.788091849515,1
1767487339.329679,2,right_wrist,1.0204,-0.2035,0.1122,-88.2,-38.36,-101.92,-0.9090061347641691,-0.18892452849112687,0.370062179490706,0.03270096032380421,29.317065933696302,-41.33203095879319,-15.3899978849886,1
1767487339.381773,1,left_wrist,0.9531,-0.1171,-0.041,15.47,3.29,-16.87,-0.6648103288515587,-0.20291620885059852,0.6812894810261227,-0.22955801419497163,-103.92750548559079,-87.46145580536493,139.54979601006863,1
1767487339.381773,2,right_wrist,1.0204,-0.2035,0.1122,-88.2,-38.36,-101.92,-0.905934499981946,-0.16735068182506738,0.3787249558752941,0.0885654494281106,29.402118343139765,-41.03781794753577,-22.383270260878366,1
1767487339.447645,1,left_wrist,0.9482,-0.1381,-0.0654,4.06,5.67,-14.7,-0.6651581896584429,-0.2056571018571902,0.6802627588963159,-0.22915566334868748,-104.82260094383186,-87.73637157049185,140.64216194058483,1
1767487339.447645,2,right_wrist,1.0204,-0.2035,0.1122,-88.2,-38.36,-101.92,-0.8898314967962507,-0.12243734652486862,0.39186604135340625,0.19912310041605824,29.428287284942733,-40.438335320445645,-36.27629660860026,1
1767487339.49909,1,left_wrist,0.9496,-0.1283,-0.081,2.52,6.3,-10.22,-0.6652189856615617,-0.20700599883788365,0.6797773875639056,-0.22920497576912457,-105.28844404797636,-87.84881328974332,141.22641013101452,1
1767487339.49909,2,right_wrist,1.0204,-0.2035,0.1122,-88.2,-38.36,-101.92,-0.8768550887622008,-0.09926402892535773,0.3962979696218504,0.2534161106696607,29.371179398525896,-40.141805208127536,-43.17859816643952,1
1767487339.574167,1,left_wrist,0.9726,-0.1527,-0.061,3.71,1.75,1.96,-0.6617787981745632,-0.204476648803946,0.6819987518105092,-0.23476759765658894,-105.62292799569347,-87.04864837107826,141.82524251829722,1
1767487339.574167,2,right_wrist,1.0204,-0.2035,0.1122,-88.2,-38.36,-101.92,-0.8606512554128712,-0.0757263858462315,0.39928169944821534,0.30678829105534877,29.269502972298056,-39.85304091257515,-50.05374733411149,1
1767487339.625421,1,left_wrist,0.9897,-0.143,-0.042,-2.73,-0.77,6.93,-0.6590169849012779,-0.19885482527119724,0.6849753118148334,-0.23866753923012274,-105.07268526134446,-86.14817398399929,141.1368989848214,1
1767487339.625421,2,right_wrist,1.0204,-0.2035,0.1122,-88.2,-38.36,-101.92,-0.8412762146596862,-0.05191107601202925,0.400806792096302,0.3590452426152098,29.125622569328605,-39.576030474472944,-56.90386198461459,1
1767487339.7004979,1,left_wrist,1.0072,-0.1152,-0.0176,-3.5,-4.06,12.95,-0.6555115005231094,-0.19102223120845632,0.6885610791624316,-0.24433341999970493,-103.84875988713898,-84.9158654891897,139.743851187878,1
1767487339.7004979,2,right_wrist,1.0204,-0.2035,0.1122,-88.2,-38.36,-101.92,-0.7932941017284857,-0.0037984519023283466,0.3994650788437532,0.4594536872311452,28.72307096052896,-39.07197579349528,-70.53856448957823,1
1767487339.7694159,1,left_wrist,1.0019,-0.0532,0.0132,-7.63,-1.89,13.65,-0.6564155180413304,-0.180597003891275,0.6895811139094037,-0.24694387459399092,-98.93776273228754,-83.98699069376515,134.18150708601436,1
1767487339.7694159,2,right_wrist,1.0204,-0.2035,0.1122,-88.2,-38.36,-101.92,-0.7648557800717731,0.020322026817448893,0.39660319044015424,0.5072361976924764,28.47131599252079,-38.85154109644245,-77.3283405036978,1
1767487339.823066,1,left_wrist,1.0141,-0.0317,0.0185,-9.87,-0.56,9.24,-0.6583495072955415,-0.17746723344538623,0.6894805267968264,-0.2443315584711263,-97.58864335783379,-84.02093477148438,132.3433075317457,1
1767487339.823066,2,right_wrist,1.0204,-0.2035,0.1122,-88.2,-38.36,-101.92,-0.7335833908900795,0.04436707015263443,0.39229249351880097,0.5531668565858637,28.191076164378266,-38.65601146016956,-84.10336971849554,1
1767487339.879387,1,left_wrist,1.0111,-0.0176,0.02,-8.47,-0.91,6.09,-0.660269235457028,-0.1759322992365947,0.6892132677847115,-0.24099260217657464,-96.81470589687814,-84.22767215412534,131.15195055619967,1
1767487339.879387,2,right_wrist,1.0204,-0.2035,0.1122,-88.2,-38.36,-101.92,-0.6995883776296458,0.06824820968092007,0.3865483237623293,0.5970751017731378,27.886563730226346,-38.487804482338596,-90.86645713261852,1
1767487339.9525309,1,left_wrist,1.0024,-0.0322,0.0205,-2.52,-0.14,1.05,-0.6626078614343218,-0.17735194327836618,0.6875523103773009,-0.23826231484575439,-95.16070974235365,-84.66476255923186,129.3801508001434,1
1767487339.9525309,2,right_wrist,1.0204,-0.2035,0.1122,-88.2,-38.36,-101.92,-0.6239276621788288,0.11516773317759124,0.37084637984702024,0.6781766939059142,27.22255404327364,-38.24101388200361,-104.36812913025078,1
1767487340.025818,1,left_wrist,0.9916,-0.0781,0.0215,-1.96,1.96,-3.92,-0.6694927586461961,-0.17945971576678402,0.681663098590374,-0.23432685837816664,-85.47953934713736,-85.44494255836845,119.5335735283781,1
1767487340.025818,2,right_wrist,1.0204,-0.2035,0.1122,-88.2,-38.36,-101.92,-0.5825351912148229,0.1380329111719681,0.36094459108513505,0.7150654995146151,26.87231769833204,-38.16520190234757,-111.11235785294234,1
1767487340.094378,1,left_wrist,0.9862,-0.0971,0.019,-0.42,1.68,-4.41,-0.6712706609169654,-0.17757595207731514,0.6798292794299079,-0.23599710139268185,-81.31506409822546,-85.21430457277008,115.35386885460095,1
1767487340.094378,2,right_wrist,1.0204,-0.2035,0.1122,-88.2,-38.36,-101.92,-0.49337859106860615,0.18215123414039386,0.3372163014895407,0.7808224252581402,26.15907044219063,-38.112398137350056,-124.601476202531,1
1767487340.181747,1,left_wrist,0.9945,-0.1303,0.0146,-5.67,2.03,-2.38,-0.6715561253232424,-0.1702664804850559,0.6802436216047203,-0.2393539459256097,-80.30933396454353,-84.3555813030783,114.02490008173066,1
1767487340.181747,2,right_wrist,1.0204,-0.2035,0.1122,-88.2,-38.36,-101.92,-0.4459412290614094,0.2032405836995023,0.3234749428649514,0.8094403293011792,25.80555591159968,-38.13553947814695,-131.35176439577054,1
1767487340.250612,1,left_wrist,0.998,-0.1015,0.0034,-6.09,1.96,-0.63,-0.6701084755106589,-0.16829842662251387,0.6828292635768861,-0.23743307993667312,-83.73239465870246,-84.30173742930504,117.1192414016799,1
1767487340.250612,2,right_wrist,1.0204,-0.2035,0.1122,-88.2,-38.36,-101.92,-0.3462228624160759,0.24308723063083262,0.2924850767490359,0.8576076070813282,25.127994658049595,-38.277949179146866,-144.87677626480414,1
1767487340.3027442,1,left_wrist,1.0009,-0.0917,-0.001,-3.57,0.63,0.84,-0.6688063591921819,-0.1689029848110261,0.6849503176611244,-0.23454828492647176,-87.22110917948824,-84.52028377657008,120.41169300461007,1
1767487340.3027442,2,right_wrist,1.0204,-0.2035,0.1122,-88.2,-38.36,-101.92,-0.2943119905985005,0.2616956514322229,0.2753485975545042,0.8769714864442174,24.81286151343249,-38.394755012586955,-151.65643410933032,1
1767487340.371267,1,left_wrist,0.9989,-0.0669,-0.0024,-2.66,-0.98,-0.07,-0.6687025291933415,-0.17281040600285316,0.6867414141168301,-0.22662683240158013,-92.11101189681474,-85.39965167882484,124.95056192591991,1
1767487340.371267,2,right_wrist,1.0204,-0.2035,0.1122,-88.2,-38.36,-101.92,-0.24128974596206043,0.27933340434498644,0.25719930286914466,0.8930848931172393,24.519115143364765,-38.53964455094799,-158.45064181628612,1
1767487340.434336,1,left_wrist,1.0014,-0.0752,-0.0034,-2.52,-1.96,-1.61,-0.6693096496828709,-0.1762185408116756,0.6868507554270525,-0.221827993014596,-94.67893899635526,-86.03965248881933,127.39391349206318,1
1767487340.434336,2,right_wrist,1.0204,-0.2035,0.1122,-88.2,-38.36,-101.92,-0.18735455457843364,0.2959342537203106,0.23810319021324147,0.9058852350954819,24.250662636632853,-38.710405215604055,-165.26158028866064,1
1767487340.492119,1,left_wrist,1.0028,-0.0673,0.0059,-0.84,-2.87,-2.45,-0.6712402109841927,-0.17676370815317133,0.685080890516815,-0.22103245030204208,-91.01600730734198,-86.24106697114935,123.70783589882346,1
1767487340.492119,2,right_wrist,1.0204,-0.2035,0.1122,-88.2,-38.36,-101.92,-0.07755783153643574,0.3257794339312194,0.19735222281983059,0.9213602136748102,23.803706824631522,-39.118979257912514,-178.94160612715748,1
1767487340.546388,1,left_wrist,1.0063,-0.0771,0.0073,-0.35,-3.29,-3.57,-0.6716294954147545,-0.17527883211855552,0.6846156474049566,-0.22246925007373394,-89.04125865106005,-86.0333003690994,121.73108013711362,1
1767487340.546388,2,right_wrist,1.0204,-0.2035,0.1122,-88.2,-38.36,-101.92,-0.022109403360302423,0.33891117899286866,0.1758463222942592,0.9239742734363868,23.63131811980896,-39.35075582976968,174.1857872507016,1
1767487340.621681,1,left_wrist,0.9789,-0.0678,0.0049,-0.35,-2.24,-4.2,-0.6734440761465363,-0.17732177011864392,0.6829196699478872,-0.22056924206107664,-86.00919831239091,-86.4120109297569,118.70743275366131,1
1767487340.621681,2,right_wrist,1.0204,-0.2035,0.1122,-88.2,-38.36,-101.92,0.033427515532949356,0.35078131318048017,0.15369096863190523,0.9231544603638434,23.496361103480698,-39.59640576648087,167.28946922289035,1
1767487340.6742022,1,left_wrist,0.9872,-0.0864,0.0044,0.28,-1.12,-5.46,-0.6725253965830056,-0.17570592198816248,0.6836755116338119,-0.22231692405529158,-87.09716928408032,-86.1158782266011,119.80937621445273,1
1767487340.6742022,2,right_wrist,1.0204,-0.2035,0.1122,-88.2,-38.36,-101.92,0.08884348780374283,0.36134487646136176,0.13096749068177616,0.9189038204918448,23.40077047989929,-39.85233210907616,160.36827405867302,1
1767487340.730432,1,left_wrist,0.9941,-0.0981,0.0029,0.35,-2.03,-3.85,-0.671097377989404,-0.17373851885983033,0.6848782120039287,-0.22446619131272533,-88.83259837716419,-85.73965779529422,121.56409978177619,1
1767487340.730432,2,right_wrist,1.0204,-0.2035,0.1122,-88.2,-38.36,-101.92,0.1439295432713329,0.37056179846490606,0.10775942420080183,0.9112387977846813,23.34595555568268,-40.11478890534499,153.42133355980675,1
1767487340.8011048,1,left_wrist,0.9877,-0.0986,-0.0024,0.14,-1.54,-1.89,-0.6691983508966252,-0.17127333733092412,0.68653999124864,-0.22694019364819887,-90.93433418917925,-85.27425517454138,123.67194322331451,1
1767487340.8011048,2,right_wrist,1.0204,-0.2035,0.1122,-88.2,-38.36,-101.92,0.252283773646272,0.3848208774429079,0.060232817874575344,0.8857978310482338,23.36144495918267,-40.6438767777777,139.4484351141442,1
1767487340.87183,1,left_wrist,0.9823,-0.0844,-0.0049,-0.49,-1.26,0.14,-0.6676759243863252,-0.17196918671460193,0.6881511672857457,-0.22601643696609855,-94.389752009501,-85.31559984737756,127.10759943815337,1
1767487340.87183,2,right_wrist,1.0204,-0.2035,0.1122,-88.2,-38.36,-101.92,0.3051444279534277,0.3898087597466664,0.03608952767269896,0.8681207029590429,23.431634177834088,-40.90274857354505,132.42252634708802,1
1767487340.9224079,1,left_wrist,0.9877,-0.0825,-0.002,-1.12,-0.21,-0.63,-0.6697029951057327,-0.17027771012092685,0.6862011025602878,-0.2272255413183783,-89.81732421215003,-85.19445541457941,122.49587612697916,1
1767487340.9224079,2,right_wrist,1.0204,-0.2035,0.1122,-88.2,-38.36,-101.92,0.35686185793809294,0.39334168702491057,0.011811485135940027,0.8472263100354315,23.542328008474005,-41.15274782705541,125.37102304765081,1
1767487340.981847,1,left_wrist,0.997,-0.0839,-0.002,-1.33,-0.42,0.56,-0.6672274802047079,-0.17027575532559527,0.68893186357942,-0.22624443452372736,-94.89794183928983,-85.13441778986835,127.49416224684914,1
1767487340.981847,2,right_wrist,1.0204,-0.2035,0.1122,-88.2,-38.36,-101.92,0.40724269943431685,0.39540616067007195,-0.012511582922861062,0.8231954884195906,23.69188309523515,-41.39020624475422,118.29499566195837,1
1767487341.043669,1,left_wrist,0.9926,-0.0683,0.0015,-1.19,-0.56,0.63,-0.6694341422085957,-0.17212215933763778,0.687105283632957,-0.22387099122946746,-92.58068485420702,-85.56802997104509,125.12723620866704,1
1767487341.043669,2,right_wrist,1.0204,-0.2035,0.1122,-88.2,-38.36,-101.92,0.5032499494129465,0.39510375339235254,-0.06093310243721111,0.7661068264273059,24.097856814960586,-41.81384026828364,104.07583485290496,1
1767487341.0964658,1,left_wrist,0.9975,-0.0664,0.0,-0.63,-0.28,-0.28,-0.6714231774965411,-0.17491140220040635,0.6854361367297864,-0.22084886362777906,-90.70344672391099,-86.10767989974462,123.22460586038846,1
1767487341.0964658,2,right_wrist,1.0204,-0.2035,0.1122,-88.2,-38.36,-101.92,0.5485205954024548,0.3927379746045865,-0.08485235591081998,0.7332681074608435,24.34792006800312,-41.99386212589877,96.93699570792572,1
1767487341.1754801,1,left_wrist,1.0009,-0.0683,-0.002,-0.98,0.21,-2.1,-0.6716628089570839,-0.17480881543204166,0.6855450495863956,-0.21986117005672587,-90.91174063149077,-86.1793939043529,123.3401304249348,1
1767487341.1754801,2,right_wrist,1.0204,-0.2035,0.1122,-88.2,-38.36,-101.92,0.5917444609213801,0.3889059562462685,-0.1084589362685608,0.6977301120838436,24.624221255015794,-42.14914084912173,89.78216905707008,1
1767487341.229983,1,left_wrist,0.9989,-0.0683,-0.0029,-1.82,-0.28,-2.24,-0.6693321975160432,-0.17370748681109555,0.6881399332917334,-0.21973518289833868,-96.06237078080082,-85.97026998748882,128.38922654779577,1
1767487341.229983,2,right_wrist,1.0204,-0.2035,0.1122,-88.2,-38.36,-101.92,0.6327631401158582,0.38362232686783915,-0.13166546146765684,0.6596278686469609,24.92231080392144,-42.27750373161719,82.61442203606725,1
1767487341.2965062,1,left_wrist,0.9906,-0.0717,-0.0029,0.63,-0.91,-2.45,-0.6711090865183291,-0.1729735829667179,0.6861772805050319,-0.22102821834984943,-91.2222407705662,-85.91840750267838,123.59683172584089,1
1767487341.2965062,2,right_wrist,1.0204,-0.2035,0.1122,-88.2,-38.36,-101.92,0.7075957711876164,0.3687864230021007,-0.1765367101071104,0.5763155288479359,25.564258867796795,-42.447001925789436,68.2537324629445,1
1767487341.3742468,1,left_wrist,0.996,-0.0795,-0.0039,1.12,-1.61,-1.33,-0.6686237630523592,-0.16755008085464085,0.6882697528055898,-0.22617245911082626,-92.34657289200226,-84.98867519620511,124.7082946057941,1
1767487341.3742468,2,right_wrist,1.0204,-0.2035,0.1122,-88.2,-38.36,-101.92,0.7411387252448242,0.3592907992938113,-0.19803557441196176,0.5314183123986373,25.89770711368845,-42.48608159381126,61.067999355558946,1
1767487341.426354,1,left_wrist,0.9906,-0.0683,-0.001,0.98,-2.52,-0.28,-0.6693825735205873,-0.17141682659138266,0.6875949436008254,-0.2230615057845557,-93.21573269460116,-85.56161922683083,125.63441512633341,1
1767487341.426354,2,right_wrist,1.0204,-0.2035,0.1122,-88.2,-38.36,-101.92,0.7719352774880703,0.3484566184297587,-0.21880332115228107,0.4845812822371959,26.232332480739238,-42.49416460890261,53.88359959709923,1
1767487341.490637,1,left_wrist,0.9872,-0.0673,0.002,0.42,-1.75,-1.05,-0.6713798331547365,-0.1740616798562276,0.6856830184029128,-0.22088560277351088,-90.75957678677227,-86.03207045878585,123.21283759384983,1
1767487341.490637,2,right_wrist,1.0204,-0.2035,0.1122,-88.2,-38.36,-101.92,0.8248588302682702,0.32294257900860684,-0.2578425163337898,0.38578911021747364,26.883895495881667,-42.41865708536332,39.53327904701934,1
1767487341.54367,1,left_wrist,0.996,-0.0795,0.0093,1.89,-1.4,-0.63,-0.6721546752497798,-0.1724421205400329,0.6844016311019081,-0.2237548098892348,-87.14280890246394,-85.72443567246602,119.70483818151722,1
1767487341.54367,2,right_wrist,1.0204,-0.2035,0.1122,-88.2,-38.36,-101.92,0.8467974746753094,0.30835969046585054,-0.27597055248309327,0.3341984325838466,27.190677940811685,-42.336920802446784,32.374179019585306,1
1767487341.59731,1,left_wrist,0.9887,-0.0693,0.0039,-0.42,-0.63,-0.14,-0.6732758859683339,-0.17580585756935838,0.6835800162603066,-0.22025041018671557,-86.78084352166015,-86.30256536130969,119.32511725831193,1
1767487341.59731,2,right_wrist,1.0204,-0.2035,0.1122,-88.2,-38.36,-101.92,0.8656134324161341,0.2926317511754865,-0.29308118458616556,0.2813955633379759,27.478521688188174,-42.22784824531792,25.229902472503316,1
1767487341.679889,1,left_wrist,0.996,-0.0781,-0.0044,0.63,0.42,-0.07,-0.6687847892550163,-0.17163476853360649,0.6876069031249432,-0.22464451621720807,-93.26227804946177,-85.44077098886567,125.83446021468549,1
1767487341.679889,2,right_wrist,1.0204,-0.2035,0.1122,-88.2,-38.36,-101.92,0.8812402471777245,0.2758182124276254,-0.3091119428333521,0.22757360841091145,27.743222414691427,-42.093439881935126,18.103118322069353,1
1767487341.7536352,1,left_wrist,0.996,-0.0717,-0.0088,-0.28,-0.14,-0.21,-0.6681746537424339,-0.17467634763399578,0.6884965637364102,-0.22136686155922522,-97.24721679526056,-85.8730287223793,129.79466997864665,1
1767487341.7536352,2,right_wrist,1.0204,-0.2035,0.1122,-88.2,-38.36,-101.92,0.9027175669739503,0.23919156501368521,-0.33770469000076164,0.11766023905476813,28.1888440108544,-41.758365366989196,3.9107016870984337,1
1767487341.8267782,1,left_wrist,0.9843,-0.0756,-0.0073,-0.42,-1.26,0.07,-0.6684047251539921,-0.17347632060840065,0.6880750275108903,-0.2229211656525135,-95.4041164160008,-85.68714535014433,127.98349604176227,1
1767487341.8267782,2,right_wrist,1.0204,-0.2035,0.1122,-88.2,-38.36,-101.92,0.9084924265655501,0.2195159696261504,-0.35016303554106676,0.061968528244544706,28.363961926776817,-41.56330075211779,-3.1516780204930703,1
1767487341.89361,1,left_wrist,0.9858,-0.0839,-0.0039,-1.75,-0.42,-0.35,-0.66838169157561,-0.16974139731882218,0.68813747963487,-0.22565589184541282,-93.20909337594671,-85.19344410224579,125.70971684630004,1
1767487341.89361,2,right_wrist,1.0204,-0.2035,0.1122,-88.2,-38.36,-101.92,0.9100126507303743,0.17780777354174315,-0.371179030860155,-0.049874825598918225,28.608696630447533,-41.1337459641332,-17.20400147794339,1
1767487341.973134,1,left_wrist,0.9911,-0.1074,-0.0181,-2.66,-1.4,3.08,-0.663008476969146,-0.16261785806900247,0.6936104566501995,-0.22995592214510405,-98.30035409356104,-84.00395258676126,130.57876694797335,1
1767487341.973134,2,right_wrist,1.0204,-0.2035,0.1122,-88.2,-38.36,-101.92,0.905752364915411,0.1559304889752356,-0.3796611696275351,-0.10562070031549704,28.676055308271987,-40.90592924719127,-24.193345347776496,1
1767487342.0471199,1,left_wrist,0.9887,-0.1176,-0.0259,-3.29,-2.8,5.32,-0.6593175048346349,-0.15837987843838014,0.6974081933543759,-0.23203028631336098,-101.29355163639046,-83.27748061732802,133.40086018991755,1
1767487342.0471199,2,right_wrist,1.0204,-0.2035,0.1122,-88.2,-38.36,-101.92,0.8872648871046795,0.11053511946339936,-0.39242207195642775,-0.2157496811533134,28.699455174914092,-40.441311424445146,-38.0999125468757,1
1767487342.099553,1,left_wrist,0.9618,-0.123,-0.0429,-2.24,-4.48,8.82,-0.6545388455326598,-0.15474376958335778,0.7020371345295241,-0.23404513924771053,-104.9278129298213,-82.50454194258425,136.91196794065635,1
1767487342.099553,2,right_wrist,1.0204,-0.2035,0.1122,-88.2,-38.36,-101.92,0.8731023976261849,0.0871849567955645,-0.3966553554446927,-0.2697323035251941,28.65661200065422,-40.21129794234012,-45.018810952675544,1
1767487342.177721,1,left_wrist,0.9726,-0.1547,-0.0268,-0.98,-5.6,15.82,-0.6485410596647803,-0.1408393181908385,0.7061821773182672,-0.24670936913391672,-102.60179804554906,-80.2206007839676,134.53050721156384,1
1767487342.177721,2,right_wrist,1.0204,-0.2035,0.1122,-88.2,-38.36,-101.92,0.8557232876371031,0.06351424130683662,-0.3994354479682321,-0.3227304123462524,28.578981657392735,-39.987201287584845,-51.916407603669725,1
1767487342.237548,1,left_wrist,0.9662,-0.1542,-0.0137,0.14,-6.02,18.48,-0.6472760236719746,-0.13619384288296335,0.7065065536827964,-0.2516614311797224,-101.16924416784846,-79.46988270667131,133.1429910695209,1
1767487342.237548,2,right_wrist,1.0204,-0.2035,0.1122,-88.2,-38.36,-101.92,0.8351888935689957,0.03961022345336707,-0.40075253264767297,-0.3745503301739926,28.468309840052967,-39.77214277231468,-58.79423691601049,1
1767487342.332417,1,left_wrist,0.9653,-0.1659,-0.0078,0.07,-5.39,19.46,-0.6460569547149612,-0.13119826572252627,0.706678415712633,-0.2569105741337149,-99.73592894167689,-78.6727788088827,131.75300892985877,1
1767487342.332417,2,right_wrist,1.0204,-0.2035,0.1122,-88.2,-38.36,-101.92,0.7849563805697117,-0.00854506106737954,-0.39898454808368516,-0.47390061502883685,28.15678466612133,-39.380682944137945,-72.49772493883512,1
1767487342.392171,1,left_wrist,0.9892,-0.1791,0.0078,-3.57,-0.49,16.24,-0.6468425428206489,-0.12119470378170882,0.7056375363212982,-0.2626446951815122,-96.72650420689999,-77.56343737555221,128.4148235595866,1
1767487342.392171,2,right_wrist,1.0204,-0.2035,0.1122,-88.2,-38.36,-101.92,0.7231200588739553,-0.05657239446932189,-0.3913774800234017,-0.5663220044892011,27.743224175582082,-39.05766280818815,-86.14500873887422,1
1767487342.448041,1,left_wrist,0.9867,-0.1752,0.0059,-7.98,2.31,14.49,-0.6489224836315569,-0.1161794381949501,0.704478697414347,-0.26289106730268025,-95.09360266020822,-77.26217751072797,126.38737372152649,1
1767487342.448041,2,right_wrist,1.0204,-0.2035,0.1122,-88.2,-38.36,-101.92,0.6881212472799204,-0.08031684018657956,-0.3854152696720714,-0.6095026038730061,27.50601391148837,-38.92713200127975,-92.95296078522271,1
1767487342.519397,1,left_wrist,0.9989,-0.1952,-0.0068,-10.15,5.74,11.2,-0.6548832874067013,-0.10797006338638193,0.7018331686195562,-0.2586514038492077,-92.18449504210679,-77.18487669614633,122.42789263114429,1
1767487342.519397,2,right_wrist,1.0204,-0.2035,0.1122,-88.2,-38.36,-101.92,0.6505671016472098,-0.10376484723660367,-0.3780408082677286,-0.6504463467624337,27.253108586290438,-38.81948111240451,-99.75344696149156,1
1767487342.5731251,1,left_wrist,1.0072,-0.2167,-0.0171,-14.35,6.37,8.05,-0.6558606582704636,-0.1034376677659418,0.7033503666863021,-0.253861591231169,-92.79293877314777,-77.19173122112623,122.2494812340156,1
1767487342.5731251,2,right_wrist,1.0204,-0.2035,0.1122,-88.2,-38.36,-101.92,0.6105937514228229,-0.1268298747547624,-0.3692806212815813,-0.6890002005362442,26.988135603992433,-38.735971078763846,-106.54874568896011,1
1767487342.624234,1,left_wrist,1.0043,-0.225,-0.0229,-17.43,5.81,5.81,-0.6556752820566129,-0.09701271435995013,0.706183494757013,-0.24896451451013543,-94.13230060749916,-76.99732743775743,122.64092904667372,1
1767487342.624234,2,right_wrist,1.0204,-0.2035,0.1122,-88.2,-38.36,-101.92,0.5683466684398355,-0.14942668958389882,-0.3591662481923188,-0.725019541166161,26.71481906622737,-38.67752107564622,-113.34113701739064,1
1767487342.675595,1,left_wrist,1.0058,-0.2118,-0.0283,-13.16,3.43,4.69,-0.6561991019150483,-0.09431216458045197,0.7080442505078774,-0.243272056719985,-95.291596087072,-77.19319420185076,123.08907312545266,1
1767487342.675595,2,right_wrist,1.0204,-0.2035,0.1122,-88.2,-38.36,-101.92,0.5239801945120645,-0.17147167137828048,-0.3477341508267022,-0.7583687638759066,26.43693868565351,-38.64470113020981,-120.13288482766848,1
1767487342.729837,1,left_wrist,0.9867,-0.2152,-0.0127,-6.65,-0.63,3.29,-0.6585746282039097,-0.09318455174952381,0.7067934208550061,-0.2409131765541285,-94.32696802623313,-77.38279196023416,121.82651605419642,1
1767487342.729837,2,right_wrist,1.0204,-0.2035,0.1122,-88.2,-38.36,-101.92,0.47765702215311134,-0.1928831168600511,-0.33502560409984894,-0.7889218700325813,26.15828927450122,-38.63772858580647,-126.92622081153439,1
1767487342.7932181,1,left_wrist,0.9775,-0.2113,0.0029,-4.97,-1.68,0.07,-0.6608329153056269,-0.0924182399574113,0.7053090440281412,-0.2393697545304125,-93.18804562926842,-77.53475736583188,120.48972837420916,1
1767487342.7932181,2,right_wrist,1.0204,-0.2035,0.1122,-88.2,-38.36,-101.92,0.3798296669725602,-0.2334899800228237,-0.3059675447272658,-0.8411870867351827,25.61369824560585,-38.70043734221329,-140.52633476687706,1
1767487342.875746,1,left_wrist,0.9843,-0.2059,0.002,-0.42,-3.99,-3.36,-0.664276301076377,-0.09274007871213324,0.7034019574759202,-0.2352912234822999,-91.86052647901657,-78.00020762245231,118.83523853993057,1
1767487342.875746,2,right_wrist,1.0204,-0.2035,0.1122,-88.2,-38.36,-101.92,0.32868730816256236,-0.25253427545443713,-0.28972340802892926,-0.8627000869442716,25.35506321304904,-38.76881185428344,-147.33728417240752,1
1767487342.9416552,1,left_wrist,0.9765,-0.2142,-0.0063,-1.75,-3.15,-5.39,-0.6629775235806241,-0.09070174501833597,0.7044963958925479,-0.23647161531977226,-92.4429647317138,-77.6950935185615,119.35356869592367,1
1767487342.9416552,2,right_wrist,1.0204,-0.2035,0.1122,-88.2,-38.36,-101.92,0.2228944780990041,-0.2877495778077884,-0.2541000574822036,-0.896075550883938,24.882366829569126,-38.973856558686116,-160.99074153639555,1
1767487342.993597,1,left_wrist,0.9858,-0.2264,-0.0083,-2.59,-2.73,-5.74,-0.6619058172478431,-0.08849459803263307,0.7054979378969544,-0.23732268082855607,-92.92323013720485,-77.40871430737874,119.72765146866504,1
1767487342.993597,2,right_wrist,1.0204,-0.2035,0.1122,-88.2,-38.36,-101.92,0.16863850496933835,-0.30378885791891397,-0.23485073192823852,-0.9078097367613981,24.674638396405182,-39.10730304856653,-167.83683104511817,1
1767487343.072711,1,left_wrist,0.9843,-0.2342,-0.0229,2.38,-3.43,-3.15,-0.6576285263937421,-0.09078559936715416,0.7094104844115868,-0.2366843062555256,-96.06946631670618,-77.43035501269334,123.01183010105697,1
1767487343.072711,2,right_wrist,1.0204,-0.2035,0.1122,-88.2,-38.36,-101.92,0.11374556385561771,-0.3187010639828184,-0.2147356150407215,-0.9161769447833045,24.489807129719868,-39.25874984109631,-174.6979926858746,1
1767487343.153287,1,left_wrist,0.9755,-0.2259,-0.019,3.64,-3.85,-1.33,-0.6566262179103524,-0.08951863637016687,0.7091844175014476,-0.24059485794236068,-95.59469447982303,-77.01109600174726,122.77005305863177,1
1767487343.153287,2,right_wrist,1.0204,-0.2035,0.1122,-88.2,-38.36,-101.92,0.0028731603823732572,-0.3449245888933835,-0.17220562028809983,-0.9226938805840961,24.19852083848152,-39.60633386318046,171.52893944716865,1
1767487343.222146,1,left_wrist,0.9833,-0.2259,-0.0117,2.24,-0.42,-2.38,-0.6590886498237369,-0.09299815733288437,0.7068127472818202,-0.2395187564391093,-94.359231688605,-77.48891770526707,121.72328086328295,1
1767487343.222146,2,right_wrist,1.0204,-0.2035,0.1122,-88.2,-38.36,-101.92,-0.052690340040460124,-0.35613719777592656,-0.14994680987667777,-0.9208181029033579,24.096048435929067,-39.79731242332092,164.6147465115408,1
1767487343.277616,1,left_wrist,0.9765,-0.2216,-0.0205,1.89,-0.42,-2.03,-0.656538360862481,-0.09204371458201083,0.7087409278041433,-0.24118796109523027,-95.57442090348474,-77.16939821193199,123.0070956970051,1
1767487343.277616,2,right_wrist,1.0204,-0.2035,0.1122,-88.2,-38.36,-101.92,-0.10806061604208751,-0.36602571599548117,-0.1271337693381943,-0.9155244853003457,24.0243731999751,-39.99604304079641,157.68095291146855,1
1767487343.347059,1,left_wrist,0.9784,-0.2108,-0.0264,1.96,1.54,-2.94,-0.6570033250154558,-0.09644815441420451,0.7088992839147369,-0.23771030624249895,-96.4249891952463,-77.78263827004423,123.91899066024595,1
1767487343.347059,2,right_wrist,1.0204,-0.2035,0.1122,-88.2,-38.36,-101.92,-0.21739173337505435,-0.38168615350288515,-0.08018275625166611,-0.8947777601640795,23.97692545448888,-40.40500533828974,143.7525746407801,1
1767487343.424897,1,left_wrist,0.9809,-0.2162,-0.0283,-1.12,2.1,-3.85,-0.6567978065979894,-0.09758077694292341,0.7095386279974819,-0.23590160787653994,-97.15547145681482,-77.98296820118944,124.58756727926477,1
1767487343.424897,2,right_wrist,1.0204,-0.2035,0.1122,-88.2,-38.36,-101.92,-0.2709426086538247,-0.3873987906013335,-0.05621790232288011,-0.8794042456770946,24.0017697592103,-40.609238259923266,136.7576906882006,1
1767487343.504253,1,left_wrist,0.978,-0.2045,-0.0249,4.41,2.66,-3.43,-0.6601481787692065,-0.10225540906268285,0.7063456464746107,-0.23414534181035374,-95.47401692568009,-78.65802346660689,123.13393124152252,1
1767487343.504253,2,right_wrist,1.0204,-0.2035,0.1122,-88.2,-38.36,-101.92,-0.3748137266597551,-0.3944806181068645,-0.007751579275556862,-0.8389515035234082,24.146565007975692,-41.002307156664614,122.70804351047904,1
1767487343.58261,1,left_wrist,0.9789,-0.2011,-0.0122,3.57,2.38,-4.34,-0.6620268632516971,-0.10575227474920978,0.704514047878468,-0.23280215862483303,-94.57601903379387,-79.12865654180186,122.40523317037903,1
1767487343.58261,2,right_wrist,1.0204,-0.2035,0.1122,-88.2,-38.36,-101.92,-0.4247463622811065,-0.3958228570639615,0.016570753285746427,-0.8140271516910431,24.264252794084285,-41.18540992433481,115.6548315161181,1
1767487343.641098,1,left_wrist,0.974,-0.202,-0.0151,-0.49,3.08,-4.34,-0.6622226457723395,-0.10316610702521341,0.7040207854818423,-0.23488860210123927,-93.70748432028715,-78.78436031146232,121.50303016128485,1
1767487343.641098,2,right_wrist,1.0204,-0.2035,0.1122,-88.2,-38.36,-101.92,-0.5196782986088883,-0.3940842395851203,0.06494425971490615,-0.7552577845978627,24.58101036692129,-41.51152022574066,101.49788913621593,1
1767487343.698306,1,left_wrist,0.9706,-0.204,-0.0127,0.42,1.26,-3.57,-0.6616991089617399,-0.10078920027560598,0.7040249520800244,-0.23737037126769336,-93.31095720903845,-78.39397702741648,121.12495382045844,1
1767487343.698306,2,right_wrist,1.0204,-0.2035,0.1122,-88.2,-38.36,-101.92,-0.5643262273701105,-0.391009849575471,0.08881642108126726,-0.7216362310634776,24.77507535577313,-41.64985302855768,94.39757067801915,1
1767487343.776177,1,left_wrist,0.974,-0.2255,-0.0229,5.46,-2.38,2.66,-0.6559085897150466,-0.09796382073203456,0.7076232567403227,-0.24383670413992128,-95.4478433923687,-77.43417281038937,123.59289506112938,1
1767487343.776177,2,right_wrist,1.0204,-0.2035,0.1122,-88.2,-38.36,-101.92,-0.6068736546673172,-0.3864790191115235,0.11236075853877131,-0.6853563999831913,24.98893986676279,-41.76902115550316,87.28541616579946,1
1767487343.840747,1,left_wrist,0.9584,-0.1693,-0.0415,32.62,-1.61,15.4,-0.6519526342051799,-0.10573422494291146,0.7062481434611483,-0.2549344941084475,-95.12535686368692,-77.10772293309537,124.86857475684342,1
1767487343.840747,2,right_wrist,1.0204,-0.2035,0.1122,-88.2,-38.36,-101.92,-0.6850512976744374,-0.37312202562232405,0.15811904506739188,-0.6053784280407082,25.46215301325054,-41.94364688728249,73.03513106514244,1
1767487343.8911428,1,left_wrist,0.9584,-0.2391,-0.0786,130.9,-6.16,51.66,-0.6345017363322112,-0.12696350834234774,0.697084565570846,-0.308805638847021,-90.87044896789959,-74.3689793424649,127.11240236517499,1
1767487343.8911428,2,right_wrist,1.0204,-0.2035,0.1122,-88.2,-38.36,-101.92,-0.7203962011943856,-0.3643464122246003,0.1801637904201601,-0.5619804390058432,25.71394926456399,-41.99684884205549,65.90217099958994,1
1767487343.94167,1,left_wrist,0.8979,-0.509,-0.0146,165.83,1.4,87.01,-0.6101736564162084,-0.14229369279845352,0.6775475027060246,-0.3851882599227082,-83.22769462497212,-69.46580186203626,127.77809727285823,1
1767487343.94167,2,right_wrist,1.0204,-0.2035,0.1122,-88.2,-38.36,-101.92,-0.7530708894349801,-0.3542152464768829,0.20154296268986305,-0.5165232122945893,25.970580054095056,-42.02640913090604,58.76761048882493,1
