timestamp,node_id,node_name,ax,ay,az,gx,gy,gz,qw,qx,qy,qz,roll,pitch,yaw,rep_number
1767651667.60927,1,left_wrist,0.1264,0.6051,-0.8213,-2.24,-44.1,-42.28,0.5476901316870294,0.5595291951977464,-0.5866750909482339,-0.20682102657826712,110.18421629465124,-24.27945421099549,-75.64014376084104,1
1767651667.60927,2,right_wrist,0.2435,-0.4211,-0.7862,19.39,-41.44,16.45,0.18304520117112646,-0.4016500071574842,-0.8703448280115553,0.21833828439408157,-147.81931323768117,-8.235012408404065,128.07571966927853,1
1767651667.67791,1,left_wrist,0.0224,0.4968,-0.7598,-16.66,-53.9,-40.32,0.5123004088180267,0.5707808254959502,-0.590138188953459,-0.2519810673637524,111.53305617704527,-18.481844836030554,-79.27576234925101,1
1767651667.67791,2,right_wrist,0.0771,-0.6456,-0.7681,24.5,-36.61,27.37,0.17084563098301345,-0.4067655906427649,-0.8646210888632722,0.24038281414433152,-146.11998202004932,-5.7319469153254525,127.86302921214629,1
1767651667.730777,1,left_wrist,-0.1791,0.5954,-0.7354,-8.89,-50.68,-34.02,0.4936017163992969,0.5744405173303622,-0.5922421621859537,-0.2749993799014832,112.04091354039073,-15.588228002368604,-81.20659434899294,1
1767651667.730777,2,right_wrist,0.1571,-0.4626,-0.7764,15.19,-48.02,41.23,0.15318351448220677,-0.4151539381340412,-0.8602078418955396,0.253425506380267,-145.66830778586944,-3.044877500309138,127.53342275846484,1
1767651667.782964,1,left_wrist,-0.1791,0.5954,-0.7354,-8.89,-50.68,-34.02,0.47451985777448197,0.5776382664119003,-0.5938313583110181,-0.2975386624303322,112.45429971550068,-12.699054681839343,-83.072072095595,1
1767651667.782964,2,right_wrist,0.0703,-0.6276,-0.8169,11.13,-38.78,49.91,0.1377520402576721,-0.4279677564034009,-0.8511513264193499,0.2709416808438103,-144.61037625743705,-0.14822761456905686,126.5652563037983,1
1767651667.835729,1,left_wrist,-0.0488,0.6051,-0.7047,11.48,-27.3,-34.02,0.4563474910196273,0.5874520333514315,-0.5932047890897777,-0.3078232514809632,113.60988487554819,-10.355329075646383,-83.77272140209264,1
1767651667.835729,2,right_wrist,0.0786,-0.5797,-0.7959,-0.28,-54.88,41.93,0.11677952822179428,-0.4355067618536694,-0.846837224912325,0.2820693472726496,-144.54129241477497,2.745501943487912,126.44669856161272,1
1767651667.90582,1,left_wrist,-0.1103,0.4529,-0.6002,26.11,-39.9,-22.54,0.4323147970830355,0.595334589664533,-0.5994513378022509,-0.3151804819133121,115.59274770485683,-8.223083208944345,-85.21038786741147,1
1767651667.90582,2,right_wrist,-0.0937,-0.7203,-0.6198,36.89,-80.78,15.33,0.06414796075296174,-0.4368772427743084,-0.8375530984704289,0.3217578610069045,-142.8279009792346,10.002010117516631,128.27681463853173,1
1767651667.957176,1,left_wrist,-0.2357,0.6529,-0.7232,-10.01,-62.58,-31.99,0.40990154587752964,0.5954300311399277,-0.6014385264451825,-0.3401698099646173,115.73527127512963,-5.046633365372914,-87.40430319074937,1
1767651667.957176,2,right_wrist,-0.2176,-0.5344,-0.9536,32.2,-109.48,34.72,0.023041115658586877,-0.433878668293522,-0.8293529613426146,0.3512720793078822,-141.29711704848097,15.46207582614719,130.2264753617413,1
1767651668.033225,1,left_wrist,-0.4563,0.588,-0.6783,-2.45,-42.14,-48.51,0.3671490756377533,0.6075149274611269,-0.5887383345666855,-0.3866708452700957,115.57410848920352,2.1495056015275287,-89.55588933906928,1
1767651668.033225,2,right_wrist,-0.2577,-0.7159,-0.7852,11.48,-38.08,17.64,0.011832306292148804,-0.4327403799059029,-0.8240190834496135,0.3654973464165813,-140.0957247711323,17.26735439992696,130.89681074097462,1
1767651668.105199,1,left_wrist,-0.3997,0.507,-0.7042,-27.3,-29.05,-38.5,0.35618449171088595,0.6105402821509848,-0.5784644613815647,-0.4071265634347506,114.59929241045334,4.879141215067155,-90.04291785526345,1
1767651668.105199,2,right_wrist,-0.303,-0.6832,-0.7764,1.89,-23.52,16.94,-0.013436463192865343,-0.43501261036466715,-0.8138622348293492,0.3849827957184091,-138.830582468987,20.904759516995092,131.67745682039643,1
1767651668.156251,1,left_wrist,-0.3997,0.507,-0.7042,-27.3,-29.05,-38.5,0.3451600533948476,0.6132733284788011,-0.5678579552274298,-0.42696335299639115,113.61710177343411,7.567071658350641,-90.55029803686632,1
1767651668.156251,2,right_wrist,-0.3645,-0.6227,-0.7047,0.49,-24.22,21.28,-0.027208105407856866,-0.43831539804746,-0.8078570679120981,0.3930728795771585,-138.44328558255154,22.8637037903081,131.80955107852148,1
1767651668.209481,1,left_wrist,-0.4792,0.549,-0.5573,4.34,-22.54,-34.37,0.32780635868341257,0.6207392612155256,-0.5621129111779756,-0.4373269210548861,114.13211945353564,10.043953575319696,-90.84092878545852,1
1767651668.209481,2,right_wrist,-0.408,-0.591,-0.7056,15.33,-13.58,25.76,-0.03703255864013263,-0.4470379293927963,-0.8001227270703286,0.39823272204868715,-138.38313023042258,24.538931287058194,131.0641291238913,1
1767651668.2851598,1,left_wrist,-0.4939,0.5544,-0.6461,16.59,-22.26,-24.36,0.29159135524824803,0.6342554784162564,-0.5553306464404583,-0.4519981667744664,115.79198627320926,14.448245973616736,-91.50236031072798,1
1767651668.2851598,2,right_wrist,-0.408,-0.591,-0.7056,15.33,-13.58,25.76,-0.04307683220087259,-0.4547275452021733,-0.793556503447401,0.4020389558217942,-138.33478081657822,25.721944940074444,130.30288167574105,1
1767651668.3559418,1,left_wrist,-0.5192,0.4509,-0.5954,16.8,-12.46,-20.51,0.2757046451612343,0.6414132789732895,-0.5539888798610259,-0.45351105298942496,117.02089288769064,16.039584600241643,-91.49964227420871,1
1767651668.3559418,2,right_wrist,-0.4817,-0.6154,-0.7657,-7.77,-10.92,-4.2,-0.04802326934772504,-0.45752525967943986,-0.7905397348612927,0.4042416727180089,-138.3227048928761,26.476464261447028,130.11359314262333,1
1767651668.407112,1,left_wrist,-0.5192,0.4509,-0.5954,16.8,-12.46,-20.51,0.2597596055586591,0.6483868912888104,-0.5524850260878604,-0.45484028237782376,118.26303761503539,17.625757407466494,-91.45734472771345,1
1767651668.407112,2,right_wrist,-0.5295,-0.6725,-0.8438,-10.71,1.96,-17.92,-0.04722414928568602,-0.4527636152759428,-0.7970642831869531,0.39681672957950004,-139.08803167289815,25.760462331015166,130.55396744451753,1
1767651668.459121,1,left_wrist,-0.6193,0.5719,-0.6798,14.42,-0.21,3.15,0.25206901184974545,0.6516793878241826,-0.5555704110459063,-0.45068470921529413,119.36834528386693,17.897777288028383,-91.41810218555506,1
1767651668.459121,2,right_wrist,-0.5002,-0.6891,-0.8706,-21.42,20.72,-34.58,-0.037446723369026554,-0.44444938361738484,-0.809290976990704,0.3822441665643599,-140.29392687552453,23.602371388231514,131.07857084877574,1
1767651668.534604,1,left_wrist,-0.692,0.5836,-0.6871,44.59,41.3,75.04,0.2546117625321099,0.6485295171309171,-0.5868790428263356,-0.4124988544001986,123.05658864962821,13.661352132809528,-91.71992013969249,1
1767651668.534604,2,right_wrist,-0.4773,-0.6061,-0.9531,-25.97,40.25,-61.6,-0.019114007468383824,-0.4300347764818665,-0.8267414852191436,0.36221990882933836,-141.67386666236487,20.068234790512214,132.07436070233177,1
1767651668.611273,1,left_wrist,-0.406,0.5368,-0.6412,89.18,112.21,118.23,0.27433357662415464,0.6485815055019996,-0.6215996615527364,-0.3430699348746291,128.1290076467193,5.967614703874877,-90.47044571210961,1
1767651668.611273,2,right_wrist,-0.1801,-0.6637,-0.7281,-26.39,77.28,-71.05,0.04408756951076639,-0.39627409498442134,-0.8633027211448518,0.3094051381648424,-144.72663910360737,9.735300238364394,133.7895550205976,1
1767651668.676926,1,left_wrist,-0.124,0.5568,-0.7183,24.43,83.44,52.01,0.3225497360662276,0.6504431291787394,-0.6381938679126842,-0.2561132375072092,131.51238257309132,-4.503749563513856,-86.8817331268265,1
1767651668.676926,2,right_wrist,-0.1669,-0.5783,-0.8042,-35.84,91.42,-53.27,0.08239348859468007,-0.38754833119798915,-0.873847239828881,0.28179532548695385,-146.08916073821518,4.267895958476083,133.46748987118787,1
1767651668.736195,1,left_wrist,-0.1215,0.5431,-0.791,13.79,69.51,31.08,0.33696348770719603,0.6530894915115995,-0.6387380644293742,-0.22791096743759331,132.45417246729875,-7.629706616606761,-85.36220743391227,1
1767651668.736195,2,right_wrist,-0.142,-0.5148,-0.6954,141.19,103.88,-33.81,0.14683462854577922,-0.38194343553228716,-0.8547387864261421,0.31934371904326275,-138.84544917198062,-0.40497166514134325,131.69262337028172,1
1767651668.80317,1,left_wrist,-0.0913,0.5763,-0.7979,-1.61,32.41,35.21,0.34555447803622635,0.648110197012823,-0.6438661250561465,-0.2144334121406777,132.74650629899585,-9.61510514830222,-85.40949368737668,1
1767651668.80317,2,right_wrist,0.1313,-0.6329,-0.774,2.52,55.02,-31.08,0.20145899668823913,-0.3706007553641312,-0.8562328819591707,0.29821905477148225,-138.3068570456305,-7.120194145173196,130.47714742723167,1
1767651668.854879,1,left_wrist,-0.0317,0.4787,-0.6359,-4.41,57.19,40.88,0.362251887407164,0.6430026007956,-0.6463121215744239,-0.19391200825634478,132.7502345977938,-12.643476997961033,-84.74559174003002,1
1767651668.854879,2,right_wrist,0.0927,-0.547,-0.7174,12.6,63.56,-30.24,0.22833049671590372,-0.36711957849559873,-0.8548494020686846,0.2869161883503524,-138.00370724740117,-10.352942959541005,129.53430113536066,1
1767651668.9061859,1,left_wrist,0.1928,0.3806,-0.651,35.56,82.95,42.07,0.37601545019769217,0.6439173553725336,-0.6490193202379642,-0.15085338120347158,134.64616889251207,-17.08609537021165,-83.26904002195295,1
1767651668.9061859,2,right_wrist,0.1005,-0.5544,-0.7476,-25.27,74.83,-26.74,0.2515862004236412,-0.37003910201384865,-0.8553777670010488,0.26096804872911006,-139.36466389666134,-13.725216931730643,128.11008941981027,1
1767651668.9818501,1,left_wrist,0.0429,0.3655,-0.5632,20.51,74.2,38.78,0.4011368041964002,0.6412952509946737,-0.6495411132420476,-0.07698056624277802,137.31719145086728,-24.984631680536026,-80.83707510628304,1
1767651668.9818501,2,right_wrist,0.1889,-0.4226,-0.7198,-23.03,85.82,-36.89,0.28152222187132475,-0.3685853472386647,-0.8553373427952295,0.2308421764183955,-140.65775347845974,-18.14499902552536,126.84105968733765,1
1767651669.0575879,1,left_wrist,0.387,0.3924,-0.6378,10.57,94.5,37.24,0.42309010269277175,0.6352584226334512,-0.6449913967024784,-0.03778358977738045,137.4695797259523,-29.852855499690946,-79.02509501040909,1
1767651669.0575879,2,right_wrist,0.5026,-0.5017,-0.7666,-28.21,99.05,-36.68,0.35550898013382715,-0.36090448755369514,-0.8462974068206027,0.16474833873679592,-142.30544716174364,-28.869470143323557,123.76555035123646,1
1767651669.126815,1,left_wrist,0.5363,0.324,-0.6188,14.49,116.62,13.44,0.46276495242578986,0.6404985050968552,-0.6107153952572865,0.051351433970110466,136.89844755175795,-39.12515019042775,-71.2955013193136,1
1767651669.126815,2,right_wrist,0.4929,-0.3387,-0.4792,-5.67,99.47,-35.56,0.39657340850244516,-0.3535479477688574,-0.8358113093433831,0.13839376962450886,-141.66366911887906,-34.40669494745513,121.85747784355706,1
1767651669.179512,1,left_wrist,0.4817,0.3294,-0.4563,11.34,107.52,11.9,0.48450160240882056,0.6363405587257024,-0.5935677345563247,0.0894775674547466,135.229756899462,-43.55459519462715,-67.32835335502683,1
1767651669.179512,2,right_wrist,0.6437,-0.4402,-0.5846,-7.42,99.75,-25.97,0.4359264055665393,-0.34904232134296703,-0.8218406822441049,0.11276311387104493,-140.52366056979002,-39.62840570085159,119.24493346038183,1
1767651671.079752,1,left_wrist,-0.0151,0.5388,-0.7325,5.46,-44.31,-41.3,0.25914525104922914,0.8036440390199678,-0.5272292279122818,-0.09502283221059842,148.63330877840602,-6.922624173900289,-64.58773943175939,2
1767651671.079752,2,right_wrist,0.1718,-0.4939,-0.7188,22.4,-45.5,30.8,0.14458899292803912,-0.371746810194189,-0.8738598159946128,0.2779700599423661,-143.56258785780406,-2.6383748141870105,133.04089259056434,2
1767651671.162957,1,left_wrist,-0.0849,0.5524,-0.7242,-18.62,-48.86,-51.1,0.25172258445002677,0.8111504958882707,-0.5124640586642145,-0.12669333871759855,147.38688676190532,-3.007279073853689,-63.68734367963248,2
1767651671.162957,2,right_wrist,-0.0137,-0.5397,-0.792,24.01,-59.92,26.32,0.09979917564092734,-0.38125076919436046,-0.8664066311015102,0.30663907956004455,-142.51352643991677,3.4902929562178056,133.68214118509005,2
1767651671.236615,1,left_wrist,-0.0849,0.5524,-0.7242,-18.62,-48.86,-51.1,0.23710479927531583,0.8224774228195642,-0.4810880523421807,-0.18938450043841284,144.95300285400083,4.783586761101978,-62.160117897525566,2
1767651671.236615,2,right_wrist,-0.0024,-0.6837,-0.9272,23.31,-78.61,24.5,0.07421420127758895,-0.3776803925918313,-0.8633209254332964,0.32638436403940424,-141.39143999911883,6.799575046428812,135.1279553615713,2
1767651671.304988,1,left_wrist,-0.2411,0.59,-0.5812,-20.37,-32.62,-32.41,0.2354287182401934,0.8238294307741865,-0.4697571306077159,-0.21261849839857477,143.65639898195872,7.419558995423575,-61.82300551740177,2
1767651671.304988,2,right_wrist,-0.0849,-0.6964,-0.6861,25.41,-47.46,27.93,0.03157258346924042,-0.37774502867578225,-0.8465145455570404,0.37379805971161445,-137.57515391433233,13.235109613227845,137.06007259039993,2
1767651671.3769379,1,left_wrist,-0.3538,0.6124,-0.651,7.7,-23.31,-20.02,0.21571768802406524,0.8294668400259732,-0.4571305101198983,-0.2376601293620793,144.0806657573145,11.36392639923784,-61.413883450557535,2
1767651671.3769379,2,right_wrist,-0.3148,-0.7086,-0.7764,19.46,-41.23,40.25,0.008653879181799854,-0.3868958446716091,-0.8357399253586175,0.38958374313171895,-136.62519585808394,16.677949567593682,136.9899657474971,2
1767651671.4324448,1,left_wrist,-0.3806,0.6115,-0.6715,14.35,-19.46,-28.14,0.2032938423107766,0.8339487370692503,-0.44883541915791697,-0.24849121539495192,144.69705451196845,13.412900058992019,-60.86441224078522,2
1767651671.4324448,2,right_wrist,-0.2962,-0.6905,-0.7569,6.44,-23.87,33.46,-0.003849547377225311,-0.39527318881628654,-0.830566696511525,0.39230504691365736,-136.85976576009526,18.453199936189087,136.44835231960633,2
1767651671.509443,1,left_wrist,-0.3806,0.6115,-0.6715,14.35,-19.46,-28.14,0.19128083001279003,0.837937611804444,-0.440561763760956,-0.25918629420731026,145.2898883928177,15.415792914777693,-60.31214746135802,2
1767651671.509443,2,right_wrist,-0.3689,-0.6622,-0.7149,10.71,-22.82,27.86,-0.030068259794160987,-0.41054112484614513,-0.8150677434077316,0.4076965271120678,-136.13406854190677,22.567260034757766,135.7188256415078,2
1767651671.5599911,1,left_wrist,-0.3806,0.6115,-0.6715,14.35,-19.46,-28.14,0.17976753125797112,0.841436726513432,-0.4323727527929154,-0.2696695619124463,145.85512094935677,17.359522647120656,-59.761360895860534,2
1767651671.5599911,2,right_wrist,-0.4904,-0.7066,-0.6617,9.45,-20.58,28.14,-0.04318923334207125,-0.41723379211391864,-0.8062259059455352,0.4171935299400802,-135.51299732321004,24.694195613540636,135.50695081793538,2
1767651671.630769,1,left_wrist,-0.4685,0.5309,-0.6925,22.61,4.27,-7.35,0.1652930041964075,0.8473141282122878,-0.42483696644367713,-0.2724895279428386,147.29667039035328,18.742971146241402,-58.80210707775496,2
1767651671.630769,2,right_wrist,-0.4333,-0.6695,-0.6422,5.18,-23.73,7.0,-0.051617762614344156,-0.41441398254237605,-0.8021590504052539,0.4267757203836667,-134.48187958360003,25.883006227019866,136.36908121228117,2
1767651671.690679,1,left_wrist,-0.5041,0.5661,-0.6383,16.31,-4.48,3.64,0.15886286224518037,0.8465724844371286,-0.42736218898390343,-0.27466193587773136,147.7587502753877,19.223776483729274,-59.1750245491238,2
1767651671.690679,2,right_wrist,-0.4914,-0.6476,-0.6827,-1.26,-8.75,-2.24,-0.05824494251675218,-0.41403231255907524,-0.8024386452696107,0.42576635776688165,-134.8003236022072,26.489771726935153,136.60699183328023,2
1767651671.759062,1,left_wrist,-0.5085,0.6437,-0.8023,8.26,7.98,4.48,0.15828418117949802,0.8464317816511159,-0.4284571147005616,-0.27372222756240183,147.86696585566963,19.131564045400133,-59.25369188734989,2
1767651671.759062,2,right_wrist,-0.5309,-0.8018,-0.9062,-17.64,3.36,-37.59,-0.05614496439618822,-0.3998156479626494,-0.8162283217040791,0.41323905607444705,-136.00392744223154,24.96680446590241,138.02745467792494,2
1767651671.828097,1,left_wrist,-0.5085,0.6437,-0.8023,8.26,7.98,4.48,0.15714944924544444,0.8461366879165373,-0.4306544033595508,-0.27183366390223856,148.08146090126058,18.945139058066346,-59.41267357309709,2
1767651671.828097,2,right_wrist,-0.4821,-0.7725,-0.8081,-41.16,33.39,-65.52,-0.035783901170032086,-0.3802044858424143,-0.8368277368570078,0.39227974736039745,-137.6193292975976,20.988647321032083,139.34659837359598,2
1767651671.882884,1,left_wrist,-0.3777,0.6266,-0.7296,29.54,53.55,52.43,0.1648849994600908,0.8429795559650572,-0.4492614810723292,-0.24568786458166386,148.84230709643,15.430348047475045,-60.43652131363585,2
1767651671.882884,2,right_wrist,-0.2821,-0.8081,-0.7608,-34.93,71.33,-71.12,0.0009641891050721444,-0.3635728191393822,-0.8551290504340288,0.3695513261053299,-138.96060489183517,15.489907006044334,139.76083933544672,2
1767651671.968608,1,left_wrist,-0.3777,0.6266,-0.7296,29.54,53.55,52.43,0.17154513839429575,0.8391972264455037,-0.4669098853423402,-0.21980773323306566,149.7158182159757,12.048045087050195,-61.45258420667658,2
1767651671.968608,2,right_wrist,-0.0991,-0.7139,-0.8725,-21.07,74.9,-12.53,0.06675761957657976,-0.3522778504667248,-0.8745770070939831,0.32643344645048783,-141.53645851519312,6.5010364776403495,138.39112987117988,2
1767651672.029315,1,left_wrist,-0.0425,0.4934,-0.7462,61.88,82.88,47.95,0.16646556641567345,0.8381949672156177,-0.5044257227099334,-0.12358439384032202,156.1683513206959,2.248669187486371,-62.5536328679583,2
1767651672.029315,2,right_wrist,-0.0883,-0.4221,-0.8525,8.82,60.13,-35.42,0.09491113427196352,-0.3475579069993376,-0.877970220813772,0.3152200330525735,-141.65933257150022,3.006894967981117,137.85179370967194,2
1767651672.091433,1,left_wrist,-0.0425,0.4934,-0.7462,61.88,82.88,47.95,0.16798261586847935,0.8348703941393705,-0.5182948292743922,-0.07838198583210144,158.77224221760846,-2.4788984610412164,-63.200138096007166,2
1767651672.091433,2,right_wrist,-0.0171,-0.7779,-0.8789,2.38,57.4,-41.86,0.12640943180001318,-0.3378549064142141,-0.8803893348625729,0.3078787696871562,-141.1275461357212,-0.8332432362070399,137.7167376622749,2
1767651672.158355,1,left_wrist,-0.0107,0.5246,-0.5729,9.24,92.68,37.17,0.18979823886570177,0.829010651218697,-0.5243429942144114,-0.04221839773956035,158.77755257509673,-7.414106729839342,-63.23520103777072,2
1767651672.158355,2,right_wrist,0.0024,-0.5046,-0.7618,-16.38,79.66,-55.65,0.18479848079619457,-0.321257828819555,-0.8925933317678071,0.2567490467386581,-144.19036664718308,-9.493429506053273,137.33738417729123,2
1767651672.233406,1,left_wrist,0.0761,0.4651,-0.6769,41.37,111.23,28.98,0.21820101360016286,0.8204323415409488,-0.5262599277869006,0.04826571270812825,161.1536521921106,-17.99044600717905,-62.34579301431096,2
1767651672.233406,2,right_wrist,0.1767,-0.429,-0.7637,-20.02,95.48,-55.72,0.22462189965364576,-0.31121695131315047,-0.8952082428429509,0.226475635240023,-145.60402209537273,-15.141315721079568,136.9489888675196,2
1767651672.2887082,1,left_wrist,0.1757,0.2913,-0.6744,22.33,105.0,31.29,0.23466270188646896,0.8129040768122036,-0.5255100789157541,0.08921622724257668,161.77580066930284,-23.059304749658367,-62.01421073621638,2
1767651672.2887082,2,right_wrist,0.2821,-0.5402,-0.7442,-8.33,100.38,-51.1,0.27149788721540313,-0.30048071009170874,-0.8909907053855098,0.20527007335943134,-145.45418748853353,-21.127514808631304,136.0897622799177,2
1767651672.3583202,1,left_wrist,0.303,0.4021,-0.5895,23.66,121.73,27.51,0.25654064525150844,0.8028369006572668,-0.5200031407568115,0.13869586107748655,162.12342205125893,-29.307998829712794,-61.15269703462064,2
1767651672.3583202,2,right_wrist,0.5022,-0.327,-0.651,1.96,130.55,-34.93,0.3802373633620436,-0.2890389954196722,-0.8671809068223681,0.14097262667980323,-145.32205658691643,-35.308310140585064,131.78358406589214,2
1767651672.429424,1,left_wrist,0.5817,0.3382,-0.2879,13.44,113.54,26.11,0.3034497410510849,0.7732771745014828,-0.5064532244227684,0.2312267232021723,161.65319687953377,-41.68009249823688,-59.4096896589458,2
1767651672.429424,2,right_wrist,0.6285,-0.3318,-0.4333,-8.75,124.18,-30.52,0.43076610933440634,-0.2846404386852811,-0.8486063506560323,0.11527203190800492,-143.79709907450095,-41.71912557546125,128.71471425671345,2
1767651674.2807198,1,left_wrist,-0.0142,0.5797,-0.8047,-0.56,-45.22,-45.78,0.2509500985265058,0.9038527779121107,-0.34594645628800025,-0.01988097814174427,151.8426817371257,-7.914293334306048,-39.900579193288955,3
1767651674.2807198,2,right_wrist,0.2094,-0.5719,-0.8779,13.02,-59.01,27.09,0.11679803233391652,-0.3137279815238974,-0.8954955959947286,0.29329270499948046,-143.2188766068282,-1.441484145583755,140.90591907055594,3
1767651674.3343391,1,left_wrist,-0.0893,0.571,-0.8067,-4.69,-42.35,-42.07,0.246695997556201,0.9090463124518251,-0.3326002791570103,-0.04639979431170428,151.25496210461415,-4.573804531330294,-39.02035108631053,3
1767651674.3343391,2,right_wrist,0.0654,-0.5988,-0.8423,10.57,-51.31,37.03,0.09628807360863444,-0.3200032616309904,-0.8926057500765862,0.3026243452805491,-142.9855547400946,1.248400707210592,140.97191880948722,3
1767651674.4092648,1,left_wrist,0.0444,0.407,-0.8028,-22.54,-51.73,-45.01,0.24293223360200622,0.9127257391270162,-0.31939774380618036,-0.0768162499976663,150.48930594831592,-0.8571583569913772,-38.34803881428394,3
1767651674.4092648,2,right_wrist,-0.0703,-0.6071,-0.7823,0.35,-64.4,39.41,0.045486810968600175,-0.3311060127274319,-0.8838544500341987,0.3272629974781639,-142.09442748302402,7.834380657769587,141.62057076628955,3
1767651674.465997,1,left_wrist,-0.0859,0.6359,-0.6427,6.09,-61.11,-35.49,0.23357947197235723,0.9150432029008957,-0.3110456561397417,-0.1067106690756947,150.36503234530983,2.8649504833435184,-38.30635184811948,3
1767651674.465997,2,right_wrist,-0.1366,-0.5719,-0.8154,35.7,-66.99,45.92,0.017076119822478024,-0.33900897123311835,-0.8741156416285086,0.3474236155123193,-140.7665844049408,11.87085638089567,141.84852725395942,3
1767651674.532714,1,left_wrist,-0.1127,0.5022,-0.7413,-13.65,-66.64,-35.77,0.22822326410039556,0.9116227396819646,-0.29288763503660903,-0.1762808993078158,148.07776713971302,10.819511316995749,-38.72548514638143,3
1767651674.532714,2,right_wrist,-0.1244,-0.5773,-0.7491,21.77,-75.39,49.7,-0.012355046276206929,-0.3451989159506707,-0.8648601143464313,0.3642829173467684,-139.7520572718891,15.83517438426527,142.31685174340834,3
1767651674.589646,1,left_wrist,-0.1127,0.5022,-0.7413,-13.65,-66.64,-35.77,0.22596906499527683,0.9085476252785383,-0.2853081889532917,-0.20513027953493854,147.03851565516717,14.11090535318258,-39.06139781853241,3
1767651674.589646,2,right_wrist,-0.3436,-0.649,-0.6486,13.09,-57.82,32.34,-0.039358244553694875,-0.3482861696036581,-0.8556147711624947,0.38088191873205934,-138.54221420963705,19.430476530546883,143.11579374866372,3
1767651674.656498,1,left_wrist,-0.3967,0.488,-0.5475,12.32,-25.55,-33.67,0.21525480474513245,0.9108009635411025,-0.27441685531556637,-0.2209125695053354,147.62598194483718,16.51555671950962,-38.35901849301253,3
1767651674.656498,2,right_wrist,-0.3611,-0.7569,-0.5119,-15.47,-28.28,28.84,-0.07867508493597287,-0.36391142942756316,-0.8438560643785631,0.38637500586066326,-139.19728560592316,24.455945622195294,142.5604077866971,3
1767651674.70737,1,left_wrist,-0.3967,0.488,-0.5475,12.32,-25.55,-33.67,0.2048171495908247,0.9124905970341214,-0.2636000579577128,-0.23648647953422783,148.20987296886415,18.881005219008063,-37.64764793410733,3
1767651674.70737,2,right_wrist,-0.3611,-0.7569,-0.5119,-15.47,-28.28,28.84,-0.09505882730116773,-0.36789429551600045,-0.8399556015331531,0.38741733845039955,-139.56713888780928,26.40719439616254,142.56978833599803,3
1767651674.7619991,1,left_wrist,-0.408,0.7374,-0.6227,4.76,-38.15,-20.09,0.19923754549482406,0.9099158181422434,-0.2593291742829218,-0.2551587422085864,147.946633523511,21.162220258672836,-37.95847955830111,3
1767651674.7619991,2,right_wrist,-0.3611,-0.7569,-0.5119,-15.47,-28.28,28.84,-0.11101820094235872,-0.37153641876131954,-0.8360111543121008,0.38822802379437304,-139.942402605778,28.301197284316103,142.58019265262286,3
1767651674.832051,1,left_wrist,-0.7135,0.8306,-0.996,45.85,13.72,-2.66,0.17656617325409726,0.9147607421585895,-0.2594608015392186,-0.2543958795509409,150.61949282816335,21.950086184170342,-37.491614962862926,3
1767651674.832051,2,right_wrist,-0.3611,-0.7569,-0.5119,-15.47,-28.28,28.84,-0.1266027698367628,-0.3748774348244221,-0.8320330038319602,0.38879265433323973,-140.32834904761498,30.14397176321173,142.58847322251341,3
1767651674.889635,1,left_wrist,-0.6817,0.5724,-0.8174,-4.34,32.2,23.73,0.18450491398782193,0.914432043219461,-0.2649578740961943,-0.24406822817043106,150.13167177927735,20.40143718331385,-37.81347291622745,3
1767651674.889635,2,right_wrist,-0.3611,-0.7569,-0.5119,-15.47,-28.28,28.84,-0.14186241407287764,-0.3779537829354997,-0.82802331528257,0.3891058760628298,-140.72922263650125,31.94188704232883,142.5915019190327,3
1767651674.957603,1,left_wrist,-0.8281,0.8682,-0.8213,14.07,9.45,49.49,0.18647640398789173,0.9096611845633329,-0.2848270761147644,-0.23794246524421156,149.84336698826854,19.066599808265924,-39.95329585873142,3
1767651674.957603,2,right_wrist,-0.6315,-0.6915,-0.9531,7.91,27.51,-41.65,-0.13545292006666565,-0.37076300981597005,-0.8329624534007477,0.3877639078385503,-140.5333715571421,30.87664345126533,143.32584057361117,3
1767651675.0302138,1,left_wrist,-0.1913,0.6168,-0.7593,79.31,104.37,94.99,0.1767935859992405,0.9065326296893842,-0.35472088008683295,-0.14531247877729453,154.6768212011442,7.934228635055207,-44.525404098090334,3
1767651675.0302138,2,right_wrist,-0.121,-0.7257,-0.8423,-11.48,107.66,-63.21,-0.08284452774599331,-0.3634423728311971,-0.8516210884921928,0.3684941620823124,-141.5530593006669,24.13933696175212,142.30605321800851,3
1767651675.081168,1,left_wrist,-0.1186,0.49,-0.812,44.03,105.49,84.21,0.1849018202849816,0.9008481159946549,-0.38206856154806945,-0.09114605334719836,156.24097252907535,1.3137443805880762,-46.242007041234004,3
1767651675.081168,2,right_wrist,-0.1684,-0.5949,-0.7535,-4.34,97.3,-47.67,-0.03525234586211662,-0.3595484396664136,-0.8636724944076144,0.3514996643645544,-142.21271731618904,18.279653032265283,141.09940218028902,3
1767651675.156406,1,left_wrist,-0.0249,0.5549,-0.895,-1.47,63.84,52.78,0.20207489406064513,0.8930041498038871,-0.3970600995619469,-0.06366005780136026,155.6749982806411,-2.68095180868384,-47.36521867557678,3
1767651675.156406,2,right_wrist,-0.2152,-0.5812,-0.7754,-33.32,69.02,-30.8,0.03357115122191466,-0.35730851156369625,-0.8765913072617525,0.32061080050881435,-143.50421932473495,9.802795470124366,138.88639392314,3
1767651675.2074292,1,left_wrist,-0.0249,0.5549,-0.895,-1.47,63.84,52.78,0.21780649246429068,0.8844594384714454,-0.4109333310603846,-0.037757528557822086,155.2310560052994,-6.443183055329246,-48.42438199959502,3
1767651675.2074292,2,right_wrist,0.0312,-0.7471,-0.7793,-4.83,81.62,-36.47,0.07338603697663312,-0.3530323329875883,-0.8810222958998033,0.30623908236808084,-143.58220695204545,4.9861611508086385,137.96844493415713,3
1767651675.283524,1,left_wrist,0.2294,0.4826,-0.7862,21.42,119.56,25.48,0.24275906333096353,0.8771942850423726,-0.40906734555430896,0.06528499261565028,156.90805798643296,-18.248856720619955,-46.24416290834735,3
1767651675.283524,2,right_wrist,0.0888,-0.3528,-0.7281,-22.19,114.31,-54.81,0.1230327064662572,-0.34684428651480925,-0.8886130770183909,0.27373124301681,-145.1056109583478,-1.6487823041401655,136.83829392524405,3
1767651675.3550751,1,left_wrist,0.2577,0.327,-0.5627,30.94,119.21,26.81,0.2551719317070591,0.8699874604200567,-0.4045727220992144,0.11970804698924868,157.5738525069583,-24.504216398234295,-44.94979106230958,3
1767651675.3550751,2,right_wrist,0.4641,-0.3753,-0.4929,15.4,116.41,-59.5,0.23540497295030735,-0.32236144585741633,-0.8889981322495183,0.22438787354010234,-145.06638128152176,-15.89534993351672,135.10673222815157,3
1767651675.409825,1,left_wrist,0.3797,0.488,-0.7452,17.99,120.89,25.76,0.27183563143216666,0.8595473802737572,-0.3981333802755049,0.1696275392110512,157.31059328293745,-30.534659679965216,-43.43698207262384,3
1767651675.409825,2,right_wrist,0.5436,-0.2913,-0.5095,-37.24,132.44,-51.17,0.2894401000992194,-0.31715242331670845,-0.8843345349016378,0.18327902012831968,-146.43578343406813,-23.30770327713311,133.42241863471233,3
1767651677.1611378,1,left_wrist,0.0112,0.4387,-0.7588,9.73,-70.14,-30.1,0.2225471584581069,0.9414346434734825,-0.2530207225942978,0.01241322955715401,155.37888079225965,-7.815903895629779,-28.378580079985635,4
1767651677.1611378,2,right_wrist,0.1391,-0.5788,-0.8867,1.61,-57.26,22.89,0.059100310248593205,-0.31178248134772213,-0.8940429086521172,0.3162058113666467,-142.78605343669594,5.249817017598851,143.31784407855397,4
1767651677.2284281,1,left_wrist,-0.0937,0.5851,-0.7056,-19.88,-70.98,-28.49,0.2157772715951167,0.9446366104228945,-0.2398932562661921,-0.059607624593797266,154.1332824314708,0.5207148953011088,-28.617997741758973,4
1767651677.2284281,2,right_wrist,-0.0395,-0.6315,-0.8062,22.12,-60.27,27.09,0.039516834764393514,-0.3117876015671108,-0.8888268935732837,0.33348712799761676,-141.43474490742446,7.915184908322784,144.11277221102227,4
1767651677.2859678,1,left_wrist,-0.1342,0.6886,-0.7515,-31.71,-54.18,-48.02,0.22495014756077228,0.9438640244510048,-0.223629125220579,-0.09223962712748916,152.14966046315732,4.215760135640837,-27.70423646384043,4
1767651677.2859678,2,right_wrist,-0.0073,-0.6764,-0.8355,23.45,-45.22,38.15,0.02418714855493556,-0.3180042301891162,-0.8814946032592089,0.34821768457604074,-140.2382022318935,10.301484771663773,144.05954824882465,4
1767651677.352972,1,left_wrist,-0.1967,0.571,-0.6671,-41.65,-46.83,-48.58,0.23808445756821045,0.9411593228233515,-0.20569251361083124,-0.12339169328443231,149.76985070006808,7.719191002250387,-26.744455895031283,4
1767651677.352972,2,right_wrist,-0.1171,-0.7569,-0.7959,11.76,-51.1,42.84,-0.01022603469691644,-0.328905325139818,-0.8655335055725772,0.3775823963591173,-137.849094790578,15.431117010382126,144.36367706293115,4
1767651677.41186,1,left_wrist,-0.2718,0.6398,-0.6651,-13.51,-33.74,-34.44,0.24123626646579424,0.939838107440037,-0.19363351550412763,-0.14496709012285047,148.80455504794128,10.31549787265448,-26.170232829824133,4
1767651677.41186,2,right_wrist,-0.1947,-0.6695,-0.8311,10.01,-66.57,40.81,-0.037715180706013034,-0.33263933132276213,-0.8589762024678825,0.3874126017507868,-137.41955556966238,18.81601125726314,145.05083574522243,4
1767651677.480893,1,left_wrist,-0.3338,0.5666,-0.591,-7.0,-19.53,-33.53,0.23704596624396637,0.9390376157424153,-0.1711698482458275,-0.1808824180504145,148.33412708465366,14.984667111171031,-24.933107707012645,4
1767651677.480893,2,right_wrist,-0.1947,-0.6695,-0.8311,10.01,-66.57,40.81,-0.06458271119648307,-0.33588878560568475,-0.8515508780258055,0.3973271942018688,-136.86439323813204,22.14219073127262,145.79241863849714,4
1767651677.532368,1,left_wrist,-0.4324,0.6798,-0.6588,-14.28,-34.23,-26.53,0.2404530402105092,0.935533605596729,-0.1621454334846317,-0.20166325062536256,147.31181488805532,17.418493013353668,-24.80982370089733,4
1767651677.532368,2,right_wrist,-0.2645,-0.7544,-0.7398,16.66,-40.32,38.78,-0.0792690732828673,-0.34191169341802563,-0.8425646009279522,0.4085311508171858,-135.86372285390556,24.389767617843123,145.83984752270325,4
1767651677.611402,1,left_wrist,-0.5656,0.8072,-0.7447,8.82,-8.75,-5.32,0.23790401589232563,0.9349403852937146,-0.16118339744558088,-0.20810590466645743,147.38996450975316,18.20639064065398,-24.930233791752524,4
1767651677.611402,2,right_wrist,-0.2645,-0.7544,-0.7398,16.66,-40.32,38.78,-0.1087287154374847,-0.35364724783897056,-0.8242374992836096,0.4286539808632807,-134.03538593383797,28.8436522134395,146.00429499614813,4
1767651677.6706429,1,left_wrist,-0.5656,0.8072,-0.7447,8.82,-8.75,-5.32,0.2354448191037243,0.934279283396975,-0.16030035869528036,-0.21445687859011167,147.45614512086618,18.98020439437888,-25.058524272428787,4
1767651677.6706429,2,right_wrist,-0.2645,-0.7544,-0.7398,16.66,-40.32,38.78,-0.1235390711725234,-0.35934866245193786,-0.8147268007472042,0.4379804525684441,-133.15219052641865,31.069441208826973,146.13269697192825,4
1767651677.73276,1,left_wrist,-0.4817,0.8086,-0.7515,12.95,2.03,37.8,0.23459022056998516,0.9310515414659651,-0.17595969267280775,-0.21713738070923463,147.17494327807813,18.770323939451288,-26.978690255709243,4
1767651677.73276,2,right_wrist,-0.4978,-0.8467,-0.7764,-3.99,-16.94,7.28,-0.12722122699019328,-0.35690975616105997,-0.8150141731357892,0.43838576955456515,-133.0781198582257,31.352546294026414,146.58967924814507,4
1767651677.806314,1,left_wrist,-0.4817,0.8086,-0.7515,12.95,2.03,37.8,0.2358898051861539,0.928302617196926,-0.19221931276904686,-0.21368665497211398,146.88523106547348,17.821141526839387,-28.734839338277123,4
1767651677.806314,2,right_wrist,-0.3026,-0.6681,-0.7442,-27.79,66.08,-63.14,-0.08400389085369622,-0.3401304701355822,-0.8371690131092887,0.4200031584362287,-134.41767097328665,25.236945381867162,146.52478176238725,4
1767651677.877559,1,left_wrist,-0.3533,0.6715,-0.7501,51.8,64.75,58.59,0.22087949465334425,0.9355446387291912,-0.23485844386653285,-0.1442566779436604,150.80214712977997,9.56499358393992,-30.68125549220956,4
1767651677.877559,2,right_wrist,-0.2464,-0.6037,-0.8867,-13.51,64.82,-74.48,-0.046334141789247434,-0.3239110251281633,-0.8540275906104143,0.4044399455806101,-135.33503762031435,19.94673347249552,146.72245039484432,4
1767651677.929417,1,left_wrist,-0.3001,0.6808,-0.73,86.87,87.29,69.86,0.20104192556485634,0.939725844461568,-0.25958272814666034,-0.09546878371543634,154.61988155449257,4.304379248950966,-31.853436986777606,4
1767651677.929417,2,right_wrist,-0.0913,-0.7266,-0.8057,-20.51,69.58,-59.01,-0.00872330092269152,-0.3121632298103096,-0.8680159938845183,0.3860391901557147,-136.55368726815487,14.842237242140513,146.3813004086616,4
1767651677.987515,1,left_wrist,-0.1152,0.5592,-0.751,5.88,68.53,19.88,0.2107137831554249,0.9395334010341634,-0.26152300215847174,-0.06695079739275978,154.46794355595713,0.8933930509324608,-31.31194775283126,4
1767651677.987515,2,right_wrist,-0.1137,-0.5675,-0.8359,4.41,56.98,-37.31,0.02163866475636778,-0.3072804546874861,-0.8738352233354532,0.3761947538348877,-136.86911059884721,11.149947594312364,145.670553035142,4
1767651678.061891,1,left_wrist,-0.1152,0.5592,-0.751,5.88,68.53,19.88,0.21960243279741948,0.9387104990297246,-0.26278973546460077,-0.03922914038397388,154.32395095049915,-2.393879169476803,-30.733300766917022,4
1767651678.061891,2,right_wrist,0.0127,-0.4724,-0.8018,-12.25,77.63,-36.19,0.09132398434241858,-0.3040757217941764,-0.8820430722424616,0.34813489340808107,-137.89138024074038,2.901286361299235,143.07479507480969,4
1767651678.13204,1,left_wrist,0.0288,0.4197,-0.6739,5.32,90.86,48.86,0.2351835163608925,0.9299066368767908,-0.2802021856212174,0.0380669869797321,154.85722591556438,-11.688769705286626,-30.92227105150375,4
1767651678.13204,2,right_wrist,0.143,-0.6666,-0.7759,-5.46,80.22,-41.79,0.13190886294585244,-0.2985394060701275,-0.8852417805451641,0.3313929161537031,-138.24785616556872,-2.044448411886464,141.9478258627633,4
1767651678.183975,1,left_wrist,0.2411,0.4885,-0.4958,35.0,94.15,39.41,0.23531181042797245,0.9251542139956854,-0.2853829575766386,0.08529126405409787,156.14923633112633,-16.98510608868945,-30.674433337505615,4
1767651678.183975,2,right_wrist,0.143,-0.6666,-0.7759,-5.46,80.22,-41.79,0.17211264245571756,-0.2924301340582456,-0.8867858087518353,0.31380373547480295,-138.53680413793467,-6.991538440726443,140.84949215922072,4
1767651678.2595909,1,left_wrist,0.4821,0.3948,-0.5251,42.28,111.79,32.9,0.23308563260489343,0.9187725556749686,-0.28533566077188266,0.1418155122105356,157.79768417641836,-23.17916733055372,-29.89696331648337,4
1767651678.2595909,2,right_wrist,0.4548,-0.3762,-0.4534,-30.03,115.08,-44.03,0.276322636699408,-0.28600268196888035,-0.8813005696404695,0.2552598133382504,-139.7028348399313,-19.940042644535076,136.66035488090614,4
1767651678.331039,1,left_wrist,0.5241,0.3719,-0.4412,8.26,95.48,28.63,0.25115565473873847,0.8955526738891065,-0.28610461865209735,0.23032670832703125,157.4972942351348,-33.79706068502816,-28.517470538406616,4
1767651678.331039,2,right_wrist,0.6686,-0.5056,-0.5085,-12.53,119.35,-42.28,0.3285529984629949,-0.2825394567089331,-0.871690676233235,0.22886622199800855,-139.2840348577473,-26.325216076612055,134.16307079400366,4
1767651680.086297,1,left_wrist,-0.0127,0.5788,-0.6193,19.25,-27.51,-38.99,0.24653676976685526,0.9579029537861323,-0.14188176697752114,0.03887308168982669,152.2137879789013,-8.304355639723891,-14.79300966077579,5
1767651680.086297,2,right_wrist,0.1835,-0.5007,-0.7144,2.73,-45.92,37.1,0.11391880012265485,-0.2631570758233402,-0.9039929191885574,0.3171240490402354,-140.66922311981384,-2.238353535414084,146.73888024961494,5
1767651680.160463,1,left_wrist,-0.1054,0.5851,-0.4987,-17.43,-62.51,-36.54,0.2532877277956377,0.958239336514698,-0.1326554635860054,0.005022836327849053,150.95326446790503,-4.406156408593295,-14.621530605397647,5
1767651680.160463,2,right_wrist,-0.0351,-0.5124,-0.7584,20.93,-65.03,19.95,0.06604005587635296,-0.26854353198596836,-0.9005796345574211,0.33537949291626507,-140.1528750532487,3.507507682927355,148.06360413052587,5
1767651680.2311811,1,left_wrist,-0.1884,0.612,-0.6676,-43.54,-66.57,-42.21,0.27623751662073953,0.952219334296192,-0.11183670093827736,-0.06681112277881626,147.16757443211404,3.7527314938115595,-14.50323081690246,5
1767651680.2311811,2,right_wrist,-0.0351,-0.5124,-0.7584,20.93,-65.03,19.95,0.039867887984005895,-0.2663704220328944,-0.8981654568155142,0.3474998733195323,-139.48380225335802,6.517775565500418,149.3700956750708,5
1767651680.287555,1,left_wrist,-0.2333,0.6383,-0.7139,-19.18,-19.39,-33.95,0.28446413806886406,0.949962661039258,-0.09852343005744056,-0.08333204973878192,145.95690224910288,5.8700120191806695,-13.64077265108298,5
1767651680.287555,2,right_wrist,-0.1235,-0.6588,-0.8408,31.99,-62.44,30.38,0.013463120026177413,-0.268766294369711,-0.8917777587120534,0.3637524604403953,-138.2503544941633,9.876007917451814,150.2305113222006,5
1767651680.35916,1,left_wrist,-0.2333,0.6383,-0.7139,-19.18,-19.39,-33.95,0.29267610785226794,0.9471719862190416,-0.08523625596511358,-0.09970308462315945,144.75838463596926,7.988752690588855,-12.825499551798293,5
1767651680.35916,2,right_wrist,-0.3001,-0.7993,-0.6988,36.68,-38.57,62.02,-0.03428934328265892,-0.29282304491558353,-0.862469898599329,0.4113691521172597,-133.71274311777773,17.461434433581115,150.00475778812572,5
1767651680.415446,1,left_wrist,-0.2333,0.6383,-0.7139,-19.18,-19.39,-33.95,0.30093571486685067,0.9438388558450086,-0.07202575866593636,-0.11583695353106849,143.56184098207342,10.09684936489644,-12.05882818798846,5
1767651680.415446,2,right_wrist,-0.3001,-0.7993,-0.6988,36.68,-38.57,62.02,-0.05239155570050566,-0.30792877093087967,-0.8461647756480157,0.43178718065364324,-131.6690868240767,20.7678999791863,149.40663692773276,5
1767651680.478365,1,left_wrist,-0.2333,0.6383,-0.7139,-19.18,-19.39,-33.95,0.31810393822500116,0.9355297242120704,-0.04630374135917484,-0.1464581275913862,141.11046713698983,14.156604223067673,-10.687178442989373,5
1767651680.478365,2,right_wrist,-0.2269,-0.9638,-0.6495,23.59,-29.82,27.3,-0.061755469227920336,-0.3108967671860123,-0.8371655988000198,0.4457389621286544,-130.047198661058,22.36817102722422,149.77712842724537,5
1767651680.532385,1,left_wrist,-0.242,0.7096,-0.5841,1.68,-26.25,-33.6,0.3182317050957533,0.9332500575537135,-0.03652722635289473,-0.16259973457175245,140.8650492052511,16.274778683973413,-10.301787650849718,5
1767651680.532385,2,right_wrist,-0.2269,-0.9638,-0.6495,23.59,-29.82,27.3,-0.07072440180531886,-0.3135468784258578,-0.8282875274648486,0.4589402857288167,-128.46452834919887,23.888549608681757,150.19301355942162,5
1767651680.587563,1,left_wrist,-0.242,0.7096,-0.5841,1.68,-26.25,-33.6,0.31838634860698295,0.9306932453431496,-0.027130613185275078,-0.17805658067462643,140.62290691692434,18.309874645536492,-9.940287186751814,5
1767651680.587563,2,right_wrist,-0.2269,-0.9638,-0.6495,23.59,-29.82,27.3,-0.07946662992247254,-0.31597745897335294,-0.8195265978133652,0.47140158636343027,-126.9260194820149,25.350502332790864,150.64728824019463,5
1767651680.662252,1,left_wrist,-0.242,0.7096,-0.5841,1.68,-26.25,-33.6,0.3184912848224068,0.9279313143872815,-0.018109341864333425,-0.1928181241712136,140.39373077305436,20.26169901358334,-9.5988250107852,5
1767651680.662252,2,right_wrist,-0.4924,-0.8008,-0.8174,-25.2,37.8,-59.5,-0.04877244215753556,-0.289957058858838,-0.846825542033509,0.44320723624911146,-129.82499354194397,19.85406725224571,151.5653653524826,5
1767651680.7339468,1,left_wrist,-0.242,0.7096,-0.5841,1.68,-26.25,-33.6,0.31825693773087055,0.9220170489780879,-0.0010570272179222166,-0.2204449266219744,140.01069335883645,23.943472460534814,-8.955112155705292,5
1767651680.7339468,2,right_wrist,-0.3274,-0.795,-0.5334,-56.91,94.5,-82.67,-0.0038225670863889878,-0.2747495999394841,-0.8675880492590033,0.4144743925707844,-132.46979458543558,13.555442612406793,150.84721120834655,5
1767651680.784544,1,left_wrist,-0.242,0.7096,-0.5841,1.68,-26.25,-33.6,0.31781706574806046,0.9189297749022474,0.007071767455623983,-0.23347456311652354,139.86889636020686,25.69551267845737,-8.642415465433416,5
1767651680.784544,2,right_wrist,-0.0239,-0.6852,-0.8657,-39.83,61.95,-53.62,0.027306994094819608,-0.2645750537324706,-0.8822295200338169,0.38849123927942947,-134.8659034670897,9.055325071640105,150.38244137053442,5
1767651680.857322,1,left_wrist,-0.242,0.7096,-0.5841,1.68,-26.25,-33.6,0.3171331166804228,0.915771029671557,0.015000654446437263,-0.24609954872985082,139.76358043189344,27.403633296118752,-8.330058946324872,5
1767651680.857322,2,right_wrist,-0.0049,-0.6364,-0.7408,8.33,55.86,-48.79,0.08853564378678411,-0.2418449091480581,-0.8917727843196864,0.37204002586434304,-135.04543515679234,1.2631658592792563,150.17583648693042,5
1767651680.939682,1,left_wrist,-0.242,0.7096,-0.5841,1.68,-26.25,-33.6,0.31504358437224006,0.9092265834311826,0.030410582406665453,-0.27042514011392754,139.6611502554272,30.724914657691695,-7.694123143168546,5
1767651680.939682,2,right_wrist,0.0093,-0.7061,-0.7598,2.45,67.27,-43.82,0.12373761582440611,-0.2347604074570929,-0.8943060671193025,0.3602682498282039,-135.2967277234254,-2.9902006459861603,149.3530331800987,5
1767651681.007013,1,left_wrist,-0.242,0.7096,-0.5841,1.68,-26.25,-33.6,0.31366271131912893,0.9058252748214767,0.03794721412058178,-0.2822344485760302,139.66149907910946,32.35174101639056,-7.365937869382014,5
1767651681.007013,2,right_wrist,0.1698,-0.5729,-0.73,15.19,68.6,-59.85,0.19834257084011164,-0.20883016829392362,-0.8965967768301031,0.33639917535680286,-135.37018083296712,-12.425267901824352,148.6610736366959,5
1767651681.080387,1,left_wrist,-0.242,0.7096,-0.5841,1.68,-26.25,-33.6,0.31030840910510915,0.8987205185090703,0.052774966349038895,-0.3053275679926426,139.75828141040964,35.560433516507196,-6.680115056370315,5
1767651681.080387,2,right_wrist,0.304,-0.6808,-0.6583,-18.76,84.49,-62.51,0.24289782737800647,-0.19634861764102746,-0.8961790816749112,0.3151363504482061,-135.98739315420644,-18.15608621890064,147.89444371328688,5
1767651681.154177,1,left_wrist,-0.242,0.7096,-0.5841,1.68,-26.25,-33.6,0.30836599305230483,0.8950013779210602,0.06008924921983085,-0.3166579068592265,139.8525945204919,37.14810995206683,-6.319268073626364,5
1767651681.154177,2,right_wrist,0.4953,-0.2987,-0.5915,-23.52,122.5,-62.3,0.3435119989194339,-0.18402027905975954,-0.8873807943261884,0.2463561839170397,-138.74543958152898,-31.26404668262403,144.54372782575433,5
1767651681.211082,1,left_wrist,-0.242,0.7096,-0.5841,1.68,-26.25,-33.6,0.30626522549642615,0.8911622744501398,0.06734772189224815,-0.3278653635326568,139.97670715881674,38.72734228780131,-5.944323292966532,5
1767651681.211082,2,right_wrist,0.529,-0.4665,-0.5514,-23.1,135.73,-51.45,0.4024760485064395,-0.17975474282069034,-0.8712559066652747,0.2159037005541586,-138.20940795216248,-38.58682272350598,141.4606836982791,5
1767651683.029162,1,left_wrist,-0.242,0.7096,-0.5841,1.68,-26.25,-33.6,0.16809923759428386,0.6496026379127747,0.3066450786150504,-0.675076184514129,-99.29863800576246,78.56670482112193,120.13514385733932,6
1767651683.029162,2,right_wrist,0.1537,-0.6354,-0.7149,7.21,-57.96,33.11,0.11512544945964495,-0.22940563939305317,-0.905716042555053,0.3373390486732786,-138.32923264993337,-3.0821068325749215,150.4001339478275,6
1767651683.0801852,1,left_wrist,-0.242,0.7096,-0.5841,1.68,-26.25,-33.6,0.16333660997669075,0.6404018863487791,0.31222630498060805,-0.6824377702621715,-94.00767622560853,77.4389530909797,125.53950412135116,6
1767651683.0801852,2,right_wrist,-0.0712,-0.6354,-0.7237,18.2,-68.04,26.32,0.08156070922893832,-0.23048231941179478,-0.9029510839222187,0.3534191437830196,-137.4744049554397,0.89517218362338,151.70986559791044,6
1767651683.1351051,1,left_wrist,-0.242,0.7096,-0.5841,1.68,-26.25,-33.6,0.1585370045911699,0.6310690126751004,0.3177517692971954,-0.6896750919998744,-89.62201228976073,76.21963956163847,130.03877972915362,6
1767651683.1351051,2,right_wrist,-0.0712,-0.6354,-0.7237,18.2,-68.04,26.32,0.04795753270269891,-0.23133623991180485,-0.8994762549475666,0.3675950026129812,-136.69457275338706,4.807182862634301,153.0627534431393,6
1767651683.207295,1,left_wrist,-0.242,0.7096,-0.5841,1.68,-26.25,-33.6,0.15370129973980742,0.6216047782560267,0.32322075708423775,-0.6967867337266562,-85.97004949177324,74.93042505044728,133.80466502434894,6
1767651683.207295,2,right_wrist,-0.1801,-0.7964,-0.6251,24.85,-81.9,47.25,-0.018513997332065525,-0.2347135872839511,-0.8859198823584564,0.3996407460320657,-134.1892224000998,12.732884135280921,155.72046201262927,6
1767651683.261996,1,left_wrist,-0.242,0.7096,-0.5841,1.68,-26.25,-33.6,0.14883034892611427,0.6120099258170315,0.3286325610992252,-0.70377128225392,-82.90720685971887,73.58722900680843,136.98183876975534,6
1767651683.261996,2,right_wrist,-0.2386,-0.7247,-0.7222,13.72,-40.81,54.11,-0.044785357798975786,-0.24993467200040967,-0.8781980517984294,0.4053333360042181,-134.0652045894566,16.336287770678595,155.18943656208774,6
1767651683.328831,1,left_wrist,-0.242,0.7096,-0.5841,1.68,-26.25,-33.6,0.13898599908560744,0.592431222962396,0.33928182610990426,-0.7173534558284249,-78.10834222607747,70.78252399104485,142.01098543274873,6
1767651683.328831,2,right_wrist,-0.3026,-0.6764,-0.734,5.95,-36.19,50.75,-0.06814759917612995,-0.2640919096927743,-0.8718767580333803,0.4067459732591776,-134.42224590349647,19.49163647738861,154.55149790309542,6
1767651683.381332,1,left_wrist,-0.242,0.7096,-0.5841,1.68,-26.25,-33.6,0.13401418195811005,0.5824487318156638,0.34451791014040706,-0.72394826019054,-76.20894675590607,69.33601995937553,144.02653119440248,6
1767651683.381332,2,right_wrist,-0.4451,-0.6617,-0.6949,-19.04,-27.23,35.98,-0.09153826042011191,-0.27426025960594463,-0.8694119734171052,0.4006555595010687,-135.68878868743153,22.2678358686397,154.14724384300868,6
1767651683.454387,1,left_wrist,-0.242,0.7096,-0.5841,1.68,-26.25,-33.6,0.12901028177474957,0.5723383331981129,0.34969405643293955,-0.7304103274488126,-74.56284388087255,67.86701956459986,145.7895923979915,6
1767651683.454387,2,right_wrist,-0.4519,-0.6549,-0.7544,-12.53,-17.29,27.79,-0.12696992814695396,-0.29162257656640295,-0.8654676004618035,0.3870410091114608,-138.2721318364469,26.456389706668677,152.9964890470669,6
1767651683.528115,1,left_wrist,-0.242,0.7096,-0.5841,1.68,-26.25,-33.6,0.11890910771331867,0.5517361409834098,0.35986386350797217,-0.7429305853016639,-71.86305688441068,64.87525223863139,148.726136742407,6
1767651683.528115,2,right_wrist,-0.4865,-0.751,-0.6998,-1.89,-14.63,19.74,-0.13476363073661324,-0.2950670588607986,-0.8614814901994269,0.3906710082021683,-137.96492955192434,27.5641235783257,152.9540374663227,6
1767651683.587004,1,left_wrist,-0.242,0.7096,-0.5841,1.68,-26.25,-33.6,0.11381320198560645,0.541245399503272,0.36485620544381453,-0.7489859290530552,-70.74651565609247,63.35742639134545,149.96269109233984,6
1767651683.587004,2,right_wrist,-0.466,-0.6144,-0.7715,1.26,-4.9,14.21,-0.13715348294286808,-0.29995004413666543,-0.8608044403990711,0.3876010945911984,-138.52857212015638,27.946479258990138,152.34100458689252,6
1767651683.657483,1,left_wrist,-0.242,0.7096,-0.5841,1.68,-26.25,-33.6,0.10868794737858388,0.5306288450387879,0.3697859710382868,-0.7549028378080874,-69.75381275258552,61.827359175605764,151.0766440815767,6
1767651683.657483,2,right_wrist,-0.5026,-0.7735,-0.6671,-20.93,3.71,-26.46,-0.13444632911332788,-0.29244481533169625,-0.8665113793410847,0.3815209614765244,-139.1092653325943,27.138707189045448,152.984319377171,6
1767651683.714068,1,left_wrist,-0.242,0.7096,-0.5841,1.68,-26.25,-33.6,0.10353395334187322,0.5198868696622897,0.3746525158751737,-0.7606798640732848,-68.8667609160381,60.28635068314418,152.0862974794211,6
1767651683.714068,2,right_wrist,-0.5573,-0.853,-0.8072,2.1,29.75,-26.81,-0.11667620023597973,-0.2857508847434317,-0.870414991230411,0.38355030857529393,-138.46764574440084,24.980710008414242,153.25356878715337,6
1767651683.781375,1,left_wrist,-0.242,0.7096,-0.5841,1.68,-26.25,-33.6,0.09314202180353066,0.49802790213523507,0.3841933879105477,-0.7718084044339909,-67.35278375035355,57.17533613513774,153.85000906815858,6
1767651683.781375,2,right_wrist,-0.5187,-0.7198,-0.6778,10.71,51.31,-48.58,-0.08897154623696403,-0.27594444378341615,-0.8753932995843656,0.3868142951702558,-137.47656366537916,21.669290250689087,153.5259266536765,6
1767651683.831983,1,left_wrist,-0.242,0.7096,-0.5841,1.68,-26.25,-33.6,0.08790513535754994,0.4869113539981517,0.38886644530906733,-0.7771569392588266,-66.70346936623348,55.606723525256584,154.62670543223174,6
1767651683.831983,2,right_wrist,-0.3514,-0.8603,-0.7735,2.94,63.77,-68.25,-0.0493582069795577,-0.25866513501816274,-0.8844599370278856,0.3852099883471707,-136.7968178874605,16.654003733615678,154.03003085562602,6
1767651683.8833358,1,left_wrist,-0.242,0.7096,-0.5841,1.68,-26.25,-33.6,0.08264160801949921,0.4756702604038648,0.3934737396582409,-0.7823596258694782,-66.11407809626262,54.030036282909535,155.34532929166997,6
1767651683.8833358,2,right_wrist,-0.3836,-0.6037,-0.8311,-24.99,63.91,-78.33,-0.017166841301008286,-0.2400703283844077,-0.8987875352241954,0.3664048355504662,-138.33565400145318,11.933984561336914,154.64536696842472,6
1767651683.956453,1,left_wrist,-0.242,0.7096,-0.5841,1.68,-26.25,-33.6,0.07735187068330783,0.4643046355706601,0.39801463744198173,-0.787414910876926,-65.5774868155348,52.445614223279584,156.01314107662657,6
1767651683.956453,2,right_wrist,-0.1405,-0.5041,-0.7222,-15.96,80.36,-57.05,0.06353797290240991,-0.2155025687610371,-0.9142526927234423,0.3371403012171376,-139.90016792284788,1.6692436343933035,154.08256466607813,6
1767651684.0365398,1,left_wrist,-0.242,0.7096,-0.5841,1.68,-26.25,-33.6,0.0666952796990728,0.4411993642579676,0.40689469285022817,-0.797076890628844,-64.63952088807879,49.254438186739215,157.22009153988859,6
1767651684.0365398,2,right_wrist,0.102,-0.713,-0.6515,19.95,55.3,-39.76,0.09678943756377781,-0.20578370515499206,-0.9122543203802502,0.34070064046951626,-138.55623851518703,-2.0844152526575765,153.78767481169,6
1767651684.1122508,1,left_wrist,-0.242,0.7096,-0.5841,1.68,-26.25,-33.6,0.061329071154805986,0.4294592391413121,0.4112325595585765,-0.8016802909554132,-64.22865488943306,47.64791952039261,157.76902843724937,6
1767651684.1122508,2,right_wrist,0.0786,-0.5046,-0.8018,-12.46,63.84,-47.18,0.1588872613807181,-0.18593298138480138,-0.9170931241291599,0.31483958817040736,-139.72472191539066,-10.04087527488224,153.38811164648672,6
1767651684.180493,1,left_wrist,-0.242,0.7096,-0.5841,1.68,-26.25,-33.6,0.05052208047431254,0.4056019379252846,0.4197006647026554,-0.8104233087615076,-63.504288967632036,44.413112251297704,158.77751800231405,6
1767651684.180493,2,right_wrist,0.1552,-0.5422,-0.692,1.05,62.44,-57.96,0.19062433505690635,-0.17117504452627674,-0.9181827156878851,0.30216215452561185,-140.215333523517,-14.27704101753664,153.68997004333693,6
1767651684.261884,1,left_wrist,-0.242,0.7096,-0.5841,1.68,-26.25,-33.6,0.04508164488888502,0.3934835491335041,0.4238295335823378,-0.8145593092702285,-63.18475476465484,42.7846916330539,159.24346060022955,6
1767651684.261884,2,right_wrist,0.4397,-0.6842,-0.7437,4.2,58.31,-47.39,0.26491453551284333,-0.14687872380852143,-0.9122675750112905,0.27570781807814937,-140.61832838580196,-23.725462210616225,153.1093523723796,6
1767651684.330443,1,left_wrist,-0.242,0.7096,-0.5841,1.68,-26.25,-33.6,0.03412734362400197,0.3688632056954797,0.4318733081850713,-0.8223507193275299,-62.61877825786796,39.50512385274511,160.11190979680134,6
1767651684.330443,2,right_wrist,0.324,-0.5451,-0.5241,-43.33,82.88,-44.24,0.3011894210156617,-0.14464996083848292,-0.9083880171121491,0.25138124803718703,-141.8438985728044,-28.32479183761082,151.9291641519145,6
1767651684.412031,1,left_wrist,-0.242,0.7096,-0.5841,1.68,-26.25,-33.6,0.0286134815807025,0.3563591580263678,0.435786683691097,-0.8260020493195431,-62.36837282124963,37.85356847480462,160.5187976399268,6
1767651684.412031,2,right_wrist,0.6149,-0.364,-0.4177,-17.22,109.55,-50.61,0.38458371507375616,-0.12992012183100443,-0.8893417850869454,0.21044552107814088,-142.3907645656245,-39.00369588953396,149.62452407433207,6
1767651686.16936,1,left_wrist,-0.242,0.7096,-0.5841,1.68,-26.25,-33.6,-0.18198504994981962,-0.1790776890807501,0.5112856339642112,-0.8206093000753004,-61.91243414224627,-28.685292125017295,172.43076545120996,7
1767651686.16936,2,right_wrist,0.142,-0.5817,-0.8047,25.69,-32.2,19.6,0.11844143218800543,-0.1976632320033803,-0.9186046025503126,0.3210396518011658,-140.26228364619445,-5.203085992602019,153.83135934528366,7
1767651686.230052,1,left_wrist,-0.242,0.7096,-0.5841,1.68,-26.25,-33.6,-0.19470679535952848,-0.21544613116839437,0.5100406585624434,-0.8096485379586519,-62.46251673933377,-33.19485310212437,173.44586025641217,7
1767651686.230052,2,right_wrist,0.1508,-0.6959,-0.9209,25.41,-52.85,18.34,0.09883660891304714,-0.1953470758532741,-0.917269312355746,0.33269784084745924,-139.4720609590397,-2.9426568991167117,154.86850079340806,7
1767651686.284938,1,left_wrist,-0.242,0.7096,-0.5841,1.68,-26.25,-33.6,-0.20102905979887592,-0.23374022543260545,0.5090822939729089,-0.803609384025831,-62.787605934381276,-35.475328666387604,174.00089956576775,7
1767651686.284938,2,right_wrist,-0.0922,-0.611,-0.7076,20.51,-54.74,25.41,0.07043377163247513,-0.1982787715478939,-0.9136903906980659,0.3476988388147108,-138.44511939181427,0.5255974059486093,155.7117398400355,7
1767651686.3571231,1,left_wrist,-0.242,0.7096,-0.5841,1.68,-26.25,-33.6,-0.20731660860087953,-0.2520870666757528,0.507893530705546,-0.7971926342362295,-63.15193131305815,-37.77146334153294,174.59367361189254,7
1767651686.3571231,2,right_wrist,-0.02,-0.4978,-0.7398,37.45,-40.81,27.02,0.026516370539564436,-0.21151600315034144,-0.9027677191448926,0.37358842028981765,-136.37434193215492,6.324747181791787,156.16074516868147,7
1767651686.409167,1,left_wrist,-0.242,0.7096,-0.5841,1.68,-26.25,-33.6,-0.21356258947693552,-0.2704706773590094,0.5064700718219819,-0.7903952804853411,-63.56098780564133,-40.08202418887723,175.22981512853087,7
1767651686.409167,2,right_wrist,-0.1674,-0.8184,-0.6446,20.09,-44.38,34.02,0.00470732145353632,-0.21737637305038804,-0.8950169301861071,0.3894483897057848,-134.8950483637991,9.258413177514592,156.54916917892507,7
1767651686.483881,1,left_wrist,-0.242,0.7096,-0.5841,1.68,-26.25,-33.6,-0.2259023064072704,-0.30728267962965117,0.502904226839196,-0.7756499477127342,-64.54122685461162,-44.74090950661547,176.66063837951248,7
1767651686.483881,2,right_wrist,-0.2001,-0.6871,-0.753,-2.1,-44.24,31.78,-0.02103445388061555,-0.22366939856488044,-0.8930844648482213,0.3897815933857513,-135.35028343329472,12.235802652645388,156.91982142699447,7
1767651686.5548391,1,left_wrist,-0.242,0.7096,-0.5841,1.68,-26.25,-33.6,-0.2319823377430373,-0.3256778067233261,0.500755605993589,-0.7676991495691217,-65.13032805613243,-47.08612767731248,177.47347235361656,7
1767651686.5548391,2,right_wrist,-0.3089,-0.7271,-0.7896,-9.59,-41.93,38.15,-0.06409510772203535,-0.22908990259705692,-0.8866407083333108,0.3965827631407805,-135.14172585429205,17.179418252223325,158.1609978574102,7
1767651686.63273,1,left_wrist,-0.242,0.7096,-0.5841,1.68,-26.25,-33.6,-0.24392907369346475,-0.36236259319362013,0.49571489876066616,-0.7506388593776275,-66.56821579121528,-51.798938816965446,179.3562471519607,7
1767651686.63273,2,right_wrist,-0.2118,-0.8052,-0.6534,7.14,-42.42,32.76,-0.08232441385491297,-0.2328465836113889,-0.8802288286555815,0.40521891440007163,-134.26971209848085,19.489634858780228,158.65040569560142,7
1767651686.704868,1,left_wrist,-0.242,0.7096,-0.5841,1.68,-26.25,-33.6,-0.24978267330336812,-0.3806188610031619,0.4928193522457002,-0.7415301644695292,-67.45152180640883,-54.16205105318308,-179.53908940765453,7
1767651686.704868,2,right_wrist,-0.4109,-0.813,-0.608,5.6,-23.45,31.01,-0.11652151069516983,-0.25124615548300644,-0.8676389512861503,0.4129173732254357,-133.8393670526348,24.185049021243472,158.1335150005904,7
1767651686.7601762,1,left_wrist,-0.242,0.7096,-0.5841,1.68,-26.25,-33.6,-0.2555479488788473,-0.3987956497044534,0.4896720981927864,-0.7320372339246762,-68.47549018006846,-56.52597215962772,-178.2943572536349,7
1767651686.7601762,2,right_wrist,-0.5578,-0.7481,-0.793,-4.41,-20.09,5.11,-0.12914125149940525,-0.25141703247084585,-0.8668907514607627,0.41062444882948135,-134.21108706971455,25.491594135844533,158.56661530710696,7
1767651686.811668,1,left_wrist,-0.242,0.7096,-0.5841,1.68,-26.25,-33.6,-0.2612187623004647,-0.41687663581300527,0.4862724737377471,-0.7221618309080149,-69.67212254609422,-58.887211980157204,-176.87745949958295,7
1767651686.811668,2,right_wrist,-0.7232,-0.732,-0.8301,-6.79,-6.58,-7.84,-0.13519033559862495,-0.24896794106586828,-0.8680749377933208,0.4076572578248494,-134.5782497455021,25.957087593638903,159.01320953986993,7
1767651686.878455,1,left_wrist,-0.242,0.7096,-0.5841,1.68,-26.25,-33.6,-0.2722534237494362,-0.4526870634709661,0.47871542375208614,-0.7012731556851468,-72.7662515988967,-63.58282001458682,-173.34391957788134,7
1767651686.878455,2,right_wrist,-0.7315,-0.9428,-0.9233,-11.9,26.53,-72.52,-0.11762223051307923,-0.2268575114208743,-0.8779104040439627,0.40493703568878736,-134.41703939173968,22.970029651938106,160.78211329369637,7
1767651686.95271,1,left_wrist,-0.242,0.7096,-0.5841,1.68,-26.25,-33.6,-0.27760599522219825,-0.470385098916264,0.47455857986168265,-0.6902658360471655,-74.79700567910254,-65.9039240752951,-171.09383368878977,7
1767651686.95271,2,right_wrist,-0.346,-0.893,-0.8135,-10.08,74.62,-102.2,-0.020564385273364853,-0.1696816481088136,-0.902750973103925,0.3947479257872316,-134.25006351291313,9.851316007813104,162.87442405308803,7
1767651687.0055969,1,left_wrist,-0.242,0.7096,-0.5841,1.68,-26.25,-33.6,-0.28284156292258744,-0.4879245609448167,0.4701504932528277,-0.6788879044469998,-77.28231031644775,-68.19422115670889,-168.38932212902193,7
1767651687.0055969,2,right_wrist,0.0454,-0.7227,-0.6051,-12.74,100.8,-77.42,0.03582598457941985,-0.15424885147138698,-0.9099883135201997,0.3832036793995278,-134.80805297777752,3.0389604475499308,162.02387825070164,7
1767651687.060055,1,left_wrist,-0.242,0.7096,-0.5841,1.68,-26.25,-33.6,-0.28795502380461385,-0.5052904929442635,0.4654923022165197,-0.6671434168025581,-80.37217512487044,-70.43875642328261,-165.0802816408495,7
1767651687.060055,2,right_wrist,0.0137,-0.6734,-0.7706,-27.37,81.83,-48.65,0.07683530917854688,-0.1480017406242336,-0.9170342526068697,0.362270616502904,-136.5624999941025,-1.9305372972429284,160.89493353923748,7
1767651687.136384,1,left_wrist,-0.242,0.7096,-0.5841,1.68,-26.25,-33.6,-0.2977963033192318,-0.5394435427498669,0.4554316911082445,-0.642572953561817,-89.31309409097136,-74.69088100682652,-155.70072666044743,7
1767651687.136384,2,right_wrist,0.1508,-0.5661,-0.7042,7.07,56.42,-39.06,0.10937009845039655,-0.13955924879897033,-0.9171429670244163,0.35694562005614844,-136.46569695481992,-5.79594625903666,160.37962762664216,7
1767651687.18946,1,left_wrist,-0.242,0.7096,-0.5841,1.68,-26.25,-33.6,-0.3025150062489748,-0.5562023652612296,0.4500330343021559,-0.6297569911551528,-95.89557561771939,-76.6129290528329,-148.8985931251314,7
1767651687.18946,2,right_wrist,0.1508,-0.5661,-0.7042,7.07,56.42,-39.06,0.1403077836158585,-0.13131163881561664,-0.9166421213002286,0.3504828110287002,-136.46125287256237,-9.507639152104218,159.89112584247255,7
1767651687.2573051,1,left_wrist,-0.242,0.7096,-0.5841,1.68,-26.25,-33.6,-0.3070933693946843,-0.5727310721577512,0.4443917723617201,-0.6165944648762766,-104.56970639955664,-78.30066136282132,-140.00445794335963,7
1767651687.2573051,2,right_wrist,0.1108,-0.4612,-0.651,-28.49,76.16,-48.09,0.20661771051253305,-0.11931903608181255,-0.9173457997051588,0.3186671823303566,-138.29905561586898,-17.639902966698394,158.4140366597129,7
1767651687.3139682,1,left_wrist,-0.242,0.7096,-0.5841,1.68,-26.25,-33.6,-0.3115273759021567,-0.589016340776736,0.4385104485606105,-0.6030912293050467,-115.85196934865598,-79.63361055011386,-128.5017393054159,7
1767651687.3139682,2,right_wrist,0.3074,-0.5876,-0.8213,-15.75,76.3,-45.15,0.24096986045049104,-0.11305148019283993,-0.9159199815359206,0.3004055202620575,-139.3104654975817,-21.931364857809076,157.70841660841228,7
1767651687.384407,1,left_wrist,-0.242,0.7096,-0.5841,1.68,-26.25,-33.6,-0.31994731989203545,-0.620804915959912,0.4260389967417413,-0.5750875951272125,-145.26783158555824,-80.62892284987096,-98.64320943377767,7
1767651687.384407,2,right_wrist,0.3323,-0.2869,-0.4958,-11.34,76.65,-50.26,0.27946788726137506,-0.10246337388400502,-0.9119254590729288,0.2824728555040255,-140.08189393022838,-26.860610919530824,157.26573685081704,7
1767651687.455103,1,left_wrist,-0.242,0.7096,-0.5841,1.68,-26.25,-33.6,-0.323926287958656,-0.6362832139505664,0.41945513402239326,-0.5606004121977789,-160.232364608186,-80.11234693596401,-83.45625983445633,7
1767651687.455103,2,right_wrist,0.5651,-0.5056,-0.5329,-19.46,79.73,-43.54,0.3539451460318716,-0.07726620065582507,-0.891954435881778,0.2704996342835049,-138.30554884682294,-36.128977710618116,155.93770275822988,7
1767651689.406914,1,left_wrist,-0.242,0.7096,-0.5841,1.68,-26.25,-33.6,-0.35638315079927246,-0.9207349107743821,0.04284271923132858,0.15297965654471604,136.24739129472692,14.54679154870871,-11.195448329572839,8
1767651689.406914,2,right_wrist,0.204,-0.5383,-0.6446,11.9,-42.42,26.25,0.09790671248342946,-0.11959538057983275,-0.9248257926906636,0.3475751339908224,-137.96910246105816,-5.621511361032632,163.1020731747591,8
1767651689.480438,1,left_wrist,-0.242,0.7096,-0.5841,1.68,-26.25,-33.6,-0.3565702424152587,-0.91548248264445,0.025291614036065575,0.18468844158346384,135.65371157381722,18.670278419154933,-10.8305530747166,8
1767651689.480438,2,right_wrist,0.0068,-0.6964,-0.7013,15.75,-35.21,21.07,0.07776697688545244,-0.12354994587058048,-0.9217435544150125,0.3592722200168738,-136.9569596582673,-3.129119459187503,163.497015623134,8
1767651689.5343301,1,left_wrist,-0.242,0.7096,-0.5841,1.68,-26.25,-33.6,-0.3565074155516078,-0.9127271714600794,0.017385108046500796,0.19881984597471092,135.39129247012664,20.520390999628557,-10.675820129182659,8
1767651689.5343301,2,right_wrist,0.0737,-0.6622,-0.7437,-2.31,-35.42,27.09,0.06129210829693243,-0.12799466414639357,-0.923068231397342,0.3574992078250697,-137.4805323416187,-1.239840715964843,163.72875516404417,8
1767651689.610941,1,left_wrist,-0.242,0.7096,-0.5841,1.68,-26.25,-33.6,-0.3560984101399943,-0.9100074430119459,0.009881563201263483,0.21209132624255955,135.1806529581049,22.27000521355239,-10.524754111813467,8
1767651689.610941,2,right_wrist,-0.0073,-0.6612,-0.7891,1.54,-44.8,21.21,0.019785777159754603,-0.13363447916920956,-0.9203565356916337,0.3670070792356101,-136.98880629214153,3.535654828667655,164.8704410931221,8
1767651689.692734,1,left_wrist,-0.242,0.7096,-0.5841,1.68,-26.25,-33.6,-0.3541415695490654,-0.904640447311298,-0.004425622768949341,0.23704392771983415,134.91664192576388,25.595419055446065,-10.211627451687884,8
1767651689.692734,2,right_wrist,0.0054,-0.6866,-0.6359,15.61,-47.6,19.95,0.0014318637453488634,-0.13254272551196047,-0.9159394863242215,0.37879444699229275,-135.76292737057383,5.611916992108554,165.81452848547642,8
1767651689.753921,1,left_wrist,-0.242,0.7096,-0.5841,1.68,-26.25,-33.6,-0.3526658342750614,-0.901928249299536,-0.011382242841877511,0.24904354438217766,134.85053243951248,27.210896788775205,-10.045530862685098,8
1767651689.753921,2,right_wrist,-0.2074,-0.7437,-0.6705,8.68,-31.71,21.42,-0.037277788242697334,-0.14101410817855037,-0.910660014246194,0.38655365248754586,-135.1995924685915,10.19004985430492,166.60480555082754,8
1767651689.807055,1,left_wrist,-0.242,0.7096,-0.5841,1.68,-26.25,-33.6,-0.35091997675458503,-0.8991565305968643,-0.01826145199689231,0.2608432915958106,134.81942890878273,28.809209031049267,-9.87219776440875,8
1767651689.807055,2,right_wrist,-0.1484,-0.6681,-0.6812,-1.89,-37.73,21.63,-0.051818758983755396,-0.14163947455560638,-0.9099718502655835,0.3862697337214316,-135.32737636021793,11.75512407050706,167.14947375382755,8
1767651689.8590221,1,left_wrist,-0.242,0.7096,-0.5841,1.68,-26.25,-33.6,-0.34894285903866645,-0.8963028525218556,-0.02508392908844043,0.27249013594732646,134.8181916154446,30.39596944776754,-9.691306145233717,8
1767651689.8590221,2,right_wrist,-0.3157,-0.6993,-0.7091,-4.62,-26.81,18.34,-0.07033412320501957,-0.14606564210821632,-0.9081980865519719,0.38586807964877406,-135.49984729674148,13.91479946126463,167.4428201407679,8
1767651689.916173,1,left_wrist,-0.242,0.7096,-0.5841,1.68,-26.25,-33.6,-0.34676567263906144,-0.8933503221093428,-0.031862305561803084,0.2840133161501394,134.8429732541439,31.97466900748403,-9.502518342733623,8
1767651689.916173,2,right_wrist,-0.2718,-0.6661,-0.6344,20.58,-27.72,16.8,-0.08593672421535041,-0.14954859725382444,-0.9011575165126504,0.3976999206981319,-134.06573221868445,15.892658212153336,167.925987523685,8
1767651689.9820569,1,left_wrist,-0.242,0.7096,-0.5841,1.68,-26.25,-33.6,-0.3419045014553954,-0.8871012364517696,-0.04531537153217408,0.30675597023233286,134.96027186276262,35.11603921566255,-9.09945625770405,8
1767651689.9820569,2,right_wrist,-0.2806,-0.7315,-0.7379,-6.65,-32.55,12.46,-0.09930897649794815,-0.14824902198582754,-0.9018422931072974,0.39349769126406214,-134.58833557368618,17.205117156491944,168.57392030542505,8
1767651690.056533,1,left_wrist,-0.242,0.7096,-0.5841,1.68,-26.25,-33.6,-0.33925549525995213,-0.8837879664932802,-0.05199821639005341,0.31799485013102113,135.04953062686522,36.68115502993459,-8.88400310315431,8
1767651690.056533,2,right_wrist,-0.3211,-0.6261,-0.6276,2.45,-30.17,18.41,-0.12687815360569726,-0.15275176817860012,-0.8973790498967721,0.39405541775527825,-134.51475603115702,20.37120266007658,169.2935345768209,8
1767651690.133792,1,left_wrist,-0.242,0.7096,-0.5841,1.68,-26.25,-33.6,-0.33358372269437414,-0.8767560856719814,-0.06528688799977654,0.34023269749659985,135.28528198366445,39.803711239131914,-8.421388492003924,8
1767651690.133792,2,right_wrist,-0.2967,-0.6944,-0.6017,-3.43,-19.18,14.77,-0.1347513613987322,-0.15338032523181835,-0.8950719629720086,0.3964375455660137,-134.1745523632226,21.274452870107602,169.63034637683504,8
1767651690.2043269,1,left_wrist,-0.242,0.7096,-0.5841,1.68,-26.25,-33.6,-0.33057948386303876,-0.8730300255242147,-0.0718945900290196,0.35123631262526833,135.43145403252228,41.361940415345835,-8.172281016602245,8
1767651690.2043269,2,right_wrist,-0.4002,-0.8628,-0.7447,-0.35,-3.99,0.21,-0.14458236049411632,-0.1554304749721486,-0.8936503320742852,0.39538132539031395,-134.2908316157681,22.415517797904318,169.81473879767844,8
1767651690.256982,1,left_wrist,-0.242,0.7096,-0.5841,1.68,-26.25,-33.6,-0.3274727852989926,-0.8691603145622816,-0.07847837949662023,0.36216441905590313,135.59686002789638,42.91846765365233,-7.909757655848941,8
1767651690.256982,2,right_wrist,-0.4148,-0.7593,-0.7408,0.91,13.37,-25.2,-0.130560874402076,-0.14619791451509087,-0.8969427658177302,0.3963252486456598,-134.09054135263202,20.493132773475352,170.24124252639567,8
1767651690.3337128,1,left_wrist,-0.242,0.7096,-0.5841,1.68,-26.25,-33.6,-0.3209747378192019,-0.860982766587852,-0.09157407199146793,0.38379432338105846,135.98840071366502,46.026954917805256,-7.338744401980686,8
1767651690.3337128,2,right_wrist,-0.3982,-0.833,-0.7715,-4.27,31.64,-35.0,-0.10935955426851308,-0.13581563486090148,-0.9008531208856747,0.3975654107289294,-133.86720797013,17.759667300644296,170.4656817962851,8
1767651690.4066281,1,left_wrist,-0.242,0.7096,-0.5841,1.68,-26.25,-33.6,-0.3175927739122492,-0.8566724023255928,-0.09808544701020243,0.3944952092703147,136.2168457488037,47.57905345543294,-7.026852270346372,8
1767651690.4066281,2,right_wrist,-0.223,-0.7144,-0.7847,-8.26,64.68,-31.57,-0.04964304632057867,-0.12344528750991438,-0.9131036657213449,0.385406959706036,-135.26460792645966,10.708468171355705,169.01871032017442,8
1767651690.468765,1,left_wrist,-0.242,0.7096,-0.5841,1.68,-26.25,-33.6,-0.31412742655828463,-0.8522131708041824,-0.10457194014405412,0.40511897107671874,136.46918119698347,49.12974498971136,-6.694665139960215,8
1767651690.468765,2,right_wrist,-0.223,-0.7144,-0.7847,-8.26,64.68,-31.57,-0.021070875699236897,-0.12271240017270077,-0.9183696950463649,0.37562586207763826,-136.31464399873067,7.521002463133934,167.79678287047102,8
1767651690.537078,1,left_wrist,-0.242,0.7096,-0.5841,1.68,-26.25,-33.6,-0.3069595835877783,-0.8428461649580065,-0.11746803838727957,0.42613075014207,137.05419391172668,52.22676307386371,-5.95929684752664,8
1767651690.537078,2,right_wrist,-0.1415,-0.7052,-0.8647,0.21,57.4,-42.21,0.008700175472549995,-0.11549849123212012,-0.9222096619599114,0.3689359630852443,-136.83346783587496,3.9666792847502723,167.29248095809876,8
1767651690.603534,1,left_wrist,-0.242,0.7096,-0.5841,1.68,-26.25,-33.6,-0.30326272980786556,-0.8379378937164204,-0.12387636385669648,0.43651626483009065,137.39238824965125,53.772932269416884,-5.54999170748282,8
1767651690.603534,2,right_wrist,-0.0273,-0.6598,-0.7998,-28.84,51.24,-48.93,0.07073828949307079,-0.09131067102022922,-0.9311814794889389,0.34577378155988187,-138.82010082393953,-3.9332753161931335,167.3209501359405,8
1767651690.659072,1,left_wrist,-0.242,0.7096,-0.5841,1.68,-26.25,-33.6,-0.2994938922808872,-0.8328797019052748,-0.13025727410568766,0.4468197099314001,137.7656769138383,55.31737619617272,-5.107959158575646,8
1767651690.659072,2,right_wrist,-0.0273,-0.6598,-0.7998,-28.84,51.24,-48.93,0.09317771323951625,-0.08169994124051579,-0.9359605906520116,0.3295767074644203,-140.44546396350944,-6.924915749497332,167.52993745757541,8
1767651690.7310662,1,left_wrist,-0.242,0.7096,-0.5841,1.68,-26.25,-33.6,-0.29174889946334054,-0.8223140675245875,-0.1429338414293984,0.46717456157985887,138.63591644689495,58.40033631464007,-4.10646977100444,8
1767651690.7310662,2,right_wrist,0.1313,-0.5217,-0.69,-12.18,43.05,-30.38,0.1166136938456549,-0.07498334457121897,-0.9379317335526827,0.3179037710368423,-141.46321925480376,-9.850408651941718,167.40744484863276,8
1767651690.805891,1,left_wrist,-0.242,0.7096,-0.5841,1.68,-26.25,-33.6,-0.2877766423328686,-0.8168071282843892,-0.14922793118847705,0.47722294985115365,139.1445293485479,59.93834263164724,-3.53497580420393,8
1767651690.805891,2,right_wrist,0.2264,-0.4358,-0.7413,-11.55,53.55,-26.67,0.16068657337923972,-0.07063431372763312,-0.9372579384634487,0.30122778033758846,-142.5514816552638,-14.990299099528038,166.27355081564528,8
1767651690.855912,1,left_wrist,-0.242,0.7096,-0.5841,1.68,-26.25,-33.6,-0.28374024771312123,-0.8111512493293824,-0.15549148111035188,0.4871832528332514,139.71205840618583,61.47357968869816,-2.9061759661060225,8
1767651690.855912,2,right_wrist,0.1889,-0.5812,-0.7037,-21.98,53.76,-31.29,0.18263214371282466,-0.0680138079229779,-0.9365571711394546,0.2913422166489723,-143.23048917848732,-17.605434570724384,165.8001939669139,8
1767651690.931385,1,left_wrist,-0.242,0.7096,-0.5841,1.68,-26.25,-33.6,-0.2754814926210613,-0.7993945140745655,-0.16792364542799873,0.5068333132272711,141.06442039767484,64.53382109703672,-1.43553720105154,8
1767651690.931385,2,right_wrist,0.3753,-0.5729,-0.6232,-30.31,63.35,-34.44,0.21529201627868474,-0.06360036764849324,-0.9345688144131594,0.27601715904634727,-144.25854170801293,-21.549248068044676,165.19134981978257,8
1767651691.004865,1,left_wrist,-0.242,0.7096,-0.5841,1.68,-26.25,-33.6,-0.2712621322600356,-0.7932947241106869,-0.17409057712371176,0.5165199001554742,141.87592840129594,66.05752848767774,-0.5667710311736399,8
1767651691.004865,2,right_wrist,0.4407,-0.5549,-0.608,-15.75,98.28,-36.12,0.2922250985971158,-0.062147745040530514,-0.9207944929471793,0.25075815299692666,-144.6975274122736,-30.463569938591743,162.37363658175096,8
1767651691.057961,1,left_wrist,-0.242,0.7096,-0.5841,1.68,-26.25,-33.6,-0.26698465829694784,-0.7870481140499028,-0.18022360830014025,0.5261120692550502,142.80134232011832,67.57578530335618,0.4147982939076468,8
1767651691.057961,2,right_wrist,0.591,-0.4158,-0.5026,-17.29,98.35,-40.88,0.3391632837467726,-0.05754104299973538,-0.9089078825895444,0.23567722905533295,-144.6445294062301,-36.11544460245007,160.89036473417548,8
1767651692.957175,1,left_wrist,-0.242,0.7096,-0.5841,1.68,-26.25,-33.6,-0.07164546450665371,-0.448811596501354,-0.37999345990120553,0.8056302183345921,-60.63271719961507,51.04153674213433,158.9682597755578,9
1767651692.957175,2,right_wrist,0.1352,-0.649,-0.6822,15.26,-34.79,25.27,0.05644979589707503,-0.08194307172397913,-0.9294674224099578,0.35523100120654777,-137.90710654027308,-2.677779324201073,168.8929552608203,9
1767651693.011105,1,left_wrist,-0.242,0.7096,-0.5841,1.68,-26.25,-33.6,-0.06585312343532755,-0.43745142916596663,-0.38417740604493705,0.8103748107752661,-60.31571449698655,49.42875386938198,159.34812559283355,9
1767651693.011105,2,right_wrist,0.1113,-0.7149,-0.7071,29.82,-53.76,34.72,0.03361178647249165,-0.08570440937054262,-0.9235156458037479,0.3723491022954945,-136.09196638831847,0.09980347726048533,169.43623760732584,9
1767651693.0657222,1,left_wrist,-0.242,0.7096,-0.5841,1.68,-26.25,-33.6,-0.060034986564645856,-0.42597057403102445,-0.388297230035633,0.8149663377063601,-60.024089962788445,47.81037307640658,159.70399184269112,9
1767651693.0657222,2,right_wrist,0.0054,-0.6559,-0.6827,13.37,-60.9,33.18,0.008698172549012721,-0.08713718644255569,-0.9210956093984416,0.37936042344991155,-135.4725777310683,2.8710956021867253,170.36721638264055,9
1767651693.12994,1,left_wrist,-0.242,0.7096,-0.5841,1.68,-26.25,-33.6,-0.04832217033428278,-0.4026452814638665,-0.39634194025226527,0.8236836841689522,-59.506810866521356,44.55622947933032,160.35424941314602,9
1767651693.12994,2,right_wrist,-0.1186,-0.7252,-0.7383,-8.05,-84.91,10.71,-0.03209658768740618,-0.07921930999061744,-0.9212942327547027,0.37935609481904825,-135.6612945356253,6.8485578527415125,172.96414122351024,9
1767651693.183312,1,left_wrist,-0.242,0.7096,-0.5841,1.68,-26.25,-33.6,-0.042427778093256444,-0.3907997462779075,-0.4002655181503105,0.8278061107137684,-59.27694010750214,42.92008262506838,160.65304893384646,9
1767651693.183312,2,right_wrist,-0.2489,-0.4431,-0.672,19.67,-68.25,1.19,-0.062302163941925365,-0.07020859404793679,-0.9175773412873545,0.38631724844484383,-134.73493874611918,9.705249475507909,175.30343981066383,9
1767651693.257432,1,left_wrist,-0.242,0.7096,-0.5841,1.68,-26.25,-33.6,-0.03650815791354042,-0.37883130838820195,-0.40412235009693454,0.8317686699694655,-59.06390489799615,41.27757287330902,160.93677633465228,9
1767651693.257432,2,right_wrist,-0.1757,-0.6349,-0.7061,-9.66,-29.75,29.82,-0.0985003035116706,-0.07729524221368249,-0.9141737438759091,0.3854990295022034,-134.74032598441306,13.868083183488327,176.13866369689052,9
1767651693.335146,1,left_wrist,-0.242,0.7096,-0.5841,1.68,-26.25,-33.6,-0.02459314339775286,-0.35452182821243855,-0.41163297625030254,0.8392066154899195,-58.682640729992215,37.97232835052093,161.46516290248135,9
1767651693.335146,2,right_wrist,-0.2245,-0.7574,-0.7242,8.54,-34.65,22.19,-0.11191485783661896,-0.07877702976463118,-0.9100106817193371,0.39134358731628555,-133.9086388677586,15.38746581943686,176.6832736203659,9
1767651693.414242,1,left_wrist,-0.242,0.7096,-0.5841,1.68,-26.25,-33.6,-0.01859753670245301,-0.3421783996505133,-0.41528530377744305,0.842677987672451,-58.51200402861985,36.30894393177547,161.71247063291975,9
1767651693.414242,2,right_wrist,-0.4089,-0.792,-0.7291,-8.75,-23.66,12.39,-0.13929924250297135,-0.08990389325540685,-0.9068963306942316,0.3873655333002122,-134.2952521078685,18.8027592084045,176.66025736000077,9
1767651693.479088,1,left_wrist,-0.242,0.7096,-0.5841,1.68,-26.25,-33.6,-0.006529061308171901,-0.3171067800109235,-0.4223800538622022,0.8491146869115508,-58.20577791833197,32.958780355184416,162.17891727418706,9
1767651693.479088,2,right_wrist,-0.4055,-0.67,-0.7432,-4.2,-18.27,12.25,-0.15164772376008057,-0.09321739795045222,-0.9066964666707021,0.38238070286639436,-134.84633810119405,20.260316477825622,176.75732260292665,9
1767651693.5363111,1,left_wrist,-0.242,0.7096,-0.5841,1.68,-26.25,-33.6,-0.0004555438787569967,-0.3043750267437686,-0.4258207640842844,0.852075297405799,-58.06856286746577,31.271152710027508,162.39997067306513,9
1767651693.5363111,2,right_wrist,-0.4055,-0.67,-0.7432,-4.2,-18.27,12.25,-0.16313532057311558,-0.09631747169303884,-0.9066406905147018,0.37697807645961645,-135.45354129327666,21.618786250774313,176.81487514306406,9
1767651693.605504,1,left_wrist,-0.242,0.7096,-0.5841,1.68,-26.25,-33.6,0.005644721088676778,-0.29150991208537214,-0.42918912477142684,0.8548606924275711,-57.94102383560284,29.57453844775332,162.61404168620155,9
1767651693.605504,2,right_wrist,-0.3201,-0.6817,-0.7286,2.1,-14.77,9.66,-0.1697161815799366,-0.09675182872789202,-0.9057211817714301,0.3761710279092459,-135.47362070095062,22.347406698042246,177.05145840784854,9
1767651693.6579719,1,left_wrist,-0.242,0.7096,-0.5841,1.68,-26.25,-33.6,0.011772252247475301,-0.27850910818119756,-0.43248411674453,0.8574681215653672,-57.8225722727201,27.868426852281058,162.82188796295665,9
1767651693.6579719,2,right_wrist,-0.3201,-0.6817,-0.7286,2.1,-14.77,9.66,-0.172920666405,-0.09691568732605026,-0.9052032752812804,0.37591597877745514,-135.46235376240634,22.700930099350305,177.1761193363638,9
1767651693.7280052,1,left_wrist,-0.242,0.7096,-0.5841,1.68,-26.25,-33.6,0.024111576534204725,-0.2520899769665363,-0.43884947360164833,0.8621371207120144,-57.61092649638226,24.42549066433949,163.22164544997452,9
1767651693.7280052,2,right_wrist,-0.4368,-0.8154,-0.7842,8.54,-9.87,-2.52,-0.1730314694357779,-0.09303108672794362,-0.9026009228428444,0.38303642329465093,-134.44822659581777,22.558424767683253,177.80406888432677,9
1767651693.781336,1,left_wrist,-0.242,0.7096,-0.5841,1.68,-26.25,-33.6,0.030324789152031437,-0.2386658476926028,-0.44191731302477777,0.8641921711963241,-57.516882273848054,22.68746578127111,163.41480545211218,9
1767651693.781336,2,right_wrist,-0.4368,-0.8154,-0.7842,8.54,-9.87,-2.52,-0.17199351904249133,-0.08894308796073279,-0.9007421960229756,0.38880696086245276,-133.6278022716036,22.272188967960183,178.35995477414244,9
1767651693.8573709,1,left_wrist,-0.242,0.7096,-0.5841,1.68,-26.25,-33.6,0.03656809837912747,-0.22509443253502823,-0.4449067006315764,0.8660561750578267,-57.43021344177294,20.937543204628977,163.60425250669073,9
1767651693.8573709,2,right_wrist,-0.2523,-0.791,-0.774,-31.64,68.04,-62.65,-0.09308940548399264,-0.05624060766866721,-0.9198868966713984,0.3768016108882231,-135.66152673793076,12.336135584403587,178.04555020499427,9
1767651693.930003,1,left_wrist,-0.242,0.7096,-0.5841,1.68,-26.25,-33.6,0.049148553903104714,-0.19749574771871653,-0.45064353833969395,0.8691951740748101,-57.27785314234085,17.39921661067841,163.9741181839776,9
1767651693.930003,2,right_wrist,-0.1732,-0.6744,-0.6939,-30.1,89.53,-55.37,-0.04422929702430514,-0.04565912010408606,-0.9291927691896272,0.3640876429127587,-137.38230241875064,6.6291731543041585,176.961904869493,9
1767651693.98969,1,left_wrist,-0.242,0.7096,-0.5841,1.68,-26.25,-33.6,0.05548758425458175,-0.1834610163838481,-0.45338724970406646,0.8704614783359333,-57.21169173799266,15.609336600497468,164.15553163719878,9
1767651693.98969,2,right_wrist,-0.0439,-0.6866,-0.7296,-20.23,72.59,-30.59,-0.0057387339757883574,-0.042536093498749615,-0.9337126752180219,0.3554411172324122,-138.40748635683406,2.347194261154866,175.674835314183,9
1767651694.056315,1,left_wrist,-0.242,0.7096,-0.5841,1.68,-26.25,-33.6,0.06186044793413792,-0.16926413318853406,-0.4560449877059183,0.871519309817993,-57.15196007106219,13.804611927722014,164.33523079568775,9
1767651694.056315,2,right_wrist,0.0224,-0.669,-0.6847,29.54,55.23,-40.67,0.05620374306112475,-0.026629131559957924,-0.9280858957807155,0.3671356679365113,-136.6121977528457,-4.862844788141821,174.77744076170197,9
1767651694.10715,1,left_wrist,-0.242,0.7096,-0.5841,1.68,-26.25,-33.6,0.06826811969554179,-0.15490104934963783,-0.45861433429155446,0.872363468472821,-57.098515645345955,11.984235721567202,164.5136722713909,9
1767651694.10715,2,right_wrist,0.1157,-0.6783,-0.7862,-14.28,63.77,-40.25,0.09001429918824254,-0.019984855763262654,-0.9300297880042955,0.3557283020880634,-137.68374261713313,-8.813205674503644,174.1212509346063,9
1767651694.1590242,1,left_wrist,-0.242,0.7096,-0.5841,1.68,-26.25,-33.6,0.0747115442775134,-0.14036767487174223,-0.46109260928904605,0.8729883771630578,-57.051249705241275,10.147381597768408,164.69130325633435,9
1767651694.1590242,2,right_wrist,0.1781,-0.4177,-0.7876,3.92,72.03,-49.35,0.12725616051481015,-0.010431199514026938,-0.9279174009431386,0.3502375718204118,-137.89961731871202,-13.229941845612226,173.6007180465652,9
1767651694.231725,1,left_wrist,-0.242,0.7096,-0.5841,1.68,-26.25,-33.6,0.08770908671381401,-0.11077389486578448,-0.4657637712783684,0.8735561628702786,-56.97498140046718,6.420875886953022,165.04589623819663,9
1767651694.231725,2,right_wrist,0.304,-0.7354,-0.6793,1.47,72.1,-45.08,0.16586402769253356,-0.0024947795471526465,-0.9217634377887334,0.3504783376308975,-137.2274741747474,-17.699578966862344,172.71134764005518,9
1767651694.303013,1,left_wrist,-0.242,0.7096,-0.5841,1.68,-26.25,-33.6,0.094264634760548,-0.09570575856857848,-0.46794977867765447,0.8734858848577964,-56.94592363787712,4.529537831142143,165.223736400374,9
1767651694.303013,2,right_wrist,0.5246,-0.3806,-0.6837,-32.55,74.48,-43.33,0.24613819521478056,0.008267737562430048,-0.9189113783458916,0.3081387871048743,-140.78230132129232,-27.2229144893474,171.17035328626875,9
1767651694.357104,1,left_wrist,-0.242,0.7096,-0.5841,1.68,-26.25,-33.6,0.10085870748809825,-0.08045206599989735,-0.4700309164185128,0.8731700428959708,-56.922934091625685,2.6183684914638388,165.40252908422855,9
1767651694.357104,2,right_wrist,0.6085,-0.5383,-0.5607,-16.52,109.83,-49.42,0.3002539103806251,0.012604866889508076,-0.9064567870202396,0.296689736756743,-140.51468134357734,-33.491540485070345,169.26692078474562,9
1767651694.430519,1,left_wrist,-0.242,0.7096,-0.5841,1.68,-26.25,-33.6,0.11416301817258927,-0.04937633702599083,-0.47386095889360663,0.8717709413946145,-56.89541523947254,-1.2666311235233108,165.7647880481533,9
1767651694.430519,2,right_wrist,0.6412,-0.2645,-0.4704,-18.13,109.62,-46.41,0.3527545423126035,0.01626746200605585,-0.8922870451298239,0.2812888758042072,-140.39829715865127,-39.6925916421888,167.28063969342526,9
1767651696.0354939,1,left_wrist,-0.242,0.7096,-0.5841,1.68,-26.25,-33.6,0.32409107134521714,0.512289253753124,-0.4387423120804519,0.6633474817572431,-70.17628803779586,-74.58729709448222,-175.78023236139344,10
1767651696.0354939,2,right_wrist,0.0776,-0.7413,-0.7286,1.05,-58.31,37.52,0.02747432827099806,-0.02188592873706903,-0.934584454957219,0.35400291518812577,-138.4463965238958,-2.054998181155226,176.5372659102515,10
1767651696.106355,1,left_wrist,-0.242,0.7096,-0.5841,1.68,-26.25,-33.6,0.32932974366976175,0.529200182652759,-0.43393129681098536,0.6505326404283125,-73.6668269121804,-76.99156818328275,-172.13712060985435,10
1767651696.106355,2,right_wrist,0.0815,-0.7613,-0.7476,23.03,-73.92,35.77,-0.029057772112527316,-0.025747126205676825,-0.9279355168489869,0.37071337707480806,-136.50136489426913,4.187297242389421,178.49241053069818,10
1767651696.159065,1,left_wrist,-0.242,0.7096,-0.5841,1.68,-26.25,-33.6,0.33441554845080534,0.545894997879434,-0.42888473630381235,0.6373560819590327,-78.75243810284923,-79.33017514787282,-166.89866127042646,10
1767651696.159065,2,right_wrist,0.0815,-0.7613,-0.7476,23.03,-73.92,35.77,-0.060125817971592416,-0.026757963940421483,-0.922122130571405,0.3812606374771234,-135.08706400769134,7.544155059100967,179.79765521057553,10
1767651696.209604,1,left_wrist,-0.242,0.7096,-0.5841,1.68,-26.25,-33.6,0.33934375870846956,0.5623600005973439,-0.42360465336728587,0.6238238058934149,-86.64020662300797,-81.54135910089083,-158.85769890323667,10
1767651696.209604,2,right_wrist,-0.0981,-0.7296,-0.6666,24.29,-70.0,33.67,-0.09141324626851455,-0.028114944068040767,-0.9140802966584062,0.3940943790357622,-133.23951974557716,10.91065079161583,-178.79484037980944,10
1767651696.261972,1,left_wrist,-0.242,0.7096,-0.5841,1.68,-26.25,-33.6,0.3441098818164553,0.5785818554216008,-0.41809330976986503,0.6099421367136745,-99.70090843015103,-83.48540401508163,-145.64338535992968,10
1767651696.261972,2,right_wrist,-0.2567,-0.6725,-0.813,-6.16,-58.52,33.6,-0.1218212303125441,-0.03219130428939043,-0.9134288907411746,0.38700254434904313,-133.81328562177066,14.327631129676478,-177.90133994038206,10
1767651696.33809,1,left_wrist,-0.242,0.7096,-0.5841,1.68,-26.25,-33.6,0.3531390431761219,0.6102445657660661,-0.406387016855879,0.5811574474001154,-151.16367500378888,-85.08212052675479,-93.87184386381624,10
1767651696.33809,2,right_wrist,-0.2494,-0.7535,-0.6949,1.47,-34.86,30.52,-0.1390806984883935,-0.03727559450325176,-0.9094978574263569,0.389975302678613,-133.23273191993198,16.383209430236956,-177.57031843874012,10
1767651696.404078,1,left_wrist,-0.242,0.7096,-0.5841,1.68,-26.25,-33.6,0.35739423164295875,0.6256605193753354,-0.4001976907867297,0.5662685634681602,-176.66001399376825,-84.06534373704189,-68.22018823814955,10
1767651696.404078,2,right_wrist,-0.2908,-0.7964,-0.5905,13.58,-33.25,34.44,-0.17239591998921291,-0.05073271798184555,-0.8998400182078501,0.3974843138149521,-131.82826353615906,20.52330940582202,-177.20015735995628,10
1767651696.455104,1,left_wrist,-0.242,0.7096,-0.5841,1.68,-26.25,-33.6,0.3614716263997863,0.6407835095698385,-0.3937883329333596,0.5510585322965424,167.44567909702556,-82.26665684014324,-52.16983990655419,10
1767651696.455104,2,right_wrist,-0.3748,-0.5822,-0.6422,16.59,-28.28,25.48,-0.18904221199886642,-0.05854157852800495,-0.8954116995797738,0.39884058710427883,-131.40899451132472,22.65856182083045,-177.1453961582598,10
1767651696.506762,1,left_wrist,-0.242,0.7096,-0.5841,1.68,-26.25,-33.6,0.3653678494870061,0.6556019350410841,-0.387162251785484,0.5355350858011265,158.00459001153695,-80.09987655984222,-42.571903359232344,10
1767651696.506762,2,right_wrist,-0.3748,-0.5822,-0.6422,16.59,-28.28,25.48,-0.20414133571803192,-0.06587258651364639,-0.8910276013160653,0.4000711575335059,-131.00765320567493,24.613724286177522,-177.10267218327763,10
1767651696.560171,1,left_wrist,-0.242,0.7096,-0.5841,1.68,-26.25,-33.6,0.3690797370223772,0.6701045241156176,-0.38032294140455075,0.5197062003869737,152.07047302342986,-77.75616595843721,-36.48004986547501,10
1767651696.560171,2,right_wrist,-0.3948,-0.7374,-0.6481,1.82,-24.71,23.03,-0.21342826264401438,-0.06881253462141178,-0.8888807528900037,0.39950496733511914,-130.89597414710545,25.747531280861946,-176.93253192863077,10
1767651696.614481,1,left_wrist,-0.242,0.7096,-0.5841,1.68,-26.25,-33.6,0.37260433745296223,0.6842803294031131,-0.3732740751541252,0.503580086303101,148.086923733738,-75.31789785380116,-32.33779033736563,10
1767651696.614481,2,right_wrist,-0.4163,-0.5915,-0.6891,8.05,-13.79,7.21,-0.21887919184611518,-0.07054528470878274,-0.8877437052805921,0.3987811127884989,-130.87901997654316,26.415757665562943,-176.8432909947382,10
1767651696.678407,1,left_wrist,-0.242,0.7096,-0.5841,1.68,-26.25,-33.6,0.37908092643245506,0.7116093901712934,-0.35856323158123915,0.4704701223172094,143.17152774483984,-70.29325892343265,-27.10170611107181,10
1767651696.678407,2,right_wrist,-0.4299,-0.7037,-0.7457,1.96,-9.8,6.72,-0.22136665061261696,-0.07136610097612898,-0.8880966459549663,0.39646946045257475,-131.14168176815508,26.729500506733284,-176.8697853960661,10
1767651696.740549,1,left_wrist,-0.242,0.7096,-0.5841,1.68,-26.25,-33.6,0.3820280669961765,0.7247423277202437,-0.35090944930503826,0.453503773772879,141.57118145350563,-67.73801493452014,-25.33920508499965,10
1767651696.740549,2,right_wrist,-0.4299,-0.7037,-0.7457,1.96,-9.8,6.72,-0.2236644924223107,-0.07209744146727895,-0.8884292294818955,0.3942964087657253,-131.38902738328267,27.018339232264896,-176.89378131728776,10
1767651696.808001,1,left_wrist,-0.242,0.7096,-0.5841,1.68,-26.25,-33.6,0.3847782259685635,0.7375078366246683,-0.3430624926446685,0.43627518136849514,140.31335855879456,-65.16467321917713,-23.917900673437405,10
1767651696.808001,2,right_wrist,-0.549,-0.7369,-0.7208,-5.32,16.45,-23.73,-0.21258908631571438,-0.06548634679474982,-0.8915825478080763,0.3944590970011803,-131.53549258030085,25.514836871692687,-176.76407381715902,10
1767651696.879045,1,left_wrist,-0.242,0.7096,-0.5841,1.68,-26.25,-33.6,0.3896802493492604,0.7618992749843356,-0.3268071929027045,0.40106839405829087,138.47910277912592,-59.97968346658057,-21.75233820890835,10
1767651696.879045,2,right_wrist,-0.3548,-0.8067,-0.65,2.94,31.92,-37.87,-0.18958314383103095,-0.05427229793143298,-0.8949647397892012,0.40018853530108983,-131.14158859375135,22.505912063166083,-176.61212661791762,10
1767651696.929116,1,left_wrist,-0.242,0.7096,-0.5841,1.68,-26.25,-33.6,0.39182898681491923,0.7735072958595129,-0.31840829917820473,0.3831092055251876,137.7963943110733,-57.37303400174066,-20.901622708265375,10
1767651696.929116,2,right_wrist,-0.3548,-0.8067,-0.65,2.94,31.92,-37.87,-0.16690847510564644,-0.043143835239792344,-0.8973449030092724,0.40626628639599055,-130.67338034116355,19.548502378745372,-176.4598472622149,10
1767651696.985588,1,left_wrist,-0.242,0.7096,-0.5841,1.68,-26.25,-33.6,0.39377449876396925,0.784712062477832,-0.309835125423016,0.36492577077958727,137.22464870132896,-54.75914378804473,-20.160180787545247,10
1767651696.985588,2,right_wrist,-0.2684,-0.6154,-0.7383,-19.88,19.74,-21.98,-0.15387464243118024,-0.036496783117989574,-0.9043794949198768,0.3963436746148262,-132.13830024320583,17.893742049295724,-176.62876986759267,10
1767651697.055829,1,left_wrist,-0.242,0.7096,-0.5841,1.68,-26.25,-33.6,0.39551579472086046,0.7955053394088337,-0.30109276857541895,0.34652800148033003,136.74135205555862,-52.139150252085614,-19.505410499753907,10
1767651697.055829,2,right_wrist,-0.3431,-0.6661,-0.7642,-13.3,30.38,-37.94,-0.12443505233306316,-0.02048540691599458,-0.9168306458079769,0.37883747539239326,-134.6839710689238,14.1046083383047,-176.6473676090572,10
1767651697.1300879,1,left_wrist,-0.242,0.7096,-0.5841,1.68,-26.25,-33.6,0.39838300764454737,0.8158258726784589,-0.2831216300310065,0.3091298550724296,135.97691723444836,-46.884211121692765,-18.392360560498695,10
1767651697.1300879,2,right_wrist,-0.2303,-0.6359,-0.7139,-28.28,57.82,-40.88,-0.09395510535455005,-0.01234743562851787,-0.9260395545068673,0.3653364510967087,-136.69365006892272,10.54654492812296,-177.33084304618222,10
1767651697.185781,1,left_wrist,-0.242,0.7096,-0.5841,1.68,-26.25,-33.6,0.39950821185890223,0.8253380313653101,-0.2739037809496082,0.2901500326052811,135.67309097114816,-44.25054976840079,-17.91123794021157,10
1767651697.185781,2,right_wrist,-0.1205,-0.6734,-0.7618,-13.93,57.47,-41.58,-0.06015840923931576,-0.0027394469052588384,-0.9313055259280175,0.35922622204453125,-137.6886390641932,6.547096481331724,-177.80109828807292,10
1767651697.2596009,1,left_wrist,-0.242,0.7096,-0.5841,1.68,-26.25,-33.6,0.4004278067164804,0.8344084917086914,-0.2645386180119513,0.27099697443510823,135.41043501110036,-41.61343873784177,-17.469202872606385,10
1767651697.2596009,2,right_wrist,-0.0351,-0.6978,-0.7281,7.77,48.65,-27.02,-0.007713269560758883,0.006408842033047642,-0.9309106013262975,0.36510941449761275,-137.1642351947549,0.5546817538737904,-178.99352977984105,10
1767651697.332405,1,left_wrist,-0.242,0.7096,-0.5841,1.68,-26.25,-33.6,0.4016520086971421,0.8511969472788612,-0.2453899055339746,0.23221372723145692,134.98495221623855,-36.330487013532824,-16.678515573617243,10
1767651697.332405,2,right_wrist,0.0146,-0.5783,-0.8413,1.61,57.47,-36.89,0.022128838196911638,0.01246697999712917,-0.9318868865169968,0.3618587012460311,-137.56728458363435,-2.881227707334222,-179.5857625551731,10
1767651697.405161,1,left_wrist,-0.242,0.7096,-0.5841,1.68,-26.25,-33.6,0.4019584146980227,0.8589018483877536,-0.2356185473091744,0.2126051454068481,134.81297162243254,-33.68534544725415,-16.32065592027186,10
1767651697.405161,2,right_wrist,0.202,-0.4695,-0.7056,-27.3,64.89,-34.79,0.09270493223559978,0.021473769775320322,-0.934135831327589,0.34399843223588056,-139.43630884558308,-10.83444927805126,178.6195361177397,10
1767651697.480468,1,left_wrist,-0.242,0.7096,-0.5841,1.68,-26.25,-33.6,0.4019674052906812,0.8729018782567864,-0.21571366376342394,0.173009049721141,134.533240935328,-28.38927695288746,-15.662682891792505,10
1767651697.480468,2,right_wrist,0.161,-0.4856,-0.7422,-21.77,69.3,-34.3,0.1256913976258625,0.024422312074832815,-0.9352097708755598,0.3301331666080521,-140.8314491290407,-14.5497691417327,177.79092920473406,10
1767651697.54002,1,left_wrist,-0.242,0.7096,-0.5841,1.68,-26.25,-33.6,0.4016744877307916,0.8791851205413649,-0.20559348841490796,0.15304393893996845,134.42012880799572,-25.738929926969742,-15.357355597053601,10
1767651697.54002,2,right_wrist,0.1674,-0.5714,-0.7505,-13.86,82.11,-40.74,0.16086686731011934,0.02718017593213023,-0.9327512218141708,0.32149377481111246,-141.44489665463743,-18.516276911621986,176.81217080483182,10
1767651697.6070101,1,left_wrist,-0.242,0.7096,-0.5841,1.68,-26.25,-33.6,0.4011872996888543,0.884982835915981,-0.19537079296034987,0.13298264533583748,134.32186780699843,-23.08742809763958,-15.065013834630657,10
1767651697.6070101,2,right_wrist,0.5627,-0.4348,-0.63,-19.25,100.73,-48.72,0.26022439790440455,0.035716021461181476,-0.9189960453413278,0.2940304358281206,-142.9664631927621,-29.953274614789397,174.2117300264003,10
1767651697.683805,1,left_wrist,-0.242,0.7096,-0.5841,1.68,-26.25,-33.6,0.39964678063380665,0.8950991818544468,-0.17464755010902047,0.09261824125652111,134.1623360611288,-17.782211597047297,-14.512845661986171,10
1767651697.683805,2,right_wrist,0.4992,-0.4582,-0.5988,3.71,99.54,-38.36,0.3088113773755871,0.04003035503763998,-0.9042637862159284,0.29213029424793807,-141.7401740126585,-35.5830251348357,172.3666118408945,10
1767651699.457141,1,left_wrist,-0.242,0.7096,-0.5841,1.68,-26.25,-33.6,0.3807877177560966,0.9087103754786079,-0.038725699012228526,-0.16657277010257462,132.8749504861915,15.857173027639126,-11.831916596167186,11
1767651699.457141,2,right_wrist,0.102,-0.6061,-0.6832,0.77,-54.95,25.48,-0.002929373836903044,0.043079563143447054,-0.925584732604484,0.37606977115660206,-135.8391673759972,-1.5459747452967294,-175.29757382756898,11
1767651699.510817,1,left_wrist,-0.242,0.7096,-0.5841,1.68,-26.25,-33.6,0.3807877177560966,0.9087103754786079,-0.038725699012228526,-0.16657277010257462,132.8749504861915,15.857173027639126,-11.831916596167186,11
1767651699.510817,2,right_wrist,0.102,-0.6061,-0.6832,0.77,-54.95,25.48,-0.025225584819743862,0.04347140767890941,-0.9263703287638715,0.3732451212954195,-136.0690947810448,0.8185258371742077,-174.2964133667302,11
1767651699.5611799,1,left_wrist,-0.242,0.7096,-0.5841,1.68,-26.25,-33.6,0.3807877177560966,0.9087103754786079,-0.038725699012228526,-0.16657277010257462,132.8749504861915,15.857173027639126,-11.831916596167186,11
1767651699.5611799,2,right_wrist,0.102,-0.6061,-0.6832,0.77,-54.95,25.48,-0.025225584819743862,0.04347140767890941,-0.9263703287638715,0.3732451212954195,-136.0690947810448,0.8185258371742077,-174.2964133667302,11
1767651706.053747,1,left_wrist,-0.242,0.7096,-0.5841,1.68,-26.25,-33.6,0.3807877177560966,0.9087103754786079,-0.038725699012228526,-0.16657277010257462,132.8749504861915,15.857173027639126,-11.831916596167186,13
1767651706.053747,2,right_wrist,0.1386,-0.6217,-0.835,15.05,-51.31,33.18,-0.5910974502169934,0.16321788196651485,-0.7363374427037955,0.2859561117125639,-102.63586269612071,51.00019178689644,-113.20126818725004,13
1767651706.106966,1,left_wrist,-0.242,0.7096,-0.5841,1.68,-26.25,-33.6,0.3807877177560966,0.9087103754786079,-0.038725699012228526,-0.16657277010257462,132.8749504861915,15.857173027639126,-11.831916596167186,13
1767651706.106966,2,right_wrist,0.0234,-0.6681,-0.7422,13.23,-53.83,27.16,-0.6089049247439783,0.16028743013018673,-0.7246226854393221,0.2801155049466128,-99.58724185471726,52.4342897686546,-109.85662531656895,13
1767651706.158771,1,left_wrist,-0.242,0.7096,-0.5841,1.68,-26.25,-33.6,0.3807877177560966,0.9087103754786079,-0.038725699012228526,-0.16657277010257462,132.8749504861915,15.857173027639126,-11.831916596167186,13
1767651706.158771,2,right_wrist,-0.0395,-0.5954,-0.588,21.77,-57.68,33.04,-0.6289373562408084,0.15366962457899896,-0.7107581161645222,0.275038813102499,-95.62863290482291,54.048517861157954,-105.98174820743758,13
1767651706.210881,1,left_wrist,-0.242,0.7096,-0.5841,1.68,-26.25,-33.6,0.3807877177560966,0.9087103754786079,-0.038725699012228526,-0.16657277010257462,132.8749504861915,15.857173027639126,-11.831916596167186,13
1767651706.210881,2,right_wrist,-0.0395,-0.5954,-0.588,21.77,-57.68,33.04,-0.6485593203025394,0.14697368938475006,-0.6964302709765019,0.26973027331936494,-91.33849919632667,55.49393014859166,-101.76832176369642,13
1767651706.311627,1,left_wrist,-0.242,0.7096,-0.5841,1.68,-26.25,-33.6,0.3807877177560966,0.9087103754786079,-0.038725699012228526,-0.16657277010257462,132.8749504861915,15.857173027639126,-11.831916596167186,13
1767651706.311627,2,right_wrist,-0.1025,-0.5871,-0.7281,23.31,-75.32,39.97,-0.6950137046687962,0.130385373592177,-0.659499674752943,0.25498192813716436,-79.47907268029068,58.23678095172535,-89.99033580578151,13
1767651706.412572,1,left_wrist,-0.242,0.7096,-0.5841,1.68,-26.25,-33.6,0.3807877177560966,0.9087103754786079,-0.038725699012228526,-0.16657277010257462,132.8749504861915,15.857173027639126,-11.831916596167186,13
1767651706.412572,2,right_wrist,-0.4021,-0.6573,-0.7017,-13.51,-35.63,11.06,-0.726878149454339,0.1333120470018278,-0.6302220634848746,0.2381096484119969,-70.99757896049329,58.5069486689141,-79.82900861868238,13
1767651706.4672482,1,left_wrist,-0.242,0.7096,-0.5841,1.68,-26.25,-33.6,0.3807877177560966,0.9087103754786079,-0.038725699012228526,-0.16657277010257462,132.8749504861915,15.857173027639126,-11.831916596167186,13
1767651706.4672482,2,right_wrist,-0.0966,-0.8603,-0.529,-7.0,-31.64,33.6,-0.7358036513602864,0.13287805368669028,-0.6246420028759977,0.22529708772278753,-68.87168124381897,59.24408870059122,-76.6442776098129,13
1767651706.556283,1,left_wrist,-0.242,0.7096,-0.5841,1.68,-26.25,-33.6,0.3807877177560966,0.9087103754786079,-0.038725699012228526,-0.16657277010257462,132.8749504861915,15.857173027639126,-11.831916596167186,13
1767651706.556283,2,right_wrist,-0.3182,-0.7471,-0.6315,-1.75,-27.72,33.74,-0.7512885626000522,0.11925152260528729,-0.6181279591691694,0.19814741016734363,-63.94282302178555,61.82701609939277,-70.53747092206098,13
1767651706.60977,1,left_wrist,-0.242,0.7096,-0.5841,1.68,-26.25,-33.6,0.3807877177560966,0.9087103754786079,-0.038725699012228526,-0.16657277010257462,132.8749504861915,15.857173027639126,-11.831916596167186,13
1767651706.60977,2,right_wrist,-0.3182,-0.7471,-0.6315,-1.75,-27.72,33.74,-0.758683262013736,0.11581265861739716,-0.6134332395888726,0.1862439169789651,-61.38004788960382,62.58119009663651,-67.25691805014391,13
1767651706.7049851,1,left_wrist,-0.242,0.7096,-0.5841,1.68,-26.25,-33.6,0.3807877177560966,0.9087103754786079,-0.038725699012228526,-0.16657277010257462,132.8749504861915,15.857173027639126,-11.831916596167186,13
1767651706.7049851,2,right_wrist,-0.5051,-0.7344,-0.7549,-8.54,-7.35,-12.25,-0.7616704630117148,0.12298037724540391,-0.609783046979515,0.1813796245571057,-61.04073260339775,62.164913043013556,-65.91732550160542,13
1767651706.80789,1,left_wrist,-0.242,0.7096,-0.5841,1.68,-26.25,-33.6,0.3807877177560966,0.9087103754786079,-0.038725699012228526,-0.16657277010257462,132.8749504861915,15.857173027639126,-11.831916596167186,13
1767651706.80789,2,right_wrist,-0.6339,-0.7793,-0.7637,-5.25,3.22,-14.28,-0.7514936631443832,0.13769937541942473,-0.6167724446499983,0.18944104038830015,-65.45178128827303,61.024784699128,-69.78305441455007,13
1767651706.858142,1,left_wrist,-0.242,0.7096,-0.5841,1.68,-26.25,-33.6,0.3807877177560966,0.9087103754786079,-0.038725699012228526,-0.16657277010257462,132.8749504861915,15.857173027639126,-11.831916596167186,13
1767651706.858142,2,right_wrist,-0.4451,-0.8384,-0.8403,6.72,32.69,-39.34,-0.7367607465590228,0.1457396240784527,-0.6270438441253862,0.2067839013262904,-70.14927755446067,59.73338319264017,-75.27500670558481,13
1767651706.955542,1,left_wrist,-0.242,0.7096,-0.5841,1.68,-26.25,-33.6,0.3807877177560966,0.9087103754786079,-0.038725699012228526,-0.16657277010257462,132.8749504861915,15.857173027639126,-11.831916596167186,13
1767651706.955542,2,right_wrist,-0.406,-0.8545,-0.7749,-23.94,58.87,-54.25,-0.6836410661271687,0.18463087592196142,-0.6651629490644261,0.23686406133627125,-85.27208761195564,55.28556353288518,-89.70749312045963,13
1767651707.012585,1,left_wrist,-0.242,0.7096,-0.5841,1.68,-26.25,-33.6,0.3807877177560966,0.9087103754786079,-0.038725699012228526,-0.16657277010257462,132.8749504861915,15.857173027639126,-11.831916596167186,13
1767651707.012585,2,right_wrist,-0.162,-0.8325,-0.7803,-20.3,92.61,-56.14,-0.6452805970712481,0.19987113341393617,-0.6915456640702983,0.2557910779850855,-93.40227640609079,52.20715010714018,-98.19289148487252,13
1767651707.112628,1,left_wrist,-0.242,0.7096,-0.5841,1.68,-26.25,-33.6,0.3807877177560966,0.9087103754786079,-0.038725699012228526,-0.16657277010257462,132.8749504861915,15.857173027639126,-11.831916596167186,13
1767651707.112628,2,right_wrist,0.0747,-0.815,-0.6856,20.72,67.06,-51.03,-0.5873306212878224,0.2094991156929736,-0.7210852883943497,0.30197494711111406,-100.61231752796581,46.096104995459825,-108.69794014989041,13
1767651707.2065668,1,left_wrist,-0.242,0.7096,-0.5841,1.68,-26.25,-33.6,0.3807877177560966,0.9087103754786079,-0.038725699012228526,-0.16657277010257462,132.8749504861915,15.857173027639126,-11.831916596167186,13
1767651707.2065668,2,right_wrist,0.2474,-0.4651,-0.6427,-36.61,100.1,-58.31,-0.4977889496058612,0.24120273301023043,-0.7650312815317708,0.3297795347145502,-111.06918474495234,37.05352142721792,-119.09372899752913,13
1767651707.3054788,1,left_wrist,-0.242,0.7096,-0.5841,1.68,-26.25,-33.6,0.3807877177560966,0.9087103754786079,-0.038725699012228526,-0.16657277010257462,132.8749504861915,15.857173027639126,-11.831916596167186,13
1767651707.3054788,2,right_wrist,0.3265,-0.2372,-0.4656,-34.09,146.3,-47.95,-0.36679010521942096,0.24811326032458145,-0.8228291755369208,0.3561698704964585,-121.85094369414847,25.269102578600258,-132.2311460968359,13
1767651709.106287,1,left_wrist,-0.242,0.7096,-0.5841,1.68,-26.25,-33.6,0.3807877177560966,0.9087103754786079,-0.038725699012228526,-0.16657277010257462,132.8749504861915,15.857173027639126,-11.831916596167186,14
1767651709.106287,2,right_wrist,0.0752,-0.6456,-0.7754,1.47,-48.51,30.73,-0.5758742775877226,0.30165721658813033,-0.6988808489986943,0.2982235721668972,-101.74229846542147,38.68309925039486,-101.43363862354919,14
1767651709.160764,1,left_wrist,-0.242,0.7096,-0.5841,1.68,-26.25,-33.6,0.3807877177560966,0.9087103754786079,-0.038725699012228526,-0.16657277010257462,132.8749504861915,15.857173027639126,-11.831916596167186,14
1767651709.160764,2,right_wrist,-0.042,-0.65,-0.8618,6.86,-51.59,36.68,-0.5934562757467107,0.2977381893574911,-0.6916671824628723,0.2841797460742739,-100.18406161747438,40.67187177170804,-98.97513067667357,14
1767651709.218534,1,left_wrist,-0.242,0.7096,-0.5841,1.68,-26.25,-33.6,0.3807877177560966,0.9087103754786079,-0.038725699012228526,-0.16657277010257462,132.8749504861915,15.857173027639126,-11.831916596167186,14
1767651709.218534,2,right_wrist,-0.042,-0.65,-0.8618,6.86,-51.59,36.68,-0.610661988844043,0.2936262213861705,-0.6840607721759503,0.270067468358483,-98.46120472608149,42.598915974968946,-96.37632877073743,14
1767651711.812883,1,left_wrist,0.0244,0.5958,-0.7037,0.14,-47.04,-35.35,0.21953270405852013,0.8253203825874577,-0.09478168797002566,-0.5115350325833016,129.6205228537928,53.393056736028235,-39.71704213563876,15
1767651711.812883,2,right_wrist,-0.0098,-0.5729,-0.6949,19.25,-50.54,32.48,-0.9115575732870648,0.2820537990289812,-0.29468132051457274,0.05168524331087454,-39.22623298089555,30.536153004887268,-17.601834950783417,15
1767651711.8851242,1,left_wrist,-0.1415,0.5505,-0.6149,-16.45,-54.6,-47.81,0.20815395120221986,0.804031254702101,-0.0676561200830065,-0.5528366155351715,126.41409805592674,59.40990986668463,-41.76257424293079,15
1767651711.8851242,2,right_wrist,-0.0293,-0.6754,-0.6734,6.44,-60.83,34.09,-0.9187890754780513,0.28050831062895976,-0.27586124875959456,0.032284576550910854,-37.681402103123126,29.262029780720404,-14.205666013308953,15
1767651711.957786,1,left_wrist,-0.0952,0.5353,-0.7344,1.96,-41.16,-39.06,0.19787235411944834,0.7974969039923709,-0.06008557341829393,-0.5667759199761452,126.04275309909391,61.669581567741545,-42.42301189049103,15
1767651711.957786,2,right_wrist,-0.1606,-0.6793,-0.7076,17.85,-60.83,28.84,-0.9323995367051888,0.2726030678118908,-0.23728729251097372,-0.003662264914859024,-34.440597112486536,26.390701739126996,-7.8625799718072775,15
1767651712.021604,1,left_wrist,-0.2533,0.5373,-0.7774,3.57,-77.98,-28.56,0.17852871010249,0.7642210742899948,-0.05881162266925226,-0.6169561105291015,116.86490236805176,67.21766696064853,-53.22734212453579,15
1767651712.021604,2,right_wrist,-0.1108,-0.7696,-0.6129,8.33,-74.97,32.13,-0.9390232725309637,0.2698657116019578,-0.21173475288627797,-0.024003869833740994,-33.003441463429105,24.242742817068446,-4.352483920122825,15
1767651712.1123772,1,left_wrist,-0.2664,0.5592,-0.5851,4.62,-50.19,-12.88,0.17377926297551524,0.7535026274146862,-0.06189578440050837,-0.63103365212348,112.83873199571465,68.35058075446861,-57.92127639996192,15
1767651712.1123772,2,right_wrist,-0.2113,-0.7247,-0.6422,-4.41,-45.99,31.22,-0.9447179276678394,0.2701084318802598,-0.17751076638471658,-0.055130753556256705,-31.815707025796783,21.418523349447593,0.509100047440338,15
1767651712.1676202,1,left_wrist,-0.4377,0.65,-0.6349,22.75,-47.6,-17.29,0.14967428439957225,0.7355025155556473,-0.07467886130611016,-0.6565491039326865,106.30400170110765,70.63614689310653,-67.52845214284352,15
1767651712.1676202,2,right_wrist,-0.3226,-0.6505,-0.7193,-5.88,-34.72,34.93,-0.9441835173207024,0.27291953926193996,-0.16909665903628418,-0.07374774987566615,-31.707530688290408,21.07384957868177,2.884880943273696,15
1767651712.2201972,1,left_wrist,-0.388,0.548,-0.731,5.88,-17.43,-28.42,0.14013633089670235,0.7343633531759078,-0.07026860853627967,-0.6604048734900597,106.4991481056105,71.85287899813186,-67.76544403176743,15
1767651712.2201972,2,right_wrist,-0.3616,-0.7383,-0.7369,10.57,-31.08,29.61,-0.9451787576993593,0.26938734413991366,-0.16196452435603556,-0.08851591755872405,-30.917949321394936,20.723653338764606,4.910702265682481,15
1767651712.3030882,1,left_wrist,-0.4192,0.5578,-0.73,3.01,-15.75,-14.63,0.13561883538954442,0.7330275581247228,-0.06931613019329874,-0.6629279030274073,106.16437237967725,72.38049885940863,-68.39704089298995,15
1767651712.3030882,2,right_wrist,-0.5231,-0.672,-0.6852,-8.75,-23.87,8.89,-0.9425902329181625,0.27845802806681835,-0.14945647671433507,-0.10792377393587055,-31.619115277536466,19.990047685261988,7.349905409036097,15
1767651712.360945,1,left_wrist,-0.4192,0.5578,-0.73,3.01,-15.75,-14.63,0.1311276972844301,0.7316679417978925,-0.06835694714596086,-0.6654283415417496,105.79639699953516,72.9049066327261,-69.05852889201462,15
1767651712.360945,2,right_wrist,-0.5231,-0.672,-0.6852,-8.75,-23.87,8.89,-0.9411387888994835,0.28412234587553237,-0.14256338469046825,-0.11492586283598191,-32.17757714606313,19.490458375878795,8.25254342089367,15
1767651712.4164639,1,left_wrist,-0.6998,0.6588,-0.6568,7.91,4.9,10.08,0.13311253415197655,0.7355266393407939,-0.07565611937395614,-0.6599680050373278,107.53877042970485,71.9352229028027,-67.74583811874759,15
1767651712.4164639,2,right_wrist,-0.5592,-0.7452,-0.795,-30.31,3.08,-7.98,-0.935973424609121,0.3010025237940271,-0.14344724854491805,-0.11302263481264578,-34.32837981512794,19.667782906851958,7.641489043244007,15
1767651712.5047538,1,left_wrist,-0.4865,0.7476,-0.7754,11.83,16.59,23.45,0.1432742117764514,0.7490296815120885,-0.10008388291459715,-0.639069834082687,112.53336963221977,68.23085313970685,-63.9022959479718,15
1767651712.5047538,2,right_wrist,-0.4714,-0.6886,-0.8194,-19.95,36.96,-48.65,-0.9276952072571072,0.33111430883456133,-0.15632792447723215,-0.07284570643383557,-38.94939006427492,19.772716336604798,1.9263163315630338,15
1767651712.5566552,1,left_wrist,-0.5958,0.63,-0.752,23.8,34.23,40.95,0.14944048704483986,0.7602582956525652,-0.11976187222143644,-0.6207511245944497,116.1631559991217,65.239692044072,-61.374590467701424,15
1767651712.5566552,2,right_wrist,-0.3216,-0.7305,-0.7271,-4.27,72.03,-67.41,-0.9217112241571066,0.3433764390193279,-0.17692021156183288,-0.035217596881815263,-41.49164256044869,20.507162769083912,-3.463213991010928,15
1767651712.6095848,1,left_wrist,-0.4128,0.4904,-0.7325,40.04,79.87,66.64,0.15888949033857008,0.7823152685622696,-0.14892322437865568,-0.5835741800962052,122.43049305105265,59.968835304357604,-56.73339997967453,15
1767651712.6095848,2,right_wrist,-0.325,-0.6969,-0.8423,-33.81,71.68,-46.34,-0.9092061780002831,0.3651702818886455,-0.19981335253304713,-0.008331582142001227,-45.31609233074431,21.680342521363315,-8.09051843258775,15
1767651712.660535,1,left_wrist,-0.4128,0.4904,-0.7325,40.04,79.87,66.64,0.16777020858890726,0.8021778390620659,-0.17766226525479237,-0.5447935307364474,127.11083773497691,54.531013243840206,-53.73069894708626,15
1767651712.660535,2,right_wrist,-0.1884,-0.711,-0.9287,20.16,120.05,-35.84,-0.8987375193753259,0.3641471472654204,-0.2427747553179544,0.026984154347489388,-47.261686752678045,24.628257030910337,-14.351074390578479,15
1767651712.71238,1,left_wrist,-0.2689,0.4724,-0.7193,37.94,102.55,45.85,0.17382840746410086,0.8264664151888875,-0.19665783958725308,-0.4980588754878266,132.54196725114016,49.0156218646636,-49.432929888039936,15
1767651712.71238,2,right_wrist,0.0171,-0.6027,-0.8198,-8.96,70.42,-18.2,-0.8871387614767499,0.37267624764071156,-0.2684734365839659,0.044936023174426805,-49.853919627077026,26.286069169403387,-18.186457006911567,15
1767651712.770441,1,left_wrist,-0.0386,0.4807,-0.7466,-7.56,52.64,29.61,0.19407332358959045,0.8561283483034686,-0.22217072282675085,-0.424287598476203,137.31067393520306,39.810796603766505,-45.203515406530414,15
1767651712.770441,2,right_wrist,-0.0068,-0.5802,-0.8311,-9.52,60.41,-37.1,-0.8751834396715256,0.38330795105714405,-0.28711975778153864,0.06849238112784414,-52.68974343752269,26.74737737710745,-22.379299954772858,15
1767651712.860534,1,left_wrist,-0.0386,0.4807,-0.7466,-7.56,52.64,29.61,0.20848123597738338,0.8633119698955362,-0.22913089367726266,-0.39840563555638925,137.66986292337162,36.324498585167206,-44.20541029079491,15
1767651712.860534,2,right_wrist,0.0703,-0.7896,-0.8032,-8.96,71.12,-42.35,-0.8508800592975526,0.39486903686133684,-0.322951454973591,0.12563409628136074,-57.512373950071904,26.76728901347404,-31.676049996031754,15
1767651712.9130912,1,left_wrist,0.0659,0.4329,-0.7813,29.19,89.39,29.12,0.2150681801566095,0.8926168027993799,-0.2473649715348319,-0.3095020066201649,143.12315878786868,26.495832323540316,-39.95478123885635,15
1767651712.9130912,2,right_wrist,0.1747,-0.5163,-0.771,18.9,72.52,-52.64,-0.8379599287130004,0.395032524160747,-0.3404105901295303,0.16091330850540875,-59.409945263843376,26.319027754975142,-36.93550781928475,15
1767651712.97056,1,left_wrist,0.2908,0.6915,-0.7984,33.25,95.76,33.39,0.2188799505231252,0.9042143163141553,-0.25730608133290617,-0.2613075160431148,145.36181977742774,21.095142353564874,-38.414785474308495,15
1767651712.97056,2,right_wrist,0.1937,-0.6749,-0.7247,-7.77,69.93,-47.39,-0.8199142651916858,0.4037118278028681,-0.3588043202004895,0.1897809727889225,-62.441726940683616,25.794451719426696,-41.86794835964871,15
1767651713.0566888,1,left_wrist,0.2162,0.3611,-0.588,36.96,106.75,33.46,0.22114012043666095,0.9152029808938517,-0.2656973964934109,-0.20713629424340513,147.7626567232567,15.166850034724503,-36.78428187283046,15
1767651713.0566888,2,right_wrist,0.385,-0.4382,-0.5612,-22.47,89.11,-54.95,-0.7709413876191552,0.4243703785146115,-0.4014261989103989,0.25380339935384166,-69.69329216331613,23.79959646856276,-53.137602669096516,15
1767651713.1147141,1,left_wrist,0.5656,0.4299,-0.59,39.97,135.59,25.97,0.22591277203533286,0.9309406407184806,-0.2735328365304588,-0.08656055816350795,152.07549125031764,2.1534738337759154,-33.283596831298404,15
1767651713.1147141,2,right_wrist,0.6154,-0.5353,-0.6027,-10.15,98.77,-52.5,-0.7424986520281759,0.4294922106074395,-0.42498608201103677,0.2891695399947665,-73.01727200447034,22.501713138253024,-59.310002993196754,15
1767651714.9107578,1,left_wrist,0.0927,0.5451,-0.8042,8.68,-54.81,-31.99,0.1692616212752969,0.9458033047736496,-0.16780163678317186,-0.22056568848166164,155.00104211990757,21.125915729701433,-24.855519729133576,16
1767651714.9107578,2,right_wrist,0.0937,-0.6364,-0.8316,11.9,-43.82,33.67,-0.8011365163630058,0.5290145004416839,-0.2638509190383901,0.09330934034050391,-71.44452978570793,18.90725571048969,-26.94385721805229,16
1767651714.961758,1,left_wrist,-0.0332,0.6032,-0.671,-15.26,-47.95,-38.29,0.17446581732131267,0.9381233022459139,-0.14274747115463066,-0.26288687272016065,153.32393678547638,26.32302979007344,-23.65043517149854,16
1767651714.961758,2,right_wrist,0.1,-0.7496,-0.5466,23.45,-51.66,30.8,-0.8109331360768905,0.5228824500828602,-0.2519401851447627,0.07421277057937557,-69.7736864867884,19.329736351653324,-24.001647208607874,16
1767651715.02491,1,left_wrist,-0.0883,0.5597,-0.6715,-19.11,-62.79,-41.09,0.17699368519363182,0.931556174197001,-0.12994592189494708,-0.28981095062108436,152.232752837049,29.60061144815835,-23.355295818033838,16
1767651715.02491,2,right_wrist,-0.0356,-0.7452,-0.7481,18.55,-65.8,36.68,-0.8205696295264746,0.5177600460767618,-0.23710937515927144,0.04867403822320154,-68.06922841354259,19.799308191930706,-20.234169783281807,16
1767651715.1061518,1,left_wrist,-0.1889,0.6451,-0.7008,-5.18,-53.06,-36.89,0.1750529153545514,0.92610582252072,-0.11995004201313525,-0.31192382041155475,151.79569738023392,32.395041527939405,-23.107365263884677,16
1767651715.1061518,2,right_wrist,-0.0683,-0.6071,-0.7193,0.91,-46.48,16.03,-0.8271177398990912,0.5192808586174474,-0.21463105721961476,0.012535688833734918,-66.9074845574361,20.000675585499792,-15.027478253110162,16
1767651715.156163,1,left_wrist,-0.1889,0.6451,-0.7008,-5.18,-53.06,-36.89,0.17279504308565122,0.9202011588040575,-0.11006776708801128,-0.3335517756945047,151.39397044931445,35.157857670294206,-22.877606067348054,16
1767651715.156163,2,right_wrist,-0.102,-0.7052,-0.4787,3.08,-49.98,30.24,-0.8300216502982728,0.51901906796586,-0.20397355648454554,-0.008834895530112817,-66.22184371006944,20.351339080600646,-12.133272328006075,16
1767651715.209718,1,left_wrist,-0.1889,0.6451,-0.7008,-5.18,-53.06,-36.89,0.17023126401523403,0.913846544848137,-0.10027202193891249,-0.354755311217718,151.02458402684354,37.897078550842316,-22.662460774877715,16
1767651715.209718,2,right_wrist,-0.2089,-0.6666,-0.6778,17.29,-46.2,32.34,-0.8352129774281991,0.5130852239490463,-0.19572507054977425,-0.029232380316451555,-64.85837153045155,20.912490188482476,-9.365783805038198,16
1767651715.275713,1,left_wrist,-0.3128,0.5407,-0.5988,-10.57,-23.24,-44.73,0.16673846949849286,0.9044421265276943,-0.07478996497800472,-0.3854726756722858,150.96543004791465,42.247516697864945,-20.879976659545108,16
1767651715.275713,2,right_wrist,-0.2933,-0.7735,-0.7115,2.94,-36.96,26.53,-0.8361308471069082,0.5126635248236384,-0.18941765919993278,-0.04671474301443606,-64.38222972613981,21.386277618384522,-7.162328846968543,16
1767651715.361734,1,left_wrist,-0.3982,0.5983,-0.7998,14.98,-27.23,-28.7,0.15777003680261975,0.9027157267506668,-0.069846704529136,-0.3941248152942608,152.01078046103757,43.59259175854367,-20.23199993096542,16
1767651715.361734,2,right_wrist,-0.3684,-0.7613,-0.6695,8.54,-29.19,15.61,-0.8354377623111942,0.5144377182859661,-0.17747555596890843,-0.07681149876627034,-63.90142141589436,22.059486541882176,-3.356214321856085,16
1767651715.417087,1,left_wrist,-0.5295,0.6671,-0.5958,-0.14,-17.5,-19.04,0.15834692807365158,0.897087547180312,-0.061203520488594135,-0.4079391034743439,151.57032137527375,45.44125206036377,-19.915429391029345,16
1767651715.417087,2,right_wrist,-0.4685,-0.6207,-0.7247,7.49,-15.89,18.48,-0.8352625116119324,0.5130017924496532,-0.1778957460814933,-0.08671102101392854,-63.585011943838886,22.714848738898176,-2.34038512083881,16
1767651715.4726772,1,left_wrist,-0.6032,0.5749,-0.7208,12.32,-8.89,-17.5,0.15371370445099194,0.8972980791040823,-0.05929268426576174,-0.4095273274064115,152.27684661852132,45.78334910298472,-19.458022714222583,16
1767651715.4726772,2,right_wrist,-0.4246,-0.7818,-0.693,-2.94,-10.08,6.09,-0.8327741749390974,0.5165992104632383,-0.1768604920296103,-0.09128414792453667,-64.0120538232636,22.885097460624866,-1.9092341334263012,16
1767651715.5228102,1,left_wrist,-0.6032,0.5749,-0.7208,12.32,-8.89,-17.5,0.14911833027860444,0.8974579452473344,-0.05737142250120957,-0.4111465431783922,152.98325711259605,46.125794069088215,-18.995797106945883,16
1767651715.5228102,2,right_wrist,-0.4763,-0.6656,-0.6817,-3.85,6.65,-19.25,-0.8297081472009918,0.5229795483150211,-0.17650081400991904,-0.08321204940601824,-65.01705317364409,22.32902013955127,-2.8832455852073355,16
1767651715.61135,1,left_wrist,-0.6032,0.5749,-0.7208,12.32,-8.89,-17.5,0.1445555293808658,0.8975701583032086,-0.05543994619696288,-0.4127928320776036,153.69074599235506,46.46824503145881,-18.528056393876998,16
1767651715.61135,2,right_wrist,-0.3406,-0.7632,-0.7593,-5.53,32.06,-34.58,-0.8157050494101454,0.546702308508191,-0.18165510625360973,-0.052376336360961756,-68.93287383113295,20.709044361065384,-6.949403817485535,16
1767651715.664903,1,left_wrist,-0.6032,0.5749,-0.7208,12.32,-8.89,-17.5,0.1400208817956754,0.8976373114733729,-0.05349854351318717,-0.41446268294501964,154.40035287412204,46.81036985537027,-18.0541885398015,16
1767651715.664903,2,right_wrist,-0.3465,-0.7969,-0.6661,-4.76,39.9,-38.22,-0.8095338311984897,0.5554560277839045,-0.18774619960370378,-0.02957941645786495,-70.62006648348444,19.684096982148482,-9.825646354344348,16
1767651715.718996,1,left_wrist,-0.6032,0.5749,-0.7208,12.32,-8.89,-17.5,0.13102172191294054,0.8976451033884724,-0.04958732480067968,-0.417860830862117,155.829465811649,47.49237519168693,-17.085957980594678,16
1767651715.718996,2,right_wrist,-0.2977,-0.6954,-0.6324,-13.3,52.01,-54.95,-0.7997328353226539,0.5682325661813395,-0.19374607362617544,0.001265619294713491,-72.93493964820463,17.965957215848338,-13.509131671873416,16
