timestamp,node_id,node_name,ax,ay,az,gx,gy,gz,qw,qx,qy,qz,roll,pitch,yaw,rep_number
1767284056.927925,1,left_wrist,-0.1362,-0.0898,-0.8457,35.7,-216.51,-0.56,-0.2642854044885931,-0.508760631548572,-0.790400113968666,0.21583212133257296,-174.6181058115868,39.59793359776645,116.40200686435841,1
1767284056.927925,2,right_wrist,-0.144,-0.1947,-0.5007,-16.59,-162.75,-24.01,0.1532363338202375,0.6533088350438764,0.6618701496075984,-0.33411689138587586,-161.6494377379419,39.747700474335865,97.42897982514033,1
1767284057.004598,1,left_wrist,-0.4255,-0.161,-0.5256,32.69,-197.54,-10.01,-0.38501647387183957,-0.46373432246163154,-0.7296220100553091,0.3230549728160777,-166.98980208513467,59.48049657851673,122.57599597489487,1
1767284057.004598,2,right_wrist,-0.2821,-0.06,-0.4914,40.88,-141.82,-47.6,0.174780937652426,0.6219454110333514,0.6594333447225209,-0.3844257969959392,-155.76511643679726,45.12895586843255,103.54779463634691,1
1767284057.077991,1,left_wrist,-0.55,-0.08,-0.0156,28.49,-140.63,41.02,-0.4310106229264457,-0.45979127493935595,-0.6906155388935357,0.3547844470280371,-166.03384272610714,67.15800199614861,121.98845329566173,1
1767284057.077991,2,right_wrist,-0.4782,-0.0976,-0.124,28.98,-112.91,-33.74,0.2213600019180159,0.5629362661194521,0.6424504119893027,-0.4704890837980416,-142.27368260937712,54.5020588878655,117.50887105615064,1
1767284057.134619,1,left_wrist,-0.5148,0.1069,0.346,-1.75,-117.6,20.3,-0.47140134838702114,-0.4462390062594867,-0.6621934040236178,0.37436801906554174,-164.740586125911,73.4221510977349,123.4580026548946,1
1767284057.134619,2,right_wrist,-0.5944,-0.5314,-0.0327,57.33,-84.0,-46.76,0.22028274195301184,0.5355694294375015,0.6328283054174636,-0.5139739640410917,-132.10211673983304,56.030978493288224,126.10907832656426,1
1767284057.205396,1,left_wrist,-0.875,0.0732,0.0337,37.03,-7.98,-14.56,-0.5058500857512608,-0.43415025196268303,-0.6238557627690352,0.407962298167424,-155.8105494648459,80.193590417651,130.78581455629745,1
1767284057.205396,2,right_wrist,-0.7052,-0.4568,-0.0239,-34.86,-34.44,-3.99,0.2373056408508152,0.5216467852018354,0.6371489998937487,-0.5153754129208823,-131.03738457788933,57.14919769894879,129.24021228789397,1
1767284057.263731,1,left_wrist,-0.9594,-0.0366,-0.0127,-7.49,3.85,-4.76,-0.5077354161536716,-0.43103419295087475,-0.6248584854555601,0.4073894265253206,-154.90206847827614,80.30668184763145,132.07516881975687,1
1767284057.263731,2,right_wrist,-0.7701,-0.4416,-0.1615,23.94,-31.92,-20.79,0.23622805153708945,0.5092723186780607,0.6319857554075908,-0.534258381363511,-126.14777533558302,57.43182592347322,133.37289489062047,1
1767284057.325793,1,left_wrist,-0.9594,-0.0366,-0.0127,-7.49,3.85,-4.76,-0.5096331260111951,-0.4279468957409365,-0.6258313241045341,0.4067808809018916,-154.0023196792709,80.41855012736127,133.35533236960745,1
1767284057.325793,2,right_wrist,-0.7042,-0.3782,-0.0171,-6.3,-2.87,-4.13,0.25008533757309787,0.4976651877300572,0.639367882214454,-0.5300899886294408,-126.11260351104902,57.93082960963981,135.63538164377923,1
1767284057.410493,1,left_wrist,-0.8662,0.1484,0.0561,9.45,69.72,-9.38,-0.4822333469942441,-0.44604586968371335,-0.6432638439191604,0.39332646528192705,-161.4130022260643,76.23741613419854,125.15738159409082,1
1767284057.410493,2,right_wrist,-0.6427,-0.4329,0.1957,2.73,37.94,0.0,0.23937408350506628,0.5053484785860478,0.6416948791305618,-0.5249291813516278,-127.74992372694338,56.903762210562654,133.32262633650467,1
1767284057.4721658,1,left_wrist,-0.6364,0.1362,0.3011,-31.71,134.4,-14.56,-0.4495292675803411,-0.4572589273101713,-0.6770103466244811,0.36124050374678834,-166.88363952003803,69.88976056098521,121.11499621428163,1
1767284057.4721658,2,right_wrist,-0.4851,-0.2601,0.06,-75.18,120.61,37.73,0.21624698992475358,0.556453163469512,0.6685250444027532,-0.4434764720022392,-145.52867965058203,51.50668914604977,117.4783282880663,1
1767284057.5252259,1,left_wrist,-0.5309,0.0298,-0.1674,-42.98,206.71,-35.84,-0.39275302800553363,-0.4706878359106402,-0.7264463502734314,0.310602189774402,-170.7107435326667,59.657531798147694,119.4530574644277,1
1767284057.5252259,2,right_wrist,-0.3192,-0.2503,-0.1986,-69.65,182.35,33.95,0.18294920193522535,0.5909235716985844,0.6893743101742048,-0.37696416592839604,-154.9307949747763,44.24716229017841,109.12367825349442,1
1767284057.606693,1,left_wrist,-0.2294,0.0127,-0.7232,-74.13,248.85,-41.16,-0.2468982319725098,-0.4745138501023936,-0.8286109531143507,0.16517190284300548,-177.2599416007262,34.466054124294395,121.25382852075823,1
1767284057.606693,2,right_wrist,-0.2137,-0.1181,-0.5392,-90.16,200.2,38.29,0.14937739113262452,0.6260136394453008,0.7082200333160209,-0.29020286465973133,-164.10906588455893,35.094451832922736,102.10541415815551,1
1767284057.662296,1,left_wrist,-0.0644,0.0171,-0.9467,-79.52,254.59,-6.65,-0.16580891929529235,-0.47917095956049666,-0.858099959189409,0.08103736073648339,178.78124293452012,21.236765828848235,121.41271234939326,1
1767284057.662296,2,right_wrist,-0.0547,-0.063,-0.9023,-56.7,183.89,16.94,0.10729913121571805,0.649230074132136,0.7211879166857608,-0.21650680384040047,-168.92005360300675,25.842011453730905,98.56090010399534,1
1767284057.7221498,1,left_wrist,-0.0283,-0.1893,-1.1146,-43.47,198.17,-18.34,-0.09471766228278633,-0.47417668099564575,-0.8749757633989445,0.024544920372082193,177.26400586546168,10.896098409362176,122.82971504840144,1
1767284057.7221498,2,right_wrist,0.1928,-0.2552,-1.2141,-30.17,185.64,46.55,0.00790374699802605,0.6914127289189921,0.7196473122724679,-0.06319584647108084,-175.38722712789226,5.668037741079843,92.52108280139564,1
1767284057.8039901,1,left_wrist,0.2503,-0.2328,-0.6803,-35.63,182.63,52.71,0.044918698013959056,-0.481419396268515,-0.8716932387241662,-0.07980333970306638,174.43045942712686,-8.925403177430445,122.6129744565483,1
1767284057.8039901,2,right_wrist,0.283,0.1459,-1.2005,-71.89,160.93,39.9,-0.021062795544278815,0.7058689326712971,0.7079139420147329,0.012777293708175833,-179.3320274325322,-2.7431942707784294,90.14976058322247,1
1767284061.4291599,1,left_wrist,0.0956,0.0659,-1.0243,14.98,-276.01,-47.18,-0.2702814421369667,-0.49401765990512525,-0.8115993356321989,0.15556674496690784,178.96644162002082,36.32934823311267,117.00342600546723,2
1767284061.4291599,2,right_wrist,0.4934,-0.1269,-0.6983,40.53,-273.0,-50.19,0.10454915624973068,0.6644329330798313,0.6924759870630093,-0.2609125499233655,-165.202756826952,29.440097770739683,96.27566726729509,2
1767284061.509011,1,left_wrist,0.0151,-0.1625,-0.181,-17.43,-248.85,0.56,-0.437884609658489,-0.42848639869354904,-0.7445507916361044,0.26514259075621194,-177.64538270275213,61.55498869526904,121.56195255630118,2
1767284061.509011,2,right_wrist,0.3016,-0.1396,-0.2826,28.07,-218.68,-30.52,0.15553269771026773,0.628813170676019,0.6861031866929942,-0.33115856253018244,-160.53481226139118,39.042500957736216,101.94921230724272,2
1767284061.582737,1,left_wrist,-0.2786,0.0268,0.0903,-21.98,-192.15,12.11,-0.5063668468338195,-0.4038373258440606,-0.7039381047658382,0.2915118785596446,-179.74118622149817,71.50450335953498,120.50201366276093,2
1767284061.582737,2,right_wrist,-0.3196,-0.1815,-0.2445,19.39,-116.83,-23.94,0.2077268028917148,0.5642502052675286,0.669353560169681,-0.43639098604819043,-146.71657782954884,50.403551928726934,115.75374125855656,2
1767284061.654285,1,left_wrist,-0.7769,0.141,0.1957,1.12,-54.11,7.91,-0.5684657706429344,-0.3835429371656253,-0.6565234219942506,0.31419497025041443,171.44381350413528,80.90830072050571,112.11326099840466,2
1767284061.654285,2,right_wrist,-0.51,-0.2572,0.062,22.61,-89.39,-30.38,0.2232675618992268,0.538768429232475,0.6626988215226494,-0.46979830503998016,-140.21738102143289,53.33526165747616,122.37741543168059,2
1767284061.711904,1,left_wrist,-0.8003,0.0229,0.3367,2.94,-12.46,3.92,-0.5741023835844726,-0.3826925760336728,-0.6506214670162136,0.3172452553924311,169.20764571769888,81.83431614773015,109.71113812867313,2
1767284061.711904,2,right_wrist,-0.6764,-0.527,0.0761,28.21,-53.13,-26.88,0.22653196708576326,0.5211110419830522,0.656934391954392,-0.4955438976307805,-134.3899627125056,54.49847617173805,127.59088367861592,2
1767284061.774983,1,left_wrist,-0.8003,0.0229,0.3367,2.94,-12.46,3.92,-0.5797046199409628,-0.3817926844184672,-0.6446673274016218,0.3202825888563018,166.3944207818448,82.74609886241576,106.73306537474447,2
1767284061.774983,2,right_wrist,-0.6852,-0.3909,0.1679,-24.36,24.64,-2.17,0.23160027443154094,0.5142286372269678,0.6621937544161312,-0.4933859069239809,-134.34551599213847,54.50387946773392,128.80307668735205,2
1767284061.825776,1,left_wrist,-0.7754,0.0771,0.4255,-18.34,31.99,13.86,-0.5776763932715389,-0.38466734205832925,-0.6511746937233607,0.30707090201589265,162.82214511862676,81.33146005696945,104.07055216270105,2
1767284061.825776,2,right_wrist,-0.5807,-0.3289,0.0956,-21.07,78.47,-0.21,0.21431468846017684,0.5275913960958452,0.6731771906002192,-0.47175099695861866,-138.5458917285328,51.8435816472042,124.66912286813712,2
1767284061.909209,1,left_wrist,-0.5056,0.1972,-0.0068,-33.04,220.43,7.21,-0.49904566230594266,-0.4087565870725778,-0.73147132251495,0.22095516241226737,168.16246655388844,65.6035059857102,113.96066621894155,2
1767284061.909209,2,right_wrist,-0.4099,-0.346,0.2108,-20.3,145.11,9.45,0.17818495096545223,0.5562664815868945,0.6866574517396171,-0.43280396102950786,-144.81432466504145,46.56982570989742,117.51852121539683,2
1767284061.978474,1,left_wrist,-0.2855,-0.0839,-0.3328,-13.72,225.96,10.5,-0.4244641760303286,-0.428596335923154,-0.7784669309595926,0.17356434398370532,170.8216583030761,54.06084485896842,117.63859384298013,2
1767284061.978474,2,right_wrist,0.0288,-0.0537,-0.3665,-30.31,243.95,-11.06,0.05376258599274764,0.6231252537090023,0.7168002671320702,-0.3082561914655676,-155.00459777798474,27.467055012670045,104.19957383105826,2
1767284062.0583968,1,left_wrist,0.3138,0.3958,-1.1312,5.74,308.56,46.13,-0.2057212847608184,-0.4855902467331498,-0.8496149685296378,0.0059388992565455115,168.29074902423645,20.814008339794967,118.34268881047755,2
1767284062.0583968,2,right_wrist,0.2572,-0.386,-0.6412,-58.31,224.63,17.08,-0.0023360341730969594,0.6534590350643592,0.7226963200992756,-0.2251574146060129,-159.91946186111596,16.91099544333998,98.77583863013744,2
1767284062.1260428,1,left_wrist,0.5817,-0.0332,-1.2278,-63.42,320.39,43.05,-0.09495238043240255,-0.4919894669949392,-0.8607417100367737,-0.0897447403429671,165.6036417245065,4.309956754336424,119.9518950995804,2
1767284062.1260428,2,right_wrist,0.6593,-0.1469,-1.2015,-69.23,225.96,17.78,-0.1376911915689417,0.6926208603260879,0.7070897259769491,-0.0366278449177391,-165.8129861403357,-8.278312375337405,90.15256186004183,2
1767284063.133677,1,left_wrist,-0.1069,0.042,-0.7735,61.67,-253.05,-19.53,-0.39631872359388637,-0.47847586683268906,-0.7476510023923925,0.23454273130768816,177.16205512963114,54.79178634195268,113.29275996350316,3
1767284063.133677,2,right_wrist,0.0468,-0.0327,-0.6622,48.37,-213.43,-49.77,0.18430555417274802,0.5950523280602225,0.703316010969277,-0.34247741281061056,-159.3833903685632,41.82318361369163,107.483920935439,3
1767284063.207021,1,left_wrist,-0.3636,0.0996,-0.1308,55.65,-201.81,1.61,-0.5194306652960362,-0.44584226505206953,-0.6433773459890185,0.3427565452496628,174.39443033254125,76.90874631832263,106.10537641759736,3
1767284063.207021,2,right_wrist,-0.1635,-0.3445,-0.5309,-4.76,-203.21,-33.95,0.23737722739293501,0.5513299786625243,0.6957697334770896,-0.3944512447951494,-153.5075666472619,49.930606570845036,115.72191000893339,3
1767284063.275357,1,left_wrist,-0.5231,0.0498,0.0473,-2.03,-179.55,-3.01,-0.5704780918005786,-0.41542996477953537,-0.5995129956663725,0.377567026057595,161.61116645566352,86.13307211269355,93.35386885364211,3
1767284063.275357,2,right_wrist,-0.4841,-0.4216,-0.0825,5.6,-147.49,-46.34,0.3149721944560044,0.46269038088343944,0.6721640255992318,-0.48467066225194805,-132.6565590999311,60.683799420543885,139.6992247478301,3
1767284063.3533142,1,left_wrist,-0.7632,0.1947,0.3606,16.17,-102.76,7.77,-0.6246579763682026,-0.3885345304672579,-0.5254723110910092,0.42746015190990977,13.9273181760748,81.35819047649942,-56.78257530391704,3
1767284063.3533142,2,right_wrist,-0.6007,-0.2494,-0.0298,14.98,-117.88,-37.45,0.3395836221148179,0.4269051718424228,0.6576512275814357,-0.5195476885774806,-120.25751940726576,62.90472418582002,152.73568972493987,3
1767284063.407626,1,left_wrist,-0.7945,0.1254,0.468,36.4,-39.13,-13.23,-0.6268374408096494,-0.3870857916097668,-0.507670991003105,0.44666495007664836,9.74869549517796,79.18851833135989,-62.875669548394576,3
1767284063.407626,2,right_wrist,-0.6754,-0.5456,0.0688,-7.91,-80.15,-27.16,0.35729339650406944,0.3972252935528349,0.6514806277659064,-0.5386339077909879,-111.47486636626031,63.31097982723743,162.81977942026003,3
1767284063.475532,1,left_wrist,-0.8101,0.0722,0.406,9.31,-8.54,9.38,-0.6309351360482175,-0.3888548131866757,-0.499554360785783,0.44850666548144036,12.107757527979697,78.28812163474473,-60.947456281075965,3
1767284063.475532,2,right_wrist,-0.7447,-0.4934,0.2079,14.35,2.03,-18.13,0.3635201049965523,0.3749089684487753,0.6472462758457522,-0.5553095146346543,-104.92705198589714,62.493085547119556,169.82559516730203,3
1767284063.526377,1,left_wrist,-0.8101,0.0722,0.406,9.31,-8.54,9.38,-0.6349673883297562,-0.39050144590750274,-0.4914344119416185,0.4503523678870066,14.10582743052288,77.3736017487149,-59.37651610476605,3
1767284063.526377,2,right_wrist,-0.7847,-0.5685,0.0215,-17.36,21.28,-7.35,0.3577263537751372,0.37262684468938806,0.6555140786689488,-0.5508923516426556,-106.74623202253606,61.5873907957658,168.55847947331856,3
1767284063.6064692,1,left_wrist,-0.791,0.0039,0.325,-5.81,81.41,-15.54,-0.5971070039791557,-0.4083898473647672,-0.5369399440037356,0.4340235649151829,13.530316159545174,84.69884592622803,-59.68243588366151,3
1767284063.6064692,2,right_wrist,-0.7535,-0.466,0.1122,-5.18,44.8,8.19,0.34837106165897774,0.3833380431944698,0.6608092832376713,-0.543158024174684,-110.35507508709101,61.26348447158833,164.53683954019894,3
1767284063.6594,1,left_wrist,-0.6251,0.041,0.3967,-13.02,129.29,-10.85,-0.5679776609087425,-0.4251236784059072,-0.5723549073017592,0.4111947164724507,143.7018607578754,88.8169182049519,71.1893163092404,3
1767284063.6594,2,right_wrist,-0.6383,-0.5178,0.1025,-13.37,73.92,25.2,0.3349147301894125,0.4038962192588717,0.6697659560798687,-0.5254650622514897,-117.27660649202738,60.820394117895226,157.18379756047457,3
1767284063.727755,1,left_wrist,-0.5622,0.0444,0.0815,-20.3,211.12,-11.27,-0.5171827189794705,-0.45284068543186545,-0.6257060922232428,0.3687129438483532,177.9270905681732,78.8561992607898,106.50694509461347,3
1767284063.727755,2,right_wrist,-0.3587,-0.2777,-0.3084,-23.45,155.33,58.73,0.26770703243608945,0.49458320650010307,0.7021138500334493,-0.4367568410724049,-143.7419396307549,53.89581331213013,128.57715748551678,3
1767284063.80647,1,left_wrist,-0.1454,-0.0264,-0.205,-56.14,312.48,17.15,-0.367504527052748,-0.5195063700648376,-0.7407606066578906,0.21523772364905244,174.3570728507318,50.18361958514533,107.27088001218873,3
1767284063.80647,2,right_wrist,-0.2528,-0.2904,-0.0952,-0.98,225.54,41.09,0.20362586997300777,0.5455159176693122,0.7166623871416979,-0.383854023690656,-152.2087390474507,45.28855577762496,117.22862943797743,3
1767284063.8710122,1,left_wrist,-0.1454,-0.0264,-0.205,-56.14,312.48,17.15,-0.2740892457734246,-0.5401175947133176,-0.786234091762523,0.12240924059406594,172.79768540734167,34.27928827164377,108.80053958928983,3
1767284063.8710122,2,right_wrist,-0.0673,-0.2406,-0.5324,-51.59,222.95,62.09,0.15189986021915422,0.5944873753149689,0.7282961213996927,-0.3051162935844052,-161.0334989236126,35.73461539070984,107.71699582976721,3
1767284063.922177,1,left_wrist,0.2289,0.0991,-1.3303,-29.12,231.56,-17.78,-0.19541944678188053,-0.5408273532172877,-0.8161254089259621,0.05706426847755309,172.65398616755272,22.37688706331984,111.48205100738717,3
1767284063.922177,2,right_wrist,0.3314,-0.0874,-0.8774,-45.15,245.77,50.68,0.016627850169728224,0.676156545953747,0.7250773566051788,-0.12960967132539947,-170.27854265429917,11.501045218544592,94.98039276268598,3
1767284063.993624,1,left_wrist,0.4548,-0.0195,-1.1932,-44.59,210.91,21.07,-0.12643367259672908,-0.547743024270629,-0.8269467951042431,-0.012292431142337957,170.67893511362925,11.28220965606998,112.03886689062844,3
1767284063.993624,2,right_wrist,0.4309,0.1596,-1.7075,-57.89,221.48,67.55,-0.033837490010279504,0.7058617695557549,0.7063788522061037,-0.040535215620618105,-173.97051272040517,0.5397538986283376,90.07038373502894,3
1767284065.075951,1,left_wrist,0.123,0.1064,-0.5231,64.33,-326.48,3.29,-0.41355913574960856,-0.5213764331299495,-0.679760863980428,0.3083190296029591,178.5216206037069,62.09725154723848,104.13356364731223,4
1767284065.075951,2,right_wrist,0.3323,-0.1806,-0.5085,-2.45,-304.5,-67.41,0.25282325665568794,0.5317328288800501,0.7181331960815637,-0.37097885690549787,-156.14483050952848,49.25700811043501,118.02710292841155,4
1767284065.153389,1,left_wrist,-0.2308,-0.0024,0.1801,53.2,-183.68,8.12,-0.5381905753566235,-0.46254556044222267,-0.5639619277107422,0.42231440089734146,161.4020273671977,86.12790917774218,83.88375052729532,4
1767284065.153389,2,right_wrist,0.0844,-0.1493,-0.0878,35.98,-243.53,-76.79,0.3035211290002659,0.4683980958853879,0.7002709484806179,-0.44508285378725043,-141.06001709555008,57.3568049123382,134.33371086142165,4
1767284065.213999,1,left_wrist,-0.4451,0.0595,0.2718,40.39,-159.04,22.33,-0.5737351715096046,-0.4458617592711263,-0.5112200553045406,0.4590090409206806,27.9521208881854,84.82192611448357,-51.705221742685445,4
1767284065.213999,2,right_wrist,-0.1947,-0.2372,-0.0112,6.65,-189.56,-61.67,0.34580208451748173,0.40985453354085866,0.6836516141521178,-0.49503600893932315,-124.5335427396911,61.474158029619154,152.83546875993437,4
1767284065.276222,1,left_wrist,-0.5807,0.2191,0.6193,26.18,-120.33,26.39,-0.6018039822469419,-0.4325770563793303,-0.4676972966763484,0.4816308710283758,20.432156163641018,78.40965514616285,-60.6153785172601,4
1767284065.276222,2,right_wrist,-0.5544,-0.4914,0.1859,34.72,-68.39,-46.2,0.3691489117304051,0.34238765414613115,0.6498207835313565,-0.5694143698110021,-99.20863350916157,60.42172667695638,177.14526236595188,4
1767284065.326798,1,left_wrist,-0.5734,0.2957,0.7862,9.87,-45.85,5.32,-0.6121859154401551,-0.4255794775352688,-0.4501437271498819,0.49140730371568525,18.69136243629171,75.79151852751231,-62.90915875409118,4
1767284065.326798,2,right_wrist,-0.6188,-0.6437,0.3514,-2.1,-22.47,-11.83,0.37292046504705106,0.33111204789794024,0.6472873981405249,-0.5764669658309943,-96.53870292415716,59.82836817545841,-179.8514176225542,4
1767284065.409621,1,left_wrist,-0.7491,0.2372,0.3065,1.12,106.75,-29.61,-0.5798406847395731,-0.44698563652224627,-0.4899753137401799,0.47319426559158323,24.440815423564093,82.40944243690579,-56.95875209227149,4
1767284065.409621,2,right_wrist,-0.6139,-0.6295,0.4006,-42.91,15.19,27.3,0.3818515880918545,0.3337828252572214,0.6552295456006113,-0.5598684066877255,-99.6575761166265,60.9445141476938,178.83957310971942,4
1767284065.47404,1,left_wrist,-0.631,0.082,0.5129,-18.06,135.24,-15.82,-0.5519254241805175,-0.464887990352281,-0.5284030815890807,0.44726688446221535,77.01313116615755,87.61835791409723,-3.3377494268815773,4
1767284065.47404,2,right_wrist,-0.4675,-0.6432,0.2147,-4.69,120.75,36.12,0.33751972501199345,0.3870785965698851,0.6820407887913942,-0.5206447519471692,-117.13041901011576,59.70792403244991,159.51169518389867,4
1767284065.5292192,1,left_wrist,-0.631,0.082,0.5129,-18.06,135.24,-15.82,-0.5221213563096433,-0.4813483112671678,-0.5651927026394654,0.41982174956607604,164.64581031521922,83.91154789420963,85.34167138345897,4
1767284065.5292192,2,right_wrist,-0.2689,-0.4494,0.2806,-31.15,213.5,62.51,0.2917961806018947,0.44613499740489504,0.7061236832539625,-0.46605568017624077,-134.81717676606092,55.887283870013285,140.32244869337848,4
1767284065.617312,1,left_wrist,-0.3631,0.2869,0.0756,-53.48,350.28,-27.93,-0.34582232206136526,-0.5485992909782897,-0.7222600660857197,0.24038747147065456,177.14387123043892,49.755997485472825,104.23770241595196,4
1767284065.617312,2,right_wrist,-0.0659,-0.3353,-0.1615,2.87,247.31,63.42,0.22272961680570685,0.5114731075372354,0.7220101596879516,-0.40925310917715124,-147.30804190795797,47.754421481662824,124.16697789087051,4
1767284065.689845,1,left_wrist,-0.0224,0.0766,-0.4309,-68.39,328.09,-32.41,-0.2495432471373186,-0.5577283716722722,-0.7791079175319146,0.14020728967868504,175.90366733627934,33.04088861612905,107.5901997769273,4
1767284065.689845,2,right_wrist,0.4177,-0.0029,-0.8179,-10.92,291.13,73.78,0.055945087054103816,0.6410340938449793,0.7369177192255099,-0.20711763047680765,-165.57565476902,20.36459344059898,100.56499631148712,4
1767284065.75606,1,left_wrist,0.9487,-0.4675,-1.3483,18.97,309.82,29.89,-0.004098420234411034,-0.5772233277831029,-0.8143363076669823,-0.06043848798479991,174.06662694963592,-3.6176538022165916,109.52748028850387,4
1767284065.75606,2,right_wrist,0.8555,-0.0976,-1.0228,-100.66,411.53,49.91,-0.04589478562636694,0.6799283457405075,0.7298332784726386,-0.054171015725815674,-171.8662081752361,0.38237965904747007,94.0819842789409,4
1767284066.757161,1,left_wrist,0.2718,0.2733,-1.1204,-18.27,-410.13,-16.17,-0.44143522399142276,-0.4850135925163589,-0.6844605109943085,0.3184502582561807,-178.91325999255034,65.950731142891,110.06176945970644,5
1767284066.757161,2,right_wrist,0.3977,0.0322,-1.057,28.42,-317.45,-57.47,0.2115315574166822,0.5494522965689632,0.7431453343481007,-0.31794903058291346,-161.27411821788797,41.58979644375723,114.21050090441734,5
1767284066.807542,1,left_wrist,0.3206,-0.0781,-0.2006,-22.05,-482.58,-108.71,-0.560933172288881,-0.37279090215136756,-0.6047950971418341,0.4249750698244561,-95.6619979935107,84.4742033308008,-164.43356160370172,5
1767284066.807542,2,right_wrist,0.2782,-0.0376,-0.7998,38.29,-336.35,-77.56,0.2945995964041837,0.47672355422415175,0.7192064317380218,-0.4107162514352783,-147.6387641048468,54.622188792977305,129.96637329968073,5
1767284066.8858612,1,left_wrist,-0.0795,0.0966,0.2889,19.11,-297.01,-25.27,-0.6279677530501262,-0.312356839336869,-0.5259976142629382,0.4810573934972357,-24.338714514383522,73.97518241109549,-93.36001140969621,5
1767284066.8858612,2,right_wrist,-0.0605,-0.2845,0.0488,42.56,-243.6,-95.2,0.40295964339514373,0.317940256834706,0.6566070623317086,-0.5526343136060803,-97.81499008919529,61.712611718347276,-176.63027181976074,5
1767284066.955455,1,left_wrist,-0.1903,-0.0976,0.5436,60.76,-212.03,5.74,-0.7009462857008785,-0.2501210628983741,-0.36953871008167627,0.5563765812899574,-5.7470160250945765,52.78547075662986,-79.73536312058268,5
1767284066.955455,2,right_wrist,-0.2308,-0.5539,0.3806,-11.83,-169.89,-49.42,0.43982976414279645,0.25768716164081773,0.6335571634117445,-0.5820244204406334,-82.81386549156926,59.01198732503134,-158.8860751098208,5
1767284067.025702,1,left_wrist,-0.447,0.1259,0.8867,64.47,-83.72,-0.84,-0.7079649897701591,-0.24821998499833578,-0.32452993769186494,0.5760666036569719,-1.9293531852950212,48.20156071305382,-79.13319772522998,5
1767284067.025702,2,right_wrist,-0.5319,-0.5446,0.5339,-3.57,-40.04,-29.96,0.4591118713072177,0.1995716016288429,0.6100725868344364,-0.6141652092403331,-72.73333954224275,53.641461003428034,-147.28154344788422,5
1767284067.108555,1,left_wrist,-0.5851,0.3587,0.9272,1.47,77.7,-1.89,-0.704464031897496,-0.2671832921117205,-0.2983835408360816,0.5859272810999581,2.2580549637815284,47.18069580185238,-78.51678449417352,5
1767284067.108555,2,right_wrist,-0.6071,-0.8603,0.4514,2.66,5.67,-3.85,0.45562124021747047,0.19771143536786348,0.6098214662566349,-0.6176060662591334,-72.74043027573512,53.121584198151886,-147.58962725496664,5
1767284067.175328,1,left_wrist,-0.4138,0.1903,0.7813,0.35,140.77,-29.12,-0.679028346445803,-0.29836809365618505,-0.3407773618573411,0.5777263842482905,1.1122307064453398,53.85678117519019,-80.21818765464313,5
1767284067.175328,2,right_wrist,-0.4436,-0.7505,0.3733,47.32,159.53,27.58,0.40521519386858673,0.27381497584139947,0.6332509826093575,-0.5998493133173537,-84.89582270907934,57.32021007614766,-165.0438006068111,5
1767284067.22678,1,left_wrist,-0.3514,0.142,0.652,-18.9,251.09,-23.66,-0.6360865666026513,-0.34967120746515024,-0.4176400965492555,0.5465351555132052,-1.6436369446809458,65.99722056863344,-82.40671191973435,5
1767284067.22678,2,right_wrist,-0.182,-0.5373,0.4514,-27.79,203.28,97.65,0.3758587117854426,0.34571544173616037,0.6607949631353515,-0.5500555233929649,-103.52381072290012,61.289299658070156,174.81569069778274,5
1767284067.2784178,1,left_wrist,-0.3914,0.2772,0.2113,-72.31,346.08,-15.61,-0.5754500564840511,-0.40734330879862335,-0.5243787542262167,0.47744694300587226,-15.11025137908319,82.96765854411801,-92.7422132321036,5
1767284067.2784178,2,right_wrist,0.0869,-0.2045,0.3138,22.12,284.76,74.2,0.3054234976351559,0.4346305490050301,0.6848857951913587,-0.49874263955370207,-127.10546574873806,58.418710839728995,146.28516283608892,5
1767284067.364491,1,left_wrist,0.2108,0.1962,-0.2357,-128.52,438.83,19.6,-0.3925053392523532,-0.4913330422747861,-0.7349013216732169,0.25387289660449647,178.72208244703364,55.72841551709427,111.793373144604,5
1767284067.364491,2,right_wrist,0.2894,-0.5305,-0.4241,-33.46,385.42,83.09,0.20779730014406206,0.5300889838584972,0.7192563848704652,-0.39811581740465146,-149.43303494243423,46.13649952501717,120.49586542934766,5
1767284067.42797,1,left_wrist,0.2699,0.1469,-1.3381,-15.89,438.13,-3.57,-0.24684034124046023,-0.5274622579911288,-0.7990204981158309,0.14973194689819114,178.5481396843738,33.53297999387657,112.70207898819406,5
1767284067.42797,2,right_wrist,0.6764,-0.0083,-1.7026,-65.38,359.17,50.75,0.00816716961117015,0.6685092548720295,0.723420728214788,-0.17231112407552746,-165.7766366981314,14.016408538565393,96.27565443661392,5
1767284067.481021,1,left_wrist,0.9677,0.1932,-1.4572,-4.62,505.12,9.59,-0.06717414536662916,-0.5504211883022911,-0.8317328189744575,0.027288596573643395,178.3470218931304,8.150994922857135,112.89091056298497,5
1767284067.481021,2,right_wrist,0.8711,-0.3074,-0.8359,51.66,290.71,11.34,-0.10028609726894241,0.6880642522310262,0.711626933996329,-0.10048577166597812,-163.67854463993524,-0.25503817435500564,91.89230186324369,5
1767284068.555357,1,left_wrist,-0.1972,0.1615,-0.324,65.38,-275.73,35.35,-0.4277158004627143,-0.5394793192479225,-0.620902713460555,0.37483473499084546,-179.35356889377277,69.32058695181912,98.47462112316434,6
1767284068.555357,2,right_wrist,0.1025,-0.1254,-0.5217,17.22,-281.54,-67.41,0.3163644607970992,0.42761802393579157,0.7061389380799703,-0.46735869915633477,-132.9833385427293,57.832633569376775,144.6266445432432,6
1767284068.6072042,1,left_wrist,-0.2328,0.1005,0.1767,58.59,-214.9,17.15,-0.4748038718443778,-0.516765449294672,-0.5627231897465667,0.43687225297369614,-179.6742395122589,80.36270353810238,95.15074081205081,6
1767284068.6072042,2,right_wrist,-0.1122,-0.2567,-0.2694,18.41,-227.15,-74.41,0.3617851240129641,0.35833488708270195,0.6840565455827925,-0.5222779673580804,-112.93921709006649,60.37320038383977,166.86511728229638,6
1767284068.6788769,1,left_wrist,-0.2328,0.1005,0.1767,58.59,-214.9,17.15,-0.5172978125015263,-0.4890381777919143,-0.4986420543276081,0.49457126432804677,27.55391346243862,88.42321794436806,-60.593433564700774,6
1767284068.6788769,2,right_wrist,-0.3548,-0.365,-0.0791,25.34,-171.01,-71.26,0.4259109688920151,0.23084855930385106,0.6313568070508573,-0.6055554239170416,-80.3877581320624,54.824048848081844,-157.08276345206767,6
1767284068.730995,1,left_wrist,-0.4006,0.1118,0.5119,67.06,-90.09,0.28,-0.5236771688459252,-0.48303996451812653,-0.46129548847905677,0.5288110133277405,9.502727317411852,83.72751436461309,-82.03964357555165,6
1767284068.730995,2,right_wrist,-0.2704,-0.7403,0.7193,-6.23,-130.27,-53.76,0.4473913847058475,0.17797144827348632,0.6115157970746076,-0.6278658633964975,-72.77085744687528,50.41303080793987,-147.313740150038,6
1767284068.80426,1,left_wrist,-0.4182,0.447,0.853,63.0,80.43,23.8,-0.49658347278701204,-0.5361429956131091,-0.4337681460109125,0.5270680585238005,57.03344424105843,84.85560025966049,-40.59214494881122,6
1767284068.80426,2,right_wrist,-0.3601,-0.6568,0.7496,15.54,-14.56,-21.56,0.44444147979069865,0.1695380320479703,0.6041248533532189,-0.6393448117344093,-71.12522776918341,48.919127754755955,-146.41970276036227,6
1767284068.8567219,1,left_wrist,-0.4368,0.3601,0.7374,-12.39,137.2,-18.83,-0.4701123598612524,-0.5596763639246588,-0.468246547040871,0.49648958494016643,136.68889157289465,84.8761332025217,39.92837086460212,6
1767284068.8567219,2,right_wrist,-0.3982,-0.6588,0.5412,-22.61,47.81,8.33,0.43573662461188395,0.17858610635077662,0.6172434351517699,-0.6302786196217939,-74.36180454824185,49.73197384098317,-149.42237902396,6
1767284068.910033,1,left_wrist,-0.4782,0.2908,0.4621,-25.48,202.37,-37.31,-0.4271102087911603,-0.5877557911194139,-0.5207367500457222,0.44827807966013944,171.41730984981905,76.35597594481204,76.32686920178912,6
1767284068.910033,2,right_wrist,-0.3533,-0.6178,0.6866,-11.97,137.55,19.81,0.4046319015809857,0.21764364299676084,0.6422739131666859,-0.6135050850250603,-82.53066994632427,51.88932008906378,-159.4234766148779,6
1767284068.979726,1,left_wrist,-0.4343,0.2318,0.0361,-28.21,314.51,-33.81,-0.35564217731967485,-0.6309790646853503,-0.586003998739303,0.36329516250793725,177.27163675019264,61.07798393427218,84.15722902220445,6
1767284068.979726,2,right_wrist,-0.1732,-0.3436,-0.2015,-9.87,224.42,53.97,0.2987860416105307,0.35412047353845,0.7021099260655348,-0.5407099437590025,-113.37570309412342,53.37086728265154,163.02899654598764,6
1767284069.03423,1,left_wrist,-0.3762,0.1762,-0.5085,-21.14,302.96,-31.92,-0.2756669086039607,-0.6636566088761896,-0.6395252124711005,0.2730845356469046,178.63871144375113,45.648164977904486,87.30538869309986,6
1767284069.03423,2,right_wrist,-0.0893,0.1318,-0.2513,12.46,161.21,1.26,0.24733367835506256,0.3957575415844744,0.7195885646647898,-0.5141928796026207,-122.65999030952595,49.724815710890745,150.81732916384232,6
1767284069.108264,1,left_wrist,-0.1898,0.205,-1.0897,-5.25,179.2,95.2,-0.15631829892911786,-0.7440783586956006,-0.6389247478710295,0.1169921027194108,174.85785757300903,21.95349104190797,80.30600300022796,6
1767284069.108264,2,right_wrist,-0.0273,-0.6534,-0.5109,-13.16,242.34,-32.55,0.16114033474364964,0.4345298339394802,0.7522620451707643,-0.46831552540005683,-132.06183654817053,40.49891514867808,138.60422447228171,6
1767284069.1802108,1,left_wrist,0.0932,-0.0473,-0.873,33.04,255.99,19.39,-0.07060800986122856,-0.7602479268674697,-0.6446191358664556,0.0387784516443768,176.67377872638946,8.626522263180084,80.3387102216896,6
1767284069.1802108,2,right_wrist,0.548,-0.3216,-1.3747,-68.67,356.16,53.62,-0.028592160427581666,0.5710226600829345,0.7865576548003196,-0.233329521726065,-155.802155298298,12.796805192829375,110.79651233006462,6
1767284069.242404,1,left_wrist,0.4836,0.0371,-1.6382,80.01,282.45,-20.16,0.03889017853581664,-0.7554998410026302,-0.6530567655798445,-0.03499150166604809,-179.24763194439691,-5.950380016561383,81.64140159001386,6
1767284069.242404,2,right_wrist,0.8047,0.1137,-0.9252,-170.73,332.43,62.02,-0.09463637754738925,0.6196056389064439,0.7742439185292683,-0.08763083304687463,-165.33588358808942,-2.1749064391846655,102.38150677094184,6
1767284075.229784,1,left_wrist,0.0874,0.0205,-0.9804,4.13,-345.24,1.54,-0.3700469742260307,-0.5429487108486291,-0.6856930752145273,0.3132043116829907,-177.00881989985544,57.94996960369629,104.91049037481656,7
1767284075.229784,2,right_wrist,0.1606,-0.0151,-0.6881,27.44,-250.53,-44.38,0.25269643328622404,0.4305947307472832,0.8029957718937744,-0.32546963111451244,-155.2056221681822,43.32370149466206,133.57550796030796,7
1767284075.30434,1,left_wrist,-0.1669,0.2381,-0.0156,20.79,-240.87,50.68,-0.5164806094462472,-0.49683740340300864,-0.5533035363802883,0.42456515551191415,157.7372216220007,83.42398550368672,76.26073582212913,7
1767284075.30434,2,right_wrist,-0.0756,-0.1425,-0.3928,64.26,-212.45,-58.17,0.301371825500618,0.3854983021678082,0.7798284961800517,-0.3904274559578532,-143.7445537328839,50.44871427699525,144.92505652498303,7
1767284075.355347,1,left_wrist,-0.1962,0.0956,0.4768,4.27,-211.05,47.74,-0.574473847858826,-0.46704569256626316,-0.49064811307119816,0.4594698557264087,46.18310062158316,83.17601390032871,-35.854829684723946,7
1767284075.355347,2,right_wrist,-0.2147,-0.305,-0.2752,8.12,-199.57,-35.63,0.3563476380733623,0.3374917501196608,0.7571514147620009,-0.43108863887210586,-132.24072516524805,56.16000574239944,158.5293777608042,7
1767284075.4081018,1,left_wrist,-0.2523,0.181,0.7701,17.5,-119.07,40.53,-0.6052527691178436,-0.45438612459565436,-0.44641597406009736,0.47740455941905197,33.29548519816191,76.96717366299944,-49.787144264167424,7
1767284075.4081018,2,right_wrist,-0.2991,-0.2372,0.327,33.46,-161.28,-47.32,0.395796654340014,0.29488520351693537,0.7293130231300325,-0.47380400953660107,-117.44675437113293,58.954151889875895,173.87047524915596,7
1767284075.47413,1,left_wrist,-0.2523,0.181,0.7701,17.5,-119.07,40.53,-0.6340939948721727,-0.4400693148761521,-0.4005840354766884,0.4937572625214686,29.118900274362066,70.49128444986566,-55.01541375301079,7
1767284075.47413,2,right_wrist,-0.447,-0.5456,0.7989,-4.9,2.52,-2.03,0.4114078289616954,0.2711371417515297,0.7136341875536044,-0.4979502936905874,-108.75589561558908,59.00530923047906,-177.46952353180174,7
1767284075.554392,1,left_wrist,-0.5524,0.1957,0.3475,14.77,156.94,-34.51,-0.5800779090044061,-0.4816122513513594,-0.47256411877058224,0.45633585491821044,54.93230738123948,81.04168393232035,-28.472442403469085,7
1767284075.554392,2,right_wrist,-0.4148,-0.5075,0.6949,7.35,91.84,3.71,0.38312923245437364,0.2924033690748453,0.726252549044451,-0.49017292458788414,-114.84191742580752,57.47464494997948,174.75852856568207,7
1767284075.606424,1,left_wrist,-0.446,0.163,0.3811,-19.18,237.65,-21.28,-0.5299178673980345,-0.516066778327702,-0.536456083755693,0.40629669494138226,134.26694020425072,81.08073132615422,52.550402449351985,7
1767284075.606424,2,right_wrist,-0.4211,-0.4636,0.1508,4.62,167.44,21.7,0.3332571843794383,0.3334803653014075,0.7475173578312949,-0.46791911134174524,-125.46322568126249,54.126693013753176,161.42255211555135,7
1767284075.658717,1,left_wrist,-0.446,0.163,0.3811,-19.18,237.65,-21.28,-0.474108384561789,-0.5451476044241672,-0.5950944885990437,0.35199130488954555,162.06063072333453,71.45119103899286,82.06244376928004,7
1767284075.658717,2,right_wrist,-0.2723,-0.3133,0.0107,-21.28,197.47,33.32,0.2771823929453181,0.37850748520653726,0.7721871422922639,-0.4285195701041404,-136.66837396033014,48.80471309368557,148.20681116381243,7
1767284075.724231,1,left_wrist,-0.0503,0.1405,-0.5949,2.38,390.95,-15.54,-0.3615861444097592,-0.5949893765798355,-0.6706595128188151,0.2558494084293596,171.84170068115068,52.134864824901456,92.84691390295396,7
1767284075.724231,2,right_wrist,0.1762,-0.2264,-0.7798,-64.33,329.98,38.64,0.09657393832647047,0.4850112461563455,0.8207574643088797,-0.2859978152350852,-155.3194115278253,25.845878639996876,124.58706981397378,7
1767284075.779823,1,left_wrist,-0.0503,0.1405,-0.5949,2.38,390.95,-15.54,-0.23848982452187567,-0.626767164876139,-0.7261442623643803,0.15165762383718698,174.64880027158048,32.443255834205516,96.84425302675916,7
1767284075.779823,2,right_wrist,0.3831,-0.0903,-0.8076,6.23,292.04,29.75,-0.008839640006472705,0.5279635012269274,0.8202320179458646,-0.21999054269039592,-157.7080410773369,12.579429028242098,116.9512770488481,7
1767284075.858558,1,left_wrist,0.6881,-0.0898,-0.8032,-26.81,251.16,20.93,-0.07820224721302829,-0.6425498981346645,-0.7604821372636785,-0.051777947437421305,169.6595531432208,3.003846286910834,99.33757674147263,7
1767284075.858558,2,right_wrist,0.4665,-0.2298,-1.1912,-70.63,267.75,8.68,-0.0900511341708832,0.5525471262542812,0.8185924086427921,-0.128409248167976,-161.9558716722318,-0.31661966607802217,111.91129169788995,7
1767284076.862835,1,left_wrist,-0.1889,0.2879,-0.3943,0.35,-299.18,26.39,-0.5416315156139317,-0.5440480069652768,-0.5137422516571837,0.3830352023940781,121.47060121042749,76.7294689849454,38.875828752963095,8
1767284076.862835,2,right_wrist,0.1947,-0.3016,-0.5183,46.9,-261.66,-23.59,0.2567868300771343,0.3356018815117635,0.7939920897358396,-0.43704514922558735,-132.97908541032464,44.51691268083135,154.36616751922165,8
1767284076.923533,1,left_wrist,-0.1889,0.2879,-0.3943,0.35,-299.18,26.39,-0.6067715283886933,-0.4992645012517914,-0.4338248806571185,0.4408619319577118,60.755598990972125,75.16755838824673,-23.436848259959195,8
1767284076.923533,2,right_wrist,-0.1283,-0.3367,0.2801,52.57,-168.63,-60.27,0.34967740108905637,0.23143671348867764,0.7347517925108995,-0.533200305906873,-106.72809620330452,49.522103061334356,-177.10384682923635,8
1767284076.974079,1,left_wrist,-0.2094,0.3675,0.6041,15.89,-161.56,8.54,-0.6358541075457708,-0.47186436510584995,-0.3828261870703357,0.4758967171074127,42.02152665445725,69.38389668294217,-43.84754802834368,8
1767284076.974079,2,right_wrist,-0.2679,-0.5719,0.4831,12.67,-117.32,-26.95,0.3795885056673373,0.19578601622574016,0.7141492963985087,-0.5545910066609512,-98.54469506842052,49.40499656040331,-167.45013287301813,8
1767284077.0259368,1,left_wrist,-0.1401,0.2191,0.936,33.18,-66.22,-1.33,-0.6410397704206674,-0.46533700557095287,-0.3557281949195109,0.49597070006663035,37.83417288733188,66.5861910330212,-50.09082951663736,8
1767284077.0259368,2,right_wrist,-0.3304,-0.5075,0.6656,7.98,-46.13,-14.91,0.39032304693075415,0.1802983584821912,0.7040075867681544,-0.5652554632519701,-94.90895345347641,48.8866355787401,-163.4411868469835,8
1767284077.081216,1,left_wrist,-0.3436,0.4148,0.9082,-3.29,18.62,12.18,-0.6432727196635949,-0.46905314001929505,-0.35688095069988807,0.48869760282017505,39.835380438795006,66.57681599703486,-47.68326344184849,8
1767284077.081216,2,right_wrist,-0.3977,-0.6359,0.5627,-15.4,16.66,2.03,0.38744173335672494,0.181257193729156,0.7088012334529317,-0.5609238312200422,-96.14654582782859,48.81447693612296,-164.34430508215303,8
1767284077.156252,1,left_wrist,-0.4089,0.1942,0.4685,-5.6,161.7,-11.27,-0.5897748296689777,-0.5234574964801318,-0.4381579311947612,0.4314806218114644,74.1344203991292,75.59295392653632,-11.64906979956314,8
1767284077.156252,2,right_wrist,-0.3723,-0.3904,0.4665,-27.44,100.66,4.62,0.3601753841133473,0.20191392808101122,0.7297482007262767,-0.544951394036625,-102.71180879251631,48.22280454719007,-171.55324749124264,8
1767284077.206294,1,left_wrist,-0.3006,0.2381,0.388,-31.08,319.55,-12.81,-0.5301388479809224,-0.5670035028991708,-0.5225859928494607,0.3526523920790469,129.12228925584424,72.55335406325379,46.841643387301644,8
1767284077.206294,2,right_wrist,-0.3055,-0.5627,0.3089,-34.79,153.16,3.78,0.31465678012974263,0.23224731909143637,0.7587742483366731,-0.5208780409600122,-111.9265515431313,46.009253478182536,177.96600919977462,8
1767284077.2606442,1,left_wrist,-0.1435,0.2952,-0.2406,-4.27,423.64,-1.05,-0.42668419646473005,-0.6231748524589187,-0.6102693576434481,0.23909205522456384,155.2918511078097,54.962542863333866,75.8021899126005,8
1767284077.2606442,2,right_wrist,-0.1279,-0.4787,0.0693,-70.49,261.52,20.58,0.23675502553702352,0.2849658834632458,0.8026879101969635,-0.46736882862318335,-126.2391042543901,40.274413831115545,161.96787582983904,8
1767284077.311185,1,left_wrist,0.246,0.0332,-0.4524,3.15,406.91,-0.91,-0.3091294985780493,-0.6570433299284039,-0.6761610868954776,0.12465632865524638,163.0100880866878,35.58090068947757,86.15525325607368,8
1767284077.311185,2,right_wrist,0.081,-0.3621,-0.3109,-105.42,280.14,25.55,0.1513645863955732,0.33558418145389957,0.8444297448272434,-0.38911492543233295,-139.5377528905852,31.117520676707098,148.37100137465978,8
1767284077.375104,1,left_wrist,0.5919,0.57,-1.3537,-101.85,444.36,-36.82,-0.1985222181988178,-0.6448063237330898,-0.7374612385730422,-0.031058901422193825,161.82291355195656,14.640357948105931,95.31522675271034,8
1767284077.375104,2,right_wrist,0.6588,-0.001,-0.7364,-96.74,337.89,23.87,-0.050105463845460003,0.44046966931401627,0.8762473614462851,-0.18885569746675854,-157.89708371017912,4.505848270679841,127.50520768619262,8
1767284077.4552891,1,left_wrist,0.998,0.286,-1.1834,-62.51,317.03,6.79,0.0023799187257670306,-0.6305239050086142,-0.7427742521324908,-0.22521179269426783,159.7460710729123,-16.71063624525884,102.3510659357606,8
1767284077.4552891,2,right_wrist,0.8355,-0.1118,-1.2429,-52.78,295.19,12.25,-0.15360533392330633,0.46600993674416025,0.8646432530548976,-0.10785260865022145,-160.4725303291372,-9.503442036993109,121.71504787433605,8
1767284078.3751569,1,left_wrist,-0.2206,0.1,-0.8408,3.01,-266.21,26.04,-0.39608289040892203,-0.5862553912124053,-0.6432290076608638,0.2927104437892912,170.31707587366785,58.51206396016678,89.87340314826362,9
1767284078.3751569,2,right_wrist,0.2552,-0.2582,-0.4851,30.73,-263.48,-36.68,0.25094332650934503,0.3182013843886488,0.8368471234483986,-0.3680519227360623,-142.8902491066779,40.86141633881349,152.61663437314334,9
1767284078.42899,1,left_wrist,-0.4158,0.2259,-0.6295,59.36,-218.61,2.73,-0.4389429048665462,-0.569049912852544,-0.5952924881886069,0.3593580059718272,168.62234026617077,68.68311099224499,84.79524126012157,9
1767284078.42899,2,right_wrist,0.0405,-0.285,-0.3592,69.16,-242.69,-41.44,0.31710442099101716,0.2689432488496404,0.8020744352860135,-0.4287084269603001,-129.82863017242485,47.670048329497,166.29581845588686,9
1767284078.50666,1,left_wrist,-0.3982,0.163,0.0483,61.32,-205.94,24.64,-0.4976272133849954,-0.5450958586758068,-0.47738913951824996,0.47679898366417905,119.83892501199769,84.225711231628,27.14932483564144,9
1767284078.50666,2,right_wrist,-0.1762,-0.4221,-0.1859,29.12,-194.81,-21.28,0.3734055514241375,0.2258082791782838,0.770062714550064,-0.465384068141535,-117.71686148869753,51.74533633193826,179.97972638076212,9
1767284078.5767522,1,left_wrist,-0.3982,0.163,0.0483,61.32,-205.94,24.64,-0.5315609826903022,-0.5188457563394047,-0.4091479098206621,0.5299433844282752,42.929443341525676,80.0277969536211,-53.289674070711946,9
1767284078.5767522,2,right_wrist,-0.5417,-0.4958,0.1444,18.76,-99.19,-4.55,0.44909493060610195,0.17094933686670932,0.7175426694975289,-0.504204903763433,-98.79378480496136,54.773334580687866,-158.9112675523856,9
1767284078.655324,1,left_wrist,-0.5861,0.3543,0.5363,29.54,-34.37,10.15,-0.5446466040388158,-0.5112541641741093,-0.3495197283253286,0.5655220736938629,34.75130138967351,73.53246223726238,-65.83550316501027,9
1767284078.655324,2,right_wrist,-0.6041,-0.5412,0.2899,16.66,-67.62,-14.35,0.4667099592528571,0.15365695542072705,0.6993331742040806,-0.5191381949372194,-92.49161558114082,54.322233088589606,-152.46064220185383,9
1767284078.7088692,1,left_wrist,-0.5729,0.365,0.7198,54.88,49.49,12.95,-0.5296480562864841,-0.537025204559335,-0.34242368671945805,0.5601989690399369,44.46646866618572,74.66802569180177,-58.578306614239004,9
1767284078.7088692,2,right_wrist,-0.6934,-0.5832,0.2284,-3.22,-32.34,11.69,0.4804890328416273,0.1481062396949856,0.6904917378292056,-0.5200153758033821,-89.74413319449384,54.843515688895565,-149.15934069747684,9
1767284078.774011,1,left_wrist,-0.7588,0.5187,0.3587,55.16,131.32,-30.94,-0.4911030660586235,-0.5765416860862972,-0.36267293341811263,0.5430338903590548,67.29391866525168,79.22929479961164,-38.04859282489534,9
1767284078.774011,2,right_wrist,-0.5524,-0.547,0.4534,-15.82,46.13,7.63,0.4708506946035566,0.1530747840670881,0.7042828515962942,-0.5087763740795702,-93.88642275194174,54.983397630397334,-152.6640261751337,9
1767284078.8303292,1,left_wrist,-0.6651,0.3884,0.3465,-5.18,142.87,-53.06,-0.45862745365648444,-0.5990631077439612,-0.40466381531109236,0.5167508570583956,109.02261342009042,82.01836175585063,4.479955039098527,9
1767284078.8303292,2,right_wrist,-0.4826,-0.5768,0.2425,-1.54,103.04,10.43,0.4413900794272937,0.17696954044424545,0.7228993709287953,-0.5012714624321556,-100.73715676214476,54.644828852775625,-161.18187227450002,9
1767284078.9132748,1,left_wrist,-0.3011,0.3538,0.0947,-76.16,294.42,-45.43,-0.38378366725729496,-0.64543870217134,-0.5400688459002175,0.38005870622040094,168.47916474106458,64.84327755680206,72.50942690720342,9
1767284078.9132748,2,right_wrist,-0.344,-0.5866,0.3357,-11.55,137.69,44.1,0.40785852007417367,0.21692082832929738,0.7458619182283949,-0.4798820488166811,-110.98729123528675,54.74638103113979,-173.24802201497633,9
1767284078.974617,1,left_wrist,-0.0732,0.3187,-0.2533,-70.77,308.21,-46.27,-0.32101478000867895,-0.6695261963455362,-0.6096379904364368,0.2775350501102177,171.8648968268419,49.73289861934801,80.86355957736019,9
1767284078.974617,2,right_wrist,-0.0874,-0.5314,-0.2645,-24.08,278.18,41.44,0.2600947022894062,0.33327189517619066,0.8087312791502279,-0.40894291514915787,-137.3700824060486,43.8896617499599,153.07609603066712,9
1767284079.0649931,1,left_wrist,0.3035,0.1664,-1.2654,-78.4,435.96,-69.02,-0.09568101811122696,-0.6662697970467347,-0.7393462578931846,-0.017228211046038708,171.13772009201273,6.807014482455419,95.42402226377655,9
1767284079.0649931,2,right_wrist,0.2577,-0.1484,-0.4368,-29.68,336.0,49.49,0.14916112774216153,0.4024618862135718,0.8374908470823592,-0.33820773079480726,-148.4378027002164,31.471447612869216,137.77182657061547,9
1767284079.1304011,1,left_wrist,0.7008,0.0224,-1.1356,-46.97,323.54,-89.11,-0.0017072777578383696,-0.6262737842566635,-0.7696983404648847,-0.12386564108378934,168.749471203993,-8.772959544935478,102.59794438044253,9
1767284079.1304011,2,right_wrist,0.8091,-0.0503,-1.1707,-73.71,381.29,24.08,-0.1058329111382423,0.49423296994457894,0.8518960901300384,-0.13713576470388333,-160.20824761511216,-2.565602814412992,119.31147213402939,9
1767284080.127131,1,left_wrist,-0.2489,0.1649,-1.1624,96.6,-222.67,-51.8,-0.31553730625655885,-0.4584314782597305,-0.8145502712454141,0.16366014699668058,178.2612250020308,41.61300440439726,120.5973375241641,10
1767284080.127131,2,right_wrist,0.1552,-0.1864,-0.8252,29.19,-264.6,-29.75,0.23343460265694313,0.39561639162685847,0.8391036567779946,-0.2913777790778443,-157.12439118557106,38.48423726889747,137.5939534987925,10
1767284080.207028,1,left_wrist,-0.4343,0.1444,-0.6471,97.79,-221.2,-0.7,-0.4427521158753928,-0.43897041288726435,-0.7276566892831206,0.2859917534457513,-176.45898035313252,63.56331828268497,119.9920964236565,10
1767284080.207028,2,right_wrist,-0.0371,-0.2479,-0.6027,29.47,-241.43,-42.35,0.3053057556545398,0.350292643842393,0.8155674057112691,-0.3448670265124038,-148.80223071607818,47.697660264018936,147.58382341675244,10
1767284080.2572632,1,left_wrist,-0.2913,-0.1932,-0.4211,116.83,-205.38,9.17,-0.4801814980646847,-0.43638079046235717,-0.6708838261521652,0.3590437667461099,-167.4286522712847,73.26596095313587,123.27981303622205,10
1767284080.2572632,2,right_wrist,-0.2113,-0.2045,-0.5466,19.18,-213.15,-42.21,0.36665227359472286,0.30475874586879903,0.7896759616231477,-0.3861348115863865,-138.2533025919033,54.530931432225806,160.03098040311366,10
1767284080.325662,1,left_wrist,-0.2811,-0.0093,0.2001,114.31,-206.92,40.88,-0.5243238361073408,-0.43654763682579406,-0.5967279256626401,0.42240556152335385,-153.59251031225816,84.01963012171676,131.48860294814645,10
1767284080.325662,2,right_wrist,-0.448,-0.4148,-0.1,2.73,-165.97,-34.51,0.4557096578626786,0.21824827780305198,0.7322796121414574,-0.4565774486422195,-109.64915459474749,60.0783431229514,-168.84579218099913,10
1767284080.404418,1,left_wrist,-0.4704,0.0625,0.7427,71.75,-40.81,20.58,-0.5560675641480147,-0.4413187903251251,-0.5226030998776497,0.4721361979415824,-2.3828945611545116,86.31316262412406,-82.90101579271652,10
1767284080.404418,2,right_wrist,-0.4904,-0.3143,0.246,15.82,-110.04,-32.48,0.4837264325944625,0.18792138208897038,0.7074512152899898,-0.47979898973207796,-98.1972181791636,59.854705142461775,-156.74325897180813,10
1767284080.4565918,1,left_wrist,-0.5973,0.1615,0.6744,7.21,-5.46,37.45,-0.5654046510167959,-0.4495028722504104,-0.5105035968604231,0.46653062711871024,23.179773509721198,85.34111583156783,-57.642694284909275,10
1767284080.4565918,2,right_wrist,-0.5417,-0.4865,0.3753,0.28,-58.73,-24.36,0.4975365431152836,0.1668058240260659,0.694877011720175,-0.49171042689647976,-92.36375578686966,58.81432375711184,-150.18353797760298,10
1767284080.507561,1,left_wrist,-0.7501,0.3494,0.5675,-11.06,85.61,-7.98,-0.5486954182195876,-0.46181928157414476,-0.5328214935040811,0.4491742927319563,78.64885365436524,88.35549034091541,-1.567992461413584,10
1767284080.507561,2,right_wrist,-0.5949,-0.5763,0.467,-3.15,6.79,-6.58,0.49521026709004046,0.16432899536443282,0.6956895578187283,-0.49373961942820555,-92.40048617222241,58.35298637635244,-150.24889769597772,10
1767284080.564338,1,left_wrist,-0.7501,0.3494,0.5675,-11.06,85.61,-7.98,-0.5312572264765639,-0.4734337276887209,-0.5546398309084065,0.4312782428700586,158.81532078664034,86.09317419837188,79.21677516068547,10
1767284080.564338,2,right_wrist,-0.5827,-0.5124,0.3601,-9.73,65.03,1.05,0.47716610120721265,0.17533609353493573,0.7096839700359711,-0.4877688272497528,-97.46473765181246,58.02954362854029,-155.8497895498631,10
1767284080.622977,1,left_wrist,-0.7618,0.0703,0.2274,-60.9,136.5,-4.34,-0.5109908595009292,-0.4819391232313219,-0.5957081632952655,0.3895571937327146,170.7413593674677,79.83011783534116,94.30235910892799,10
1767284080.622977,2,right_wrist,-0.5719,-0.3972,0.163,-28.56,103.74,14.07,0.41692802574748794,0.2177484314035589,0.7518677508559731,-0.4620081462381069,-113.71631790543157,55.90942758046651,-174.07978096755872,10
1767284080.673621,1,left_wrist,-0.6456,0.1118,-0.0254,-65.8,160.23,-15.68,-0.48208560925852567,-0.48946369761045777,-0.6418280830968941,0.34069849693754284,173.4887093648654,72.24163064878678,100.58695062416241,10
1767284080.673621,2,right_wrist,-0.3538,-0.4211,0.1591,-10.43,197.19,15.33,0.3552512195516026,0.2583852222300039,0.7844061502263439,-0.4378819925817195,-125.87996311583824,51.5920215637426,171.27482124461548,10
1767284080.726036,1,left_wrist,-0.4709,0.1342,0.2313,-72.73,233.38,5.25,-0.4326721225365332,-0.5070811596791773,-0.6954647767067257,0.2683137645340169,172.2440852085167,60.918611231668024,103.24077970120726,10
1767284080.726036,2,right_wrist,-0.1342,-0.4372,0.0547,-76.79,264.81,36.26,0.27698410199053536,0.3056202651675384,0.8298394846310008,-0.3758224188506791,-141.1437181818442,43.58441871368095,155.61721455892462,10
1767284080.7814112,1,left_wrist,-0.2191,0.2191,-0.1347,-104.09,324.31,7.7,-0.3560214264423787,-0.5238126201644221,-0.7575321244483588,0.15815866495128528,169.16048347642837,44.836520107040556,106.19155134605168,10
1767284080.7814112,2,right_wrist,0.2386,-0.2162,-0.3709,-38.29,319.48,57.82,0.17003112941523602,0.36980008659867286,0.8598810519423701,-0.30812641479087144,-151.7543519505778,31.352608027267816,141.5368495589717,10
1767284080.8566248,1,left_wrist,0.1908,-0.1366,-0.3128,-78.47,175.91,43.26,-0.22490883952230772,-0.5352496017357671,-0.8137156473043033,-0.028119798693627206,162.28965071145873,19.628581295014566,110.23985708722797,10
1767284080.8566248,2,right_wrist,0.4221,-0.0054,-0.8804,-181.79,338.03,52.29,0.0751481502638922,0.4154228447857365,0.8893367940811122,-0.17566070202401782,-164.90663401455137,16.23698739341027,132.08935716237366,10
1767284080.9114199,1,left_wrist,0.1908,-0.1366,-0.3128,-78.47,175.91,43.26,-0.1754819101571716,-0.5392141449833999,-0.8174842559577434,-0.10086474269349857,158.9052362678051,10.260973279146999,111.26668099764677,10
1767284080.9114199,2,right_wrist,0.7086,0.0551,-1.161,-41.02,305.83,88.97,-0.03234379093601406,0.46735126984642594,0.8781054621479997,-0.09730091010195385,-168.39109982147542,1.9567383647418806,124.1527206567389,10
1767284080.97927,1,left_wrist,0.406,0.2874,-0.4665,-35.84,218.12,47.46,-0.10059599266357369,-0.5417136341047993,-0.8168656287275781,-0.17075517411926494,157.16744730317802,-1.1834708524896294,113.13739628947874,10
1767284080.97927,2,right_wrist,0.8003,-0.2806,-1.0824,-57.75,208.81,32.41,-0.18340892261706895,0.4908163871290845,0.8515517215529611,0.017891527329624204,-170.88359582114236,-19.26436157539493,118.53315450051005,10
1767284081.87999,1,left_wrist,0.0005,0.2767,-0.9487,54.11,-311.99,2.1,-0.39925397528091544,-0.5670421687966116,-0.6942354174312149,0.19260484732458832,163.0187196682539,50.60442943486068,93.4433071410169,11
1767284081.87999,2,right_wrist,0.1288,-0.3489,-0.6847,27.72,-281.68,-30.24,0.3125916829890868,0.309586662878609,0.8261961578823386,-0.3519125553233344,-145.137476180788,47.25814194899806,154.55961913511686,11
1767284081.960832,1,left_wrist,-0.0581,0.1825,0.1069,20.51,-257.32,3.71,-0.532003681707075,-0.5294701781563901,-0.568580036417445,0.3366751479998113,138.94456993531952,74.04799387617892,62.53998278286745,11
1767284081.960832,2,right_wrist,-0.0576,-0.2098,-0.2874,-0.98,-260.54,-20.09,0.39673761417825176,0.2596490756611239,0.7908695402653988,-0.3869198796713207,-133.53879582967767,55.94108796794377,169.33080792401338,11
1767284082.0223732,1,left_wrist,-0.0581,0.1825,0.1069,20.51,-257.32,3.71,-0.5900810002708388,-0.49431508176333216,-0.4996862506045829,0.39720355489019815,86.33752030664236,79.23395966530853,7.765579717276847,11
1767284082.0223732,2,right_wrist,-0.3689,-0.6188,0.224,-23.38,-132.44,-15.26,0.48328713876825247,0.17644315588336842,0.7244019176421962,-0.45884988390477127,-102.74404433903445,59.55433718312746,-158.2363963738069,11
1767284082.109324,1,left_wrist,-0.528,0.2689,0.7647,40.11,-9.17,17.01,-0.6010747975605735,-0.5067173458454977,-0.4405836844986202,0.4333966267870921,66.62016849039617,75.66546451746528,-17.513377859954193,11
1767284082.109324,2,right_wrist,-0.4875,-0.4748,0.3079,-37.59,-58.03,7.49,0.5067522468196191,0.15783740190014475,0.7170784216151902,-0.45176105648732895,-99.10857804908774,60.38571879305352,-152.06499924566913,11
1767284082.177404,1,left_wrist,-0.4709,0.3231,0.8574,40.74,84.7,-0.49,-0.5769717680570001,-0.5318260655987894,-0.45315921478655713,0.42297912580755387,84.14631197598206,76.6116044085891,-1.5071704661013752,11
1767284082.177404,2,right_wrist,-0.49,-0.6495,0.4948,-23.59,45.01,27.65,0.5020330853843418,0.1605084263861583,0.7279757154628165,-0.43846457546182455,-103.14214995414693,60.65566217092605,-155.07120534586062,11
1767284082.229669,1,left_wrist,-0.5861,0.3309,0.3309,-5.88,156.1,-22.33,-0.5443652227248387,-0.552841302321355,-0.4955450542125241,0.39047163530898343,115.47687236628639,76.22846909156755,31.053904002341202,11
1767284082.229669,2,right_wrist,-0.5109,-0.4382,0.1161,-29.12,116.2,36.82,0.4740485948366506,0.18612267039186098,0.7539561909735044,-0.4149534231601473,-114.65269501389292,60.37603162845216,-166.8137636876318,11
1767284082.302933,1,left_wrist,-0.2582,0.1459,-0.3762,-59.78,289.1,4.55,-0.44714813523994223,-0.6022809732783172,-0.6166331519943249,0.23891364598931758,153.34120668533228,57.05984846864203,76.6702030923288,11
1767284082.302933,2,right_wrist,-0.3982,-0.4182,0.081,-11.97,136.15,39.55,0.4366929367658598,0.21913314556652275,0.7786118672096624,-0.39375563962083515,-126.1837945393217,58.495423775151565,-179.7082082212279,11
1767284082.36139,1,left_wrist,-0.2128,0.2772,-0.1708,-67.06,327.11,15.47,-0.3758629848065644,-0.6225485830418652,-0.6746247331974241,0.1266560214248438,156.56416603615418,41.669437035135,85.57146878600248,11
1767284082.36139,2,right_wrist,-0.222,-0.3426,0.0386,-28.77,230.23,64.4,0.3697380530466355,0.271865935999343,0.8164007907849741,-0.3505316444747228,-142.3244155150041,52.58957594528435,162.3012790500341,11
1767284082.42492,1,left_wrist,0.0283,0.4441,-1.1678,-65.1,284.69,10.71,-0.3046045932434276,-0.6271956080530773,-0.7163994361801198,0.0247701202004195,156.91541647380558,27.872691566525305,91.79459633345289,11
1767284082.42492,2,right_wrist,0.2255,0.063,-0.8501,-35.91,276.5,80.57,0.18483622018021484,0.39030435855845075,0.8707178148675914,-0.23526276006196636,-162.08465659698345,30.366444365898673,136.60969973200812,11
1767284082.514526,1,left_wrist,0.1313,0.446,-1.098,-44.31,364.7,-43.82,-0.08256534747926414,-0.5660334451160969,-0.7971535227580063,-0.1932236102554021,156.23042866503195,-4.997227433959451,110.29762590933055,11
1767284082.514526,2,right_wrist,0.4231,-0.3143,-1.1888,-11.06,307.51,52.5,0.07024751736392683,0.4365914608480018,0.8804810027169641,-0.17089876088884212,-165.57791665015435,15.838639291817312,129.26709332432003,11
1767284083.729218,1,left_wrist,0.0327,0.1381,-1.1258,44.38,-319.2,28.0,-0.4310223477179642,-0.5402790107553426,-0.6875204408778671,0.22278682564286842,163.23599162553234,56.450372378097825,94.63265824431117,12
1767284083.729218,2,right_wrist,-0.039,-0.1688,-0.6007,22.54,-245.7,-15.54,0.3973998612081195,0.34060104599428903,0.7604768960072824,-0.38436853203467714,-141.07489099841166,60.02683335137004,154.8221132114708,12
1767284083.802581,1,left_wrist,-0.2513,0.0834,-0.2572,9.1,-247.94,46.2,-0.5470837893516158,-0.5103058390695544,-0.5645842056030433,0.3486143324990744,133.8684110342946,76.79264761997331,58.486126815638094,12
1767284083.802581,2,right_wrist,-0.2152,-0.2694,-0.2796,35.42,-216.93,-29.54,0.4530525044684538,0.2980349513214717,0.7205833368016347,-0.4320627856104849,-121.50500597109763,65.56952321685264,174.7249943439242,12
1767284083.874262,1,left_wrist,-0.2606,0.1376,0.4153,24.85,-207.34,41.65,-0.5982515112546539,-0.4918078180425047,-0.49807537986386946,0.3900527084475321,84.26041999175288,78.41008868558322,6.635597314248564,12
1767284083.874262,2,right_wrist,-0.488,-0.1859,-0.0054,7.49,-160.51,-27.72,0.5413598428947201,0.21975160834095983,0.6482932966785929,-0.4882156824746286,-80.96112407141545,66.4185470489434,-142.47521268504244,12
1767284083.925359,1,left_wrist,-0.4182,0.2054,0.467,-6.51,-151.62,39.83,-0.6398565395711038,-0.4706187043742319,-0.44790227753916406,0.4104694795431706,56.40606463324436,73.64504129254755,-21.609105785136787,12
1767284083.925359,2,right_wrist,-0.6856,-0.4031,0.0229,12.95,-132.86,-23.87,0.5687765979576417,0.18450191385519807,0.61738675056866,-0.5111612520739137,-68.07322300361821,62.990435953299844,-128.85491364117735,12
1767284083.975756,1,left_wrist,-0.5314,0.162,0.5783,30.1,-83.79,20.51,-0.6549481891939523,-0.4659886068699278,-0.4126678672503045,0.4284888785932159,48.75550804887823,70.03376539267734,-31.158855554427127,12
1767284083.975756,2,right_wrist,-0.7266,-0.5178,0.1669,-6.44,-124.53,3.85,0.6009268328511781,0.15220575811378428,0.5874030719584481,-0.5202672196191479,-58.390300576628874,59.80832357485224,-117.40113055900535,12
1767284084.0542998,1,left_wrist,-0.7666,0.3606,0.5949,28.49,-69.72,2.8,-0.6720672933542589,-0.4534966818949943,-0.3550365428302354,0.4654195590742457,39.66419576720761,64.0726733267815,-43.97171956547238,12
1767284084.0542998,2,right_wrist,-0.6173,-0.3265,0.4782,30.94,-101.71,-12.88,0.6227742110570487,0.13284300443163355,0.5511854113301117,-0.5391657078790371,-50.21969570550645,56.0758275108853,-109.79585568960616,12
1767284084.107061,1,left_wrist,-0.6861,0.1908,0.7022,37.87,-39.55,-6.58,-0.6706797167674592,-0.4531365375194151,-0.3352706293558667,0.4821302738606627,37.97413695900122,62.45651210875369,-47.85520154174227,12
1767284084.107061,2,right_wrist,-0.6686,-0.5119,0.5856,18.97,-68.67,-4.13,0.6375597352830831,0.1186010110276241,0.5256991834823328,-0.550537694090967,-45.57213448591583,53.21784675754876,-105.38954194272178,12
1767284084.1732721,1,left_wrist,-0.7974,0.2684,0.6012,12.39,-27.02,-6.16,-0.6724704292522734,-0.44784794763372765,-0.32405675053442284,0.4921411992656093,36.08262880239284,61.2403837309774,-50.572735593306206,12
1767284084.1732721,2,right_wrist,-0.8159,-0.4172,0.4168,5.39,-26.88,-8.19,0.6461701022378805,0.11017034003789324,0.5037200319721209,-0.5626658195943911,-42.192262155651854,50.801027095499805,-102.85869861186816,12
1767284084.22637,1,left_wrist,-0.8242,0.1103,0.5339,4.9,-22.47,-8.82,-0.6732361345732509,-0.4398593701302662,-0.3183536992400335,0.5019240617799264,33.60428602743837,60.48263699390287,-53.44432777247344,12
1767284084.22637,2,right_wrist,-0.8062,-0.509,0.4714,-12.46,-13.02,21.84,0.65271392304016,0.10512317344720375,0.5045252170880716,-0.5553088855728379,-42.06664094015387,50.83885611972458,-101.4931240242066,12
1767284084.308109,1,left_wrist,-0.7925,0.2777,0.5407,11.9,-11.83,3.71,-0.6809540073239492,-0.43206871823497944,-0.30202903572048145,0.5083273789734261,32.352796957563264,58.277041354707826,-55.11036194375029,12
1767284084.308109,2,right_wrist,-0.8374,-0.305,0.345,12.53,-12.04,-5.88,0.6534040590535868,0.1078648479076634,0.5000840556356292,-0.5579823003439937,-41.194469678219086,50.70425597042622,-101.18556373357934,12
1767284084.377831,1,left_wrist,-0.7989,0.2845,0.5763,10.29,-3.64,-2.8,-0.6805507997288563,-0.43165164094184993,-0.29705298292645166,0.5121396247070905,32.138701813849806,57.82774513026173,-55.84493557336843,12
1767284084.377831,2,right_wrist,-0.8447,-0.3538,0.4041,-3.15,0.63,-7.98,0.6504751398651556,0.10573144282563259,0.5057410641864385,-0.5567126102496557,-42.3967482623143,50.86563815119017,-102.0171046995872,12
1767284084.453396,1,left_wrist,-0.8682,0.2435,0.5124,4.2,-5.39,-6.72,-0.6812922897663968,-0.42841144133237635,-0.29200412001284654,0.5167572415901871,31.37377237252979,57.208794337630714,-56.94625484122835,12
1767284084.453396,2,right_wrist,-0.8716,-0.4636,0.3758,-4.06,-4.9,-0.28,0.6503099883632655,0.10431448061079786,0.5084509808941321,-0.5547008276518651,-42.88910769118387,50.989276172094286,-102.14497537433112,12
1767284084.507105,1,left_wrist,-0.8247,0.2098,0.4753,6.3,-3.01,-5.32,-0.678754418222763,-0.4255006316082279,-0.2927358100742351,0.5220607222768814,30.241621584873702,57.31644248764228,-58.329597160244035,12
1767284084.507105,2,right_wrist,-0.8847,-0.4187,0.3362,-9.03,-6.51,4.48,0.6522756697529544,0.10301931073937755,0.5113823610970555,-0.549919587777994,-43.2044386014096,51.29989100816198,-101.79878171205367,12
1767284084.557476,1,left_wrist,-0.752,0.1967,0.6144,3.78,-5.32,7.14,-0.681551574223894,-0.42334680375318906,-0.2878232904172629,0.5228983542891205,30.118763410757133,56.62287025358734,-58.49769480290614,12
1767284084.557476,2,right_wrist,-0.8628,-0.4319,0.3943,-3.15,-0.98,1.4,0.6520223234531188,0.10404342554097652,0.5145556647638264,-0.5470597071435187,-43.59380322816666,51.70583567008838,-101.92826880216606,12
1767284084.625872,1,left_wrist,-0.8403,0.3152,0.405,2.94,0.98,-5.04,-0.6788515703145365,-0.4271783477299473,-0.2888130892003024,0.5227487008293549,30.702217822465823,57.00691466317415,-58.2378471991667,12
1767284084.625872,2,right_wrist,-0.9008,-0.4402,0.3353,-1.33,2.52,3.29,0.647655550202502,0.10591484436944439,0.5240738342211437,-0.5428360252588621,-45.234655895999474,52.54464438712151,-103.17858247959134,12
1767284084.67628,1,left_wrist,-0.8403,0.3152,0.405,2.94,0.98,-5.04,-0.6762216517574424,-0.43103411005818965,-0.2896513891295063,0.5225284168694831,31.31667555815455,57.37234222833756,-57.94838878230718,12
1767284084.67628,2,right_wrist,-0.9277,-0.4094,0.2547,3.57,-2.87,-3.92,0.6462416936976927,0.10720399506160265,0.5253669724280833,-0.5430179748878661,-45.468940881302025,52.69829775728509,-103.52793195084467,12
1767284084.731064,1,left_wrist,-0.7808,0.202,0.6251,-1.19,-20.3,3.71,-0.6809469715441332,-0.42343688800628426,-0.282244732008603,0.5266406128222725,30.09484744510669,56.13836013867246,-59.119715043916926,12
1767284084.731064,2,right_wrist,-0.8682,-0.4631,0.3401,-8.47,-3.01,-0.49,0.6457465050641628,0.1048389769479995,0.5295917044700074,-0.5399563562608264,-46.30404911298629,52.861737859642616,-103.8027534399284,12
1767284084.806797,1,left_wrist,-0.6954,0.2943,0.7847,3.36,6.93,1.75,-0.6829201515238258,-0.42459291774864527,-0.2755435789256473,0.526703575982936,30.713455459950403,55.44860071809555,-58.85649004256973,12
1767284084.806797,2,right_wrist,-0.8774,-0.4865,0.2635,-7.77,-1.12,3.99,0.6456786190482483,0.10383615064241872,0.5340502718934321,-0.5358241146255579,-47.044383518554646,53.21857326020861,-103.97832721042253,12
1767284084.875217,1,left_wrist,-0.7735,0.4368,0.5451,11.69,43.12,-12.18,-0.674638725880376,-0.43755960497755464,-0.2839505829997586,0.5222798560623284,32.802247722259686,57.1596871650524,-57.27242633756132,12
1767284084.875217,2,right_wrist,-0.8218,-0.569,0.5563,-4.34,33.25,12.74,0.6390298339414302,0.11429894015991149,0.5390038914676232,-0.5367042282243246,-47.751856046905424,54.24947058542729,-105.6035549943209,12
1767284084.926681,1,left_wrist,-0.7735,0.4368,0.5451,11.69,43.12,-12.18,-0.6663310497766809,-0.44955086828127194,-0.2924389795956817,0.5180602205768142,34.879661161809395,58.81625464721859,-55.64624914082936,12
1767284084.926681,2,right_wrist,-0.589,-0.3699,0.6739,-4.2,99.47,21.35,0.6215373955702348,0.14041622319717018,0.5635274037016466,-0.5257484336144933,-52.096874750733186,58.01144459922046,-110.7804759212923,12
1767284084.978087,1,left_wrist,-0.5036,0.3382,0.7749,-31.92,100.24,-48.58,-0.649815657997561,-0.4543999620350033,-0.33575861333873125,0.508454952471344,34.56597267101914,63.954576881934386,-54.09791075035822,12
1767284084.978087,2,right_wrist,-0.5207,-0.4128,0.5563,6.16,115.08,11.13,0.5955451003922104,0.16936623224681005,0.5898063774612429,-0.5184298890683267,-58.93382014528953,61.416600375410205,-119.18242611229499,12
1767284085.0553632,1,left_wrist,-0.2513,0.0712,0.6481,-89.74,198.94,-6.58,-0.5941433078376057,-0.49029983885235423,-0.47092405071836035,0.42991898798279987,66.93316934562336,78.86389983189854,-14.720900453673776,12
1767284085.0553632,2,right_wrist,-0.3294,-0.2303,0.6622,-22.4,188.23,22.4,0.5531309397637746,0.21040626127652245,0.6380178416066141,-0.4926546482915967,-76.18808395118832,65.9415513915702,-137.2894960524921,12
1767284085.1061592,1,left_wrist,-0.3372,0.2225,-0.0586,-40.25,249.62,-34.37,-0.5420585456369789,-0.5196753532387893,-0.5459089398808603,0.37160932401679314,130.81463515747546,77.9763301505732,52.16459826122841,12
1767284085.1061592,2,right_wrist,-0.244,-0.427,0.1615,9.31,259.84,-8.26,0.4740559053860453,0.2616759624175931,0.6950541723555985,-0.4729655238519159,-104.14228796160899,65.02830918571027,-168.43087887747333,12
1767284085.17238,1,left_wrist,-0.3372,0.2225,-0.0586,-40.25,249.62,-34.37,-0.485049485622179,-0.5415612066533649,-0.6134364322434899,0.3084383237248399,156.5751562985646,68.305880210346,81.11032667285133,12
1767284085.17238,2,right_wrist,0.0254,-0.588,-0.9618,-23.94,336.49,-22.12,0.2691866741973049,0.3587569242687332,0.8163803502274446,-0.3638064423376081,-145.82318792257385,44.47143495491216,146.88061191935753,12
1767284085.2609332,1,left_wrist,-0.0151,0.2738,-1.3581,-152.11,357.07,-34.79,-0.3169644922384608,-0.570478830048859,-0.752586041774396,0.08775912973843326,163.67365674362523,35.254937080135626,100.45453243679363,12
1767284085.2609332,2,right_wrist,0.3353,0.1181,-0.8164,16.17,339.22,38.78,0.1473607097772474,0.42419225114458325,0.8397757025356507,-0.30515983469911473,-153.29524057013944,30.42385070055635,133.7865987597583,12
1767284085.31559,1,left_wrist,-0.0151,0.2738,-1.3581,-152.11,357.07,-34.79,-0.22888418273943875,-0.5448456709784225,-0.805256417745619,-0.048138626769623834,159.84149541996132,18.43113813781554,108.53070837589642,12
1767284085.31559,2,right_wrist,0.4504,0.0288,-1.5343,-217.49,328.65,51.24,0.07007964265190539,0.4659004744214574,0.8683182501508211,-0.1550774260640731,-167.78094342690548,15.438516347123612,125.23044558522379,12
1767284085.3813078,1,left_wrist,0.1147,0.2694,-1.3942,-25.97,275.52,84.14,-0.1306723600130783,-0.5622692680201541,-0.8059376721784777,-0.13131059794330904,158.9418436421943,3.6099437740869065,109.52506255830254,12
1767284085.3813078,2,right_wrist,0.6359,0.0986,-0.956,-138.6,242.48,2.66,-0.1317805717546023,0.5082035716624346,0.8469906256880465,-0.0834858709851332,-163.85667265031861,-7.954009498234937,116.9417835857289,12
1767284091.128447,1,left_wrist,0.2172,0.1801,-1.1092,77.84,-335.72,-65.38,-0.3850550274136853,-0.48017239405085105,-0.7635709706100948,0.19526000792911513,173.48791401253646,50.85497974553191,112.57386902645088,13
1767284091.128447,2,right_wrist,0.5251,-0.0917,-0.9589,17.15,-360.92,-1.68,0.2690485149277553,0.3471194601708032,0.8521080010478488,-0.28466283834764744,-156.71246924582286,41.006208613720275,144.4841896495853,13
1767284091.206208,1,left_wrist,0.022,0.162,-0.2147,56.28,-329.56,6.79,-0.561883702330542,-0.42730373071974415,-0.614416653462631,0.35240658722006407,158.58426333259138,82.58202477397022,91.5074732786054,13
1767284091.206208,2,right_wrist,0.3802,-0.2074,-0.59,52.08,-350.7,-35.98,0.3792660728063473,0.29257643084689616,0.8022384322545977,-0.35632818572858815,-142.65229023136402,54.78859066405338,159.79486380075303,13
1767284091.258591,1,left_wrist,0.0615,-0.0932,0.4216,-2.1,-256.83,42.14,-0.6347309111624999,-0.3948923054357955,-0.5391236344138158,0.38797222109174717,37.83989600365037,82.22686280569991,-29.560162200621015,13
1767284091.258591,2,right_wrist,0.1952,-0.1464,0.0503,27.16,-315.35,-38.64,0.47491983282816425,0.2311300364139841,0.7436763011365242,-0.4098482862982796,-118.63255291101922,63.615207980064774,-174.1210543256346,13
1767284091.311432,1,left_wrist,-0.2606,0.1972,0.6744,73.5,-174.65,37.52,-0.6688986281609031,-0.3922789086859456,-0.4678577384497154,0.4240295032392713,26.707593923849622,73.4505915186967,-44.656904729924356,13
1767284091.311432,2,right_wrist,-0.0644,-0.3026,0.449,52.57,-224.56,-51.17,0.5312960231024508,0.18300299883553378,0.6878118910556007,-0.4595097831115678,-91.72109670172036,64.03305240338628,-147.30271452094655,13
1767284091.372161,1,left_wrist,-0.2298,0.2157,1.0194,2.94,-96.53,33.95,-0.6953624466475368,-0.3806194840420592,-0.4306646380006597,0.43142536519735275,24.93244212433203,68.02601261110868,-46.66277139866198,13
1767284091.372161,2,right_wrist,-0.3709,-0.1879,0.8799,21.35,-44.17,-24.57,0.5863399054419063,0.13240473342207165,0.6332006033560745,-0.48757717108505993,-70.56850117487438,60.65172319132476,-124.46364272585484,13
1767284091.42724,1,left_wrist,-0.4031,0.3309,1.0634,33.88,36.68,-1.12,-0.6842408173404881,-0.3964910951697406,-0.4331407219100178,0.4324331513188936,28.423806199758076,69.33453386581486,-44.71559040379034,13
1767284091.42724,2,right_wrist,-0.6202,-0.4963,0.5822,-18.76,26.53,-10.43,0.5789252049319518,0.12908967811071856,0.6424020854071815,-0.4852844761212469,-73.40037139945932,60.35375259709268,-126.8086472481487,13
1767284091.48229,1,left_wrist,-0.7505,0.2147,0.6876,7.84,105.21,-8.54,-0.6625573969918972,-0.4153122728367784,-0.4618897608496925,0.4185585509157409,35.63318557391019,73.68299739864817,-37.48681591966386,13
1767284091.48229,2,right_wrist,-0.7803,-0.5334,0.3933,1.96,60.76,0.77,0.5628544735398324,0.14130186150992793,0.654929260798241,-0.4840416189753697,-77.85617862167702,60.93294162786549,-132.21803416406388,13
1767284091.5591638,1,left_wrist,-0.6837,0.1113,0.4851,-9.66,83.65,-11.83,-0.629824684211717,-0.43117006353920156,-0.5132903963441313,0.392359799783434,54.189641872411734,80.03495969887541,-17.350278303982403,13
1767284091.5591638,2,right_wrist,-0.6388,-0.4943,0.4616,-12.53,70.63,17.78,0.5480257986992442,0.15695380611318513,0.6715097616314389,-0.47340032397573234,-83.983195587122,62.20397287621432,-138.65031563571597,13
1767284091.621873,1,left_wrist,-0.2479,0.2416,0.3806,-14.21,275.73,17.15,-0.5714999076647942,-0.4747803463285678,-0.5822435897490166,0.33009677440931773,129.14726916139733,78.22351581822649,59.34629986024905,13
1767284091.621873,2,right_wrist,-0.3035,-0.4582,0.9653,-13.72,157.5,39.55,0.5106674104288369,0.19653915103685496,0.7060410070800707,-0.4495522821174172,-99.70586429044208,63.87213524975962,-155.64388366968757,13
1767284091.705264,1,left_wrist,0.3821,0.1288,-0.3533,-23.24,467.67,71.33,-0.3573354434111526,-0.5759599464333948,-0.7267118999710649,0.11167513343193779,160.8929672735894,40.391028198433965,96.11725704525377,13
1767284091.705264,2,right_wrist,0.2206,-0.1118,0.3343,2.45,343.42,14.42,0.32646244021840654,0.3152953074241937,0.8140382899594288,-0.36242627763843943,-143.758602117973,49.46847041253087,154.80115782618728,13
1767284091.778987,1,left_wrist,0.3821,0.1288,-0.3533,-23.24,467.67,71.33,-0.2109380476508775,-0.6057945725615604,-0.7666872142968749,-0.026623135463168544,161.9516466949794,16.92925532388836,100.66436983293613,13
1767284091.778987,2,right_wrist,0.67,0.1161,-0.998,15.82,363.09,24.5,0.03328451097736659,0.41192261137089514,0.8904381840958256,-0.19060887669389526,-161.3615102362284,12.492265040283277,132.40678566908687,13
1767284091.8298082,1,left_wrist,0.8662,0.3523,-1.2493,22.4,385.77,46.2,-0.07074065324357648,-0.6105464438113002,-0.7786373505300118,-0.12630390448299827,163.5399923079708,-2.5256233870263185,104.16382723128855,13
1767284091.8298082,2,right_wrist,0.8701,-0.306,-1.7261,-84.91,327.39,-30.31,-0.08412970119393667,0.4209611147210445,0.8981219716453718,-0.09534598742298778,-165.9537455214751,-4.062439936096709,129.27316470615577,13
1767284092.714255,1,left_wrist,0.3606,0.0825,-1.1512,-30.94,-299.6,11.76,-0.3079786795092329,-0.5857291571061404,-0.7425605022527968,0.10331692977219954,165.2749294050121,35.33928548415739,98.75338723520599,14
1767284092.714255,2,right_wrist,0.8218,-0.04,-1.3098,36.54,-330.54,-7.49,0.10504628247148978,0.3894069809668999,0.8892216737543602,-0.21589881110987774,-161.14350204177376,20.791230116047807,136.190769589057,14
1767284092.772149,1,left_wrist,0.2386,0.0449,-0.5544,10.36,-309.4,9.24,-0.39908367303077213,-0.5724420909477306,-0.6930766720315438,0.1807954676349444,161.48717424112257,49.480160485397825,92.30092399705993,14
1767284092.772149,2,right_wrist,0.4465,-0.0195,-0.4446,104.44,-370.93,-18.9,0.3472506644749963,0.3161809057527061,0.7945698243941344,-0.3848446505037408,-139.72515972210837,52.673286505764445,157.1787965600562,14
1767284092.825098,1,left_wrist,0.2386,0.0449,-0.5544,10.36,-309.4,9.24,-0.4834612678945873,-0.5494422348921647,-0.6318553645109245,0.25521996650189444,152.57371325813367,63.05127467829903,80.95543459413312,14
1767284092.825098,2,right_wrist,0.2723,-0.2879,0.1513,25.06,-304.15,2.24,0.4451673720071378,0.2661205527858029,0.7373269135056669,-0.43284510498034307,-119.70111688313482,62.47951981381211,179.1246981279281,14
1767284092.8751621,1,left_wrist,-0.1244,0.205,0.1386,-19.46,-263.41,-7.77,-0.5584775687660765,-0.5102029298788565,-0.5747194108301019,0.3122392901978601,130.66138288043342,73.85202173059704,58.71922224294865,14
1767284092.8751621,2,right_wrist,-0.0273,-0.0249,0.4846,64.26,-226.38,-56.07,0.49836338379336675,0.21589931033689655,0.6824248153936309,-0.48920118236268273,-93.1159218436495,63.053174591652635,-154.8024825498513,14
1767284092.926493,1,left_wrist,-0.3387,0.2747,0.5007,-99.68,-209.86,10.64,-0.6335873332329145,-0.4566616108126034,-0.5302112279011122,0.3300050275138807,84.83557337418975,76.72308694621752,16.72232191975309,14
1767284092.926493,2,right_wrist,-0.407,-0.4616,0.8233,32.2,-145.46,-45.43,0.5287403918015989,0.17668424179029993,0.6448224468074825,-0.5228960593403721,-77.73601884376265,60.07306753097464,-139.3357626439542,14
1767284092.977748,1,left_wrist,-0.3387,0.2747,0.5007,-99.68,-209.86,10.64,-0.7020029893129451,-0.3982539140685937,-0.4796763914351378,0.3442327445559162,45.79957775799705,71.3792073348114,-18.48532254894058,14
1767284092.977748,2,right_wrist,-0.5934,-0.4817,0.6417,-9.17,-85.96,-22.96,0.5491110743790241,0.14715127215173474,0.6261911027842034,-0.5335805786311411,-71.20127754145692,57.64313265714381,-131.35989141320545,14
1767284093.0289578,1,left_wrist,-0.4202,-0.0137,1.0438,58.8,12.88,4.83,-0.6910842083020253,-0.41749139228088966,-0.47219587190674045,0.3537437108432604,49.78105281028787,71.44599060525368,-17.30636297607186,14
1767284093.0289578,2,right_wrist,-0.5275,-0.4948,0.8896,-11.76,-16.24,-7.63,0.5536254545225765,0.1374387310582803,0.6233412743922769,-0.5348411978791204,-70.2151990531707,56.846767752011864,-129.68496021018277,14
1767284093.080561,1,left_wrist,-0.8608,0.5368,0.3406,25.62,87.64,18.34,-0.6727780475286947,-0.4436722497050821,-0.48784907385642595,0.335451806885186,64.20946669865761,72.57114582182791,-3.5371216548394786,14
1767284093.080561,2,right_wrist,-0.6154,-0.5007,0.549,-8.19,93.03,-4.9,0.5282878233953596,0.15462226496919898,0.6453685570763065,-0.5296256757042979,-77.09659995358363,57.7432062946882,-137.58142764106069,14
1767284093.157021,1,left_wrist,-0.4685,0.3567,0.5036,-22.05,174.65,7.63,-0.6116408739111728,-0.4757748295422624,-0.5612315612406744,0.2907797922871586,107.92497079751229,74.41559725409739,41.590091794108346,14
1767284093.157021,2,right_wrist,-0.4656,-0.3865,0.5924,-24.71,127.96,1.61,0.49462261605888347,0.17789007895656647,0.6774839477880082,-0.5145085888315841,-87.94051780881834,58.56690512503156,-149.0837707424492,14
1767284093.225146,1,left_wrist,-0.1669,0.1352,0.4163,-13.23,246.26,-2.24,-0.5522593210910356,-0.49945531925197106,-0.6244202735087281,0.23590961907108662,137.31603245215365,67.71914521183372,73.30945450942201,14
1767284093.225146,2,right_wrist,0.1806,-0.1776,0.3133,-88.83,314.23,13.23,0.34277266760837144,0.2754405132153178,0.7958282100176581,-0.41628942114881257,-131.45044975283093,50.79617202629273,165.98999077933962,14
1767284093.309966,1,left_wrist,0.4856,-0.0049,-0.3328,-7.0,383.67,96.81,-0.3390123078844426,-0.5823669430813281,-0.738458528788215,0.024462215126967665,154.9898565248196,31.95040718820369,96.21362867207102,14
1767284093.309966,2,right_wrist,0.5095,-0.1376,-0.2225,-32.83,378.14,0.84,0.20981841826704625,0.33439329494421477,0.8478585006572364,-0.3539679625552701,-145.18571856299513,36.336159611314876,148.7002130088031,14
1767284093.376062,1,left_wrist,0.8135,0.7452,-1.6172,9.31,396.83,96.53,-0.20315689176150595,-0.6105293774300146,-0.7602516547870959,-0.08943476962683462,156.92430018044834,11.519160162372518,100.10759226254378,14
1767284093.376062,2,right_wrist,1.0175,-0.1318,-1.4176,-43.96,358.19,14.56,-0.07017143356325035,0.4140588141507102,0.8978091012003595,-0.13255220155692798,-162.7727489206414,-0.9300824766797954,130.34193651339825,14
1767284093.437991,1,left_wrist,0.9248,-0.2118,-1.2703,28.63,322.56,127.54,-0.07824462110036795,-0.6360650700651681,-0.7472207590822251,-0.17595494624600908,158.6181968540067,-6.136966318602729,100.3480591091056,14
1767284093.437991,2,right_wrist,1.1463,-0.263,-1.4074,-78.47,328.58,31.92,-0.18452069960742967,0.44241307871583924,0.8766914082583859,-0.04043456298126192,-165.8472452181246,-16.723770184358404,124.35468498600373,14
1767284094.379263,1,left_wrist,0.4192,0.0576,-0.753,-6.86,-335.37,-8.12,-0.4441403142776598,-0.5692726858259757,-0.6276124095526752,0.29115400354675947,162.1706985629142,62.74635222433617,84.65417041503083,15
1767284094.379263,2,right_wrist,0.0927,-0.2386,-0.5666,55.37,-290.15,-26.04,0.43393648065558865,0.2402931493412069,0.7692156402095499,-0.4028220847879847,-126.01225450469222,59.44845671327891,177.7364841484227,15
1767284094.462199,1,left_wrist,-0.1357,0.0493,0.3118,8.19,-265.58,-14.56,-0.5926244449771672,-0.4662141142313353,-0.5019289665245834,0.4236838201661228,64.235460165287,81.87638679573729,-13.98840091453349,15
1767284094.462199,2,right_wrist,-0.0332,-0.2552,-0.2152,14.7,-259.21,-14.07,0.5098945106641607,0.1899029782598277,0.7170415993241084,-0.43565558837380763,-103.11288772037246,63.727079613338184,-157.14279409604418,15
1767284094.523154,1,left_wrist,-0.1103,0.1132,1.038,-18.13,-164.43,31.36,-0.6379286054587558,-0.43551861907887773,-0.45344289325068954,0.44470233789976665,36.03728785469612,74.99000932867358,-41.736963190314015,15
1767284094.523154,2,right_wrist,-0.204,-0.3909,0.9262,62.79,-142.73,-42.77,0.5942607057878236,0.12350105765008973,0.6065705213772333,-0.5134918742414707,-63.863743133107945,57.968392161370666,-119.7520670717854,15
1767284094.610698,1,left_wrist,-0.3318,0.4363,1.2434,19.18,-17.08,7.98,-0.6438106381519599,-0.4406155212163015,-0.4290909590997792,0.4552436418935302,35.96410694576483,72.49324227670937,-43.758795612124814,15
1767284094.610698,2,right_wrist,-0.324,-0.549,1.0775,-10.29,-20.16,4.34,0.6020610792180429,0.11619517797885888,0.6012761529017201,-0.512335949799518,-62.30735626197071,57.465937724865285,-117.46558856220516,15
1767284094.676609,1,left_wrist,-0.469,0.1801,0.7369,13.37,91.14,4.69,-0.6263224323408174,-0.46163450865682837,-0.4489369566300835,0.439396631911954,47.10746318665779,75.47535878721382,-32.81628387120597,15
1767284094.676609,2,right_wrist,-0.3884,-0.5656,0.5822,-12.32,143.08,3.08,0.5441079785782773,0.1560631124321399,0.6563183609139122,-0.4988356660391574,-79.51152874547168,60.44885715785868,-136.7413331690065,15
1767284094.756792,1,left_wrist,-0.181,0.2333,0.103,-16.8,289.45,-12.32,-0.5338745773874353,-0.5234099615525708,-0.5834991995139057,0.31709404272795005,140.47529031628864,72.7405725407598,66.5733085518824,15
1767284094.756792,2,right_wrist,-0.1791,-0.327,0.5641,-49.7,221.69,36.12,0.49018535853874096,0.2009089605888767,0.7123779335326358,-0.4602951049545442,-101.78039871112917,62.04906361431173,-159.38693303216706,15
1767284094.8324108,1,left_wrist,0.1298,0.4031,-0.4211,-38.08,376.81,4.2,-0.4399159437289388,-0.5626959188504111,-0.6664804500405997,0.21366112205042928,158.04559109250022,55.775814422010946,87.93100385742602,15
1767284094.8324108,2,right_wrist,0.3772,-0.2079,-0.2098,16.66,354.06,25.48,0.2712892024797687,0.3106922747781969,0.8329583058916022,-0.36885354770861634,-142.4802111851041,42.93318892427542,154.3041148615877,15
1767284094.9029849,1,left_wrist,0.8013,0.8413,-1.729,9.38,421.4,-17.36,-0.18468414876024403,-0.6046346008030526,-0.7747931232849171,-0.002093040573025347,166.33285652740278,16.478346784942534,102.07608539407646,15
1767284094.9029849,2,right_wrist,0.6905,-0.7242,-1.1043,-134.89,409.36,17.99,0.13701040446022064,0.3598807037190399,0.8864852025092723,-0.25662816270321887,-156.78114765590198,25.317022095359604,141.09302053325843,15
1767284094.957749,1,left_wrist,0.8013,0.8413,-1.729,9.38,421.4,-17.36,-0.036436969916548975,-0.5895611749023127,-0.7992762519292009,-0.11066815880420947,167.26461974889742,-4.142936518254392,107.6361735155221,15
1767284094.957749,2,right_wrist,0.9887,0.1259,-1.3127,-39.83,399.84,48.23,-0.009198172459581412,0.41441527573290676,0.8940265056207481,-0.16997641045208864,-161.70009000417875,7.148118648791718,131.41376104330342,15
1767284095.8647869,1,left_wrist,0.0405,0.2328,-0.8979,80.43,-290.78,-31.01,-0.40172347617682025,-0.49922163993933255,-0.6993528493510021,0.31670427058903,-174.97877170357444,61.41450897360755,111.94243192155444,16
1767284095.8647869,2,right_wrist,0.3821,-0.2406,-1.1014,4.13,-286.72,2.38,0.2646174173380725,0.3067057559695422,0.8488654680995119,-0.3396124537832448,-146.64341692760308,41.11491320527925,153.09076403120477,16
1767284095.926763,1,left_wrist,0.0405,0.2328,-0.8979,80.43,-290.78,-31.01,-0.4624340099987575,-0.46190350660095686,-0.6403997424929171,0.40334613770459515,-160.09648884274614,74.77439600837894,123.67021820001746,16
1767284095.926763,2,right_wrist,0.101,-0.427,-0.346,-4.27,-278.04,-5.74,0.4460555916647121,0.20588482085307566,0.7556376499216834,-0.4331946349018836,-115.70736981934895,58.483449299326274,-171.71687206664828,16
1767284095.9799712,1,left_wrist,-0.0971,-0.0312,0.2416,-19.88,-253.26,59.08,-0.5455178143306473,-0.42592782472330387,-0.5757102387903942,0.43537744926247046,-125.0901654330008,87.43631649254155,159.84831659545668,16
1767284095.9799712,2,right_wrist,-0.0717,-0.2137,0.2704,52.99,-243.39,-6.09,0.5181466010173646,0.16597270754453797,0.6931392533006087,-0.4727950250778468,-91.89300674787472,61.07311238558986,-147.50256672842255,16
1767284096.058198,1,left_wrist,-0.3196,0.1166,0.4128,-38.99,-191.1,66.92,-0.6752963439838131,-0.3599385391877341,-0.46141488337107267,0.4489046682906686,12.848943434720223,71.1450492032482,-58.019655501987074,16
1767284096.058198,2,right_wrist,-0.2835,-0.3626,0.7335,19.25,-179.34,3.36,0.5710905125016046,0.1329088389850543,0.6443770861859304,-0.49088597234880277,-74.40243627560764,60.05230041081206,-128.73748215412178,16
1767284096.1291788,1,left_wrist,-0.5461,0.3816,0.6486,30.94,-98.35,8.4,-0.6932283748248148,-0.3510416985823217,-0.4215204527169488,0.46746620641013503,13.093379626811537,65.86998433880049,-59.482812816575176,16
1767284096.1291788,2,right_wrist,-0.6505,-0.6217,0.6154,15.05,-2.59,-5.25,0.5870654254887064,0.1254651267192097,0.5991540421549016,-0.5297425053198385,-62.79869601532075,56.76332702651846,-120.62677586455956,16
1767284096.2098072,1,left_wrist,-0.9443,0.2645,0.0444,16.31,95.2,-39.27,-0.6545508681873586,-0.37941047165589564,-0.46726016553033,0.45746999099568764,14.097720024189075,73.50184986178596,-59.34877615085234,16
1767284096.2098072,2,right_wrist,-0.7471,-0.5129,0.3421,-18.41,28.91,14.56,0.5844392608946494,0.12914667446434847,0.6078605740131645,-0.5217829140170285,-64.78163752439161,57.70283001315858,-122.04582246079157,16
1767284096.2636049,1,left_wrist,-0.5978,0.1449,0.7344,-34.02,105.84,-22.89,-0.6350531859770904,-0.38452446292946185,-0.5053871898677277,0.43980925036515245,12.768568009890103,78.55924226147087,-58.9517832247341,16
1767284096.2636049,2,right_wrist,-0.7198,-0.5114,0.4192,-31.08,57.96,17.01,0.5754179595886388,0.13732920496579246,0.6263161589280131,-0.5077035850887511,-69.6000296084093,59.34266338104215,-126.04953664793881,16
1767284096.330049,1,left_wrist,-0.5573,0.3411,0.2762,-30.31,209.65,-33.11,-0.5873157987460192,-0.40883108732725415,-0.5697622654618526,0.4040894151470905,50.20679010633072,88.52664439491387,-19.97414357047722,16
1767284096.330049,2,right_wrist,-0.2279,-0.326,0.5441,-44.03,231.63,31.08,0.49494698631662415,0.20561783339632406,0.7178312480494728,-0.444372688910141,-104.84185864774942,63.29328529602426,-161.22017327048883,16
1767284096.404439,1,left_wrist,-0.2318,0.0654,0.4846,-70.77,274.68,-6.86,-0.4605988483544633,-0.4517063476480202,-0.7164736222705459,0.2654724561598643,175.30521240877766,64.13770560912319,112.5981223982565,16
1767284096.404439,2,right_wrist,0.0898,-0.1396,0.2216,-27.58,290.64,18.69,0.4066878523198326,0.2589120129330766,0.7775043494884565,-0.4038026087842379,-129.42485004659162,57.29905173456428,172.10940047766917,16
1767284096.462208,1,left_wrist,0.367,0.4719,-0.7379,-68.67,424.76,1.4,-0.33335272434162716,-0.4808516518884311,-0.7962427856403989,0.15380206879557853,174.08641630702888,42.747707330864245,115.42824042124649,16
1767284096.462208,2,right_wrist,0.2586,-0.549,-0.4778,-47.18,372.75,21.35,0.2815303132300285,0.31770929062935943,0.8401219681997104,-0.33763377782537674,-147.66089133692287,43.438720864728346,151.74654224510564,16
1767284096.5357811,1,left_wrist,0.7501,0.1249,-1.4172,4.41,379.61,7.63,-0.19448492496475753,-0.5034415189811398,-0.8388438502223021,0.0711564886123492,175.22018821489,23.44891309581783,117.06637645956091,16
1767284096.5357811,2,right_wrist,0.7959,-0.0586,-1.5338,-185.85,332.36,36.4,0.04631204033879459,0.41992558173273187,0.8979914301157668,-0.1230003746527805,-169.32365220586746,10.747294139683301,130.88297088693233,16
1767284097.45567,1,left_wrist,0.1225,0.3123,-0.7501,-45.85,-334.46,26.04,-0.49444171639377843,-0.5072454094756016,-0.6663922211004478,0.23270344069720025,154.57424896619204,63.516103127829794,89.54503855485815,17
1767284097.45567,2,right_wrist,0.4494,-0.0859,-0.6686,8.54,-356.86,-30.24,0.37540635004855927,0.3168482738861983,0.8241880063858101,-0.2817647490520045,-157.95022223323568,52.879131323501,149.01020452912516,17
1767284097.522214,1,left_wrist,0.1,0.08,0.1283,1.68,-336.35,7.42,-0.5876324488269306,-0.4704622775409479,-0.5845970921292687,0.30265424228094356,122.36964346007643,76.36842034367028,55.557819736008,17
1767284097.522214,2,right_wrist,-0.0205,-0.1259,0.0781,49.28,-263.76,-55.09,0.5398985861132687,0.21597201404492491,0.7100739734573873,-0.3970649293008765,-107.09460802925437,69.75900021502731,-159.34499687120046,17
1767284097.5765939,1,left_wrist,-0.2372,0.2752,0.3567,16.45,-258.58,-1.82,-0.6479601083695404,-0.43673373055461656,-0.511010042562061,0.35816209034221014,64.2887802436456,77.17979780284807,-4.600861121878233,17
1767284097.5765939,2,right_wrist,-0.2601,-0.3611,0.2655,5.53,-179.06,-35.7,0.5874019880395009,0.17269469024070855,0.6667389072735505,-0.42496432548812796,-81.97790667271596,68.44505628913522,-132.93803916434612,17
1767284097.629235,1,left_wrist,-0.327,0.1767,0.6622,33.46,-154.84,-3.29,-0.6757552131214896,-0.41904284758880667,-0.4594423980352659,0.39581645583704417,41.79986829571902,72.30147366381861,-29.542665157917686,17
1767284097.629235,2,right_wrist,-0.3484,-0.3797,0.7676,7.56,-113.68,-38.5,0.6131034835932633,0.14094195885054123,0.6362665976352839,-0.44654708528306086,-69.15017096600295,64.96764329045202,-119.51863656783219,17
1767284097.705523,1,left_wrist,-0.3636,0.3372,1.1058,13.16,63.0,1.68,-0.6764407908756559,-0.4363207494339291,-0.441935178678073,0.39591079538162527,46.4316931861278,70.62614900194308,-26.877342081578057,17
1767284097.705523,2,right_wrist,-0.4602,-0.591,0.8652,-8.61,-30.17,-15.75,0.6198344825204222,0.1268687887943032,0.6288497042366293,-0.4519486410976481,-66.71883972503518,63.411208845648325,-116.45823688591949,17
1767284097.761248,1,left_wrist,-0.3636,0.3372,1.1058,13.16,63.0,1.68,-0.6635781082153087,-0.45012623710880784,-0.45585370849824347,0.38632610759830327,53.84123903592283,72.32237092854271,-19.69377887036542,17
1767284097.761248,2,right_wrist,-0.4787,-0.5348,0.8345,-18.55,63.28,10.57,0.606383431130029,0.13589261980437148,0.6468801093764647,-0.4420163508590729,-72.78029595576044,64.77595391931794,-122.2913476632138,17
1767284097.832795,1,left_wrist,-0.4377,0.2747,0.5607,-29.12,209.58,-6.58,-0.6258235706456533,-0.47284528560668393,-0.5187200035957374,0.3401349029039752,86.48136661720719,76.14785314743082,15.708285797682915,17
1767284097.832795,2,right_wrist,-0.3235,-0.5441,0.4958,-57.75,174.58,55.51,0.530643271728499,0.19509675644224703,0.7249690504122602,-0.3934143486698656,-109.30482583456494,67.35492809245956,-159.5302178397141,17
1767284097.9036381,1,left_wrist,0.0034,0.3684,-0.0464,-38.78,417.2,11.69,-0.4561011472782857,-0.5271596086687197,-0.7005875206262198,0.15248480705460435,153.56317824488292,53.115323184298646,92.68809161638914,17
1767284097.9036381,2,right_wrist,-0.0576,-0.2137,0.2952,-29.47,290.43,56.0,0.4476487233876306,0.2528714427014816,0.785216808693622,-0.3451104421203442,-138.84227290248168,61.34699481511867,169.40778864403995,17
1767284097.958658,1,left_wrist,0.0034,0.3684,-0.0464,-38.78,417.2,11.69,-0.3332955112945788,-0.542931151548069,-0.7698376884356835,0.038597931208504424,158.67536255665365,33.716151485514786,103.0824404000535,17
1767284097.958658,2,right_wrist,0.1645,-0.3558,-0.3089,-56.77,346.57,52.5,0.33522642898638744,0.3069314578071999,0.847384375601495,-0.27451054898463606,-157.44065294022283,47.44624075365554,150.196380103687,17
1767284098.024482,1,left_wrist,1.2424,0.9301,-1.1712,-79.59,522.34,121.59,-0.17135235988379158,-0.5661477847578996,-0.7958680686772323,-0.1292635750548111,156.23373377206585,7.260639123658175,107.61725666344518,17
1767284098.024482,2,right_wrist,0.9321,0.0551,-1.4601,-196.14,430.78,124.11,0.07350302697646247,0.4111247952024221,0.9086009160956326,-0.004252418751843808,176.9497043261751,7.878125937936492,131.09820135361286,17
1767284098.080159,1,left_wrist,1.076,-0.2015,-1.2342,138.53,337.47,-14.35,-0.016168443599969596,-0.5460477755855149,-0.8218012001641447,-0.16190489683279197,163.3202101206952,-8.64090034922252,114.06477931103761,17
1767284098.080159,2,right_wrist,0.7925,0.1469,-1.2649,99.47,248.43,38.01,-0.04646639210387219,0.42696607538580444,0.9030632917540733,0.004187596063406331,-178.15249419623032,-5.01980639702419,129.30967367660537,17
1767284098.924052,1,left_wrist,0.4187,0.1942,-0.9457,47.53,-374.36,21.49,-0.3413723671571895,-0.43874239472572235,-0.8084087922310793,0.19350773280497877,-178.89753274034314,46.19807209427335,123.49079001236281,18
1767284098.924052,2,right_wrist,0.6202,-0.2001,-0.754,52.71,-358.68,-59.99,0.3597593280575793,0.31159600280837624,0.8429848615090186,-0.2507143397893756,-162.12370748832467,49.710469841202084,147.76196988694974,18
1767284098.9773362,1,left_wrist,0.1322,0.0425,-0.6632,12.81,-377.51,29.33,-0.46498018100584354,-0.4148169440560574,-0.7375830492168558,0.26017605520826054,179.74011565645213,64.39222332868161,121.12953672589171,18
1767284098.9773362,2,right_wrist,0.3548,-0.0888,-0.3841,18.62,-335.51,-62.3,0.46605472019556526,0.2520516948299743,0.7898019700210686,-0.30899156795551863,-145.9526797156605,63.11875358823385,165.90272786064034,18
1767284099.064961,1,left_wrist,-0.0698,0.1698,0.5148,-5.95,-267.54,3.15,-0.6511811207081816,-0.3246661484688321,-0.5832321600934819,0.36110287662152757,0.8521882886868227,83.74945550630673,-57.25587562898954,18
1767284099.064961,2,right_wrist,0.0503,-0.1752,0.144,52.5,-271.25,-74.97,0.5397502807816534,0.19743282889538574,0.7293481975477407,-0.37113490701408486,-113.37250687316914,69.04798294086993,-161.63813971126714,18
1767284099.123858,1,left_wrist,-0.1425,0.0654,0.8203,53.55,-147.84,11.9,-0.6830587146322001,-0.31798345761831404,-0.5277743656994344,0.3921371341210474,4.864362957629951,76.02187123644585,-55.91655858422342,18
1767284099.123858,2,right_wrist,-0.3748,-0.4836,0.7359,68.74,-121.24,-57.75,0.6076781231474624,0.12081383960467883,0.6361911756387519,-0.4597739693015853,-69.78709371097396,62.1646472784879,-119.8296156401788,18
1767284099.177057,1,left_wrist,-0.1923,0.2469,1.3522,37.59,-32.06,33.32,-0.6923360909750276,-0.3305307937345851,-0.5047901049337313,0.3957361260835253,12.072792742526268,73.8578256460996,-50.41551686305286,18
1767284099.177057,2,right_wrist,-0.4382,-0.6129,1.0575,-17.57,-30.45,-12.53,0.6155112170987052,0.10528546440536513,0.6302082030352593,-0.46140929058449487,-67.90178091363906,60.804432818595224,-116.82465202836059,18
1767284099.258518,1,left_wrist,-0.5768,0.1459,0.4255,8.82,146.23,-31.29,-0.635432336787913,-0.37007165171037765,-0.567707605990331,0.3701091623633931,31.568410126819625,84.51026829474586,-31.63187887330205,18
1767284099.258518,2,right_wrist,-0.5251,-0.4924,0.8555,4.34,74.27,3.64,0.5964999103236879,0.1214079948724042,0.6467159068757015,-0.4595720743896802,-73.39882577769643,62.02146471640681,-123.49410960649297,18
1767284099.310029,1,left_wrist,-0.4187,0.161,0.6715,-49.63,228.76,8.96,-0.5869587950129536,-0.3928759106590973,-0.6328638200740694,0.31719280733015104,151.44263004807667,82.82293725531906,91.03456049250183,18
1767284099.310029,2,right_wrist,-0.6295,-0.5095,0.162,-14.14,128.17,0.98,0.5593348946566414,0.1400593205702371,0.6814544954725823,-0.4507190177272929,-85.99910474509309,62.6950188741016,-136.9202424640779,18
1767284099.375836,1,left_wrist,-0.4187,0.161,0.6715,-49.63,228.76,8.96,-0.5324666837231806,-0.41171012036457133,-0.6919869576587759,0.2610135206160395,165.41396730123105,72.14655282539539,107.8445467326809,18
1767284099.375836,2,right_wrist,-0.0947,-0.2962,0.2743,-53.48,249.97,44.03,0.4490523658018711,0.22214136843058813,0.7776794848539298,-0.37976282603337425,-128.240751207803,60.13023642369835,179.4888746346172,18
1767284099.4562402,1,left_wrist,0.5539,0.1942,-0.8589,-61.32,460.25,63.63,-0.29451488647965784,-0.4783312449767683,-0.8265624779152748,0.03542134700162813,164.8442899315324,31.382988418230706,115.60345641313691,18
1767284099.4562402,2,right_wrist,0.1796,-0.2655,0.121,-44.1,353.85,41.72,0.3348838216351134,0.28181486164680625,0.840316690433992,-0.31984538380304234,-148.58616730021132,47.995416497865776,157.19221683517134,18
1767284099.5063941,1,left_wrist,0.5539,0.1942,-0.8589,-61.32,460.25,63.63,-0.13551795643460407,-0.49098096693862703,-0.855692934231975,-0.09144493366651214,162.98986647982065,8.171007349457653,119.08323524066775,18
1767284099.5063941,2,right_wrist,0.4914,-0.3914,-0.693,-49.42,338.03,45.64,0.21683575540508085,0.3340801799641667,0.8825457634314635,-0.24997132632002614,-159.2211768562053,33.35026733843434,144.81946186727455,18
1767284099.576747,1,left_wrist,0.9843,-0.2054,-1.6802,12.18,260.4,72.66,-0.02797778765875449,-0.5053697093640932,-0.8499830422631102,-0.14610793311836845,163.85591734051042,-5.745836331037808,119.34713882328562,18
1767284099.576747,2,right_wrist,1.0653,-0.2162,-1.1317,24.43,302.61,11.41,-0.06810727180734126,0.4080328969618003,0.9029221996882869,-0.11662785187933114,-164.55609567927186,-1.593895404378323,131.14719187367845,18
1767284099.627834,1,left_wrist,0.6705,1.2161,-0.795,-72.87,201.46,105.07,0.03742579174275813,-0.5275170086010496,-0.8193769353235668,-0.2212386801822571,160.23947036757514,-17.142306725345687,117.46042936914903,18
1767284099.627834,2,right_wrist,1.2581,0.0996,-1.181,-62.3,293.16,-22.26,-0.17518860805043399,0.4118870853896571,0.8935096062673228,-0.03603559360658189,-167.4299275076817,-16.462050675896187,128.6773036624428,18
1767284046.537088,1,left_wrist,-0.02,-0.0542,-0.9945,-0.63,-1.4,-0.7,0.026974523413896116,-0.9986515706681988,-0.042704851979920654,0.011987956702717231,-176.85213078015977,1.239960124786341,4.9313115682875335,0
1767284046.537088,2,right_wrist,-0.2494,0.081,-0.9438,0.56,-2.87,-0.28,0.12112691864140676,0.6747307090148164,0.7258273075247392,-0.05693381722833014,175.2092087878357,14.63523622383715,93.56322915432803,0
1767284046.610173,1,left_wrist,-0.0166,-0.063,-0.9931,0.28,-0.91,-0.49,0.027223135924782763,-0.9985990024776865,-0.043549230858466466,0.012743532187987896,-176.8187525982634,1.3225191408465338,5.030937414676904,0
1767284046.610173,2,right_wrist,-0.2811,0.0537,-0.9287,-0.84,-1.26,-0.84,0.12288126963853557,0.673725515349204,0.7260678380324826,-0.0618030591015321,175.49370649558935,15.17195962718691,93.68246474375282,0
1767284046.6732612,1,left_wrist,-0.039,-0.0625,-0.9911,0.63,-1.05,-0.84,0.029367316439483333,-0.9984487804237726,-0.04381716018138462,0.017822740223187014,-176.54651189279224,1.8920557890795966,5.082696953584704,0
1767284046.6732612,2,right_wrist,-0.2455,0.0708,-0.9389,1.19,-2.94,-0.84,0.12133534323505658,0.6740609882013745,0.7261203682068388,-0.06057003832079545,175.51148883193298,14.943352854290085,93.66964208804258,0
1767284046.726804,1,left_wrist,-0.0171,-0.0473,-0.9921,0.21,-0.98,-0.91,0.026508477818542726,-0.9985655895212713,-0.044297003744994054,0.014207022453565839,-176.89201756548337,1.491279299253315,5.12048288720196,0
1767284046.726804,2,right_wrist,-0.2596,0.0898,-0.934,0.7,-2.8,-0.56,0.12661369497384958,0.6738570522542621,0.7254440258216848,-0.060138263791802336,175.03939664926438,15.352186436996128,93.55364522386978,0
1767284046.805444,1,left_wrist,-0.0268,-0.0527,-0.9916,0.28,-0.91,-1.19,0.026076228627988363,-0.9985290489594111,-0.045026707709552326,0.015243499519250789,-176.93495718428386,1.6098737580169358,5.206856640105254,0
1767284046.805444,2,right_wrist,-0.2528,0.0712,-0.935,1.26,-2.45,-0.07,0.12250465028712107,0.6737748027259751,0.7259741924500068,-0.06309990305986354,175.63317343209823,15.242248016047853,93.68678931004655,0
1767284046.862792,1,left_wrist,-0.0205,-0.0561,-0.9911,0.56,-1.12,-0.35,0.028402542289239836,-0.9985049694891591,-0.04533856368817123,0.011204291126851068,-176.68947297875917,1.1345087843838917,5.232410083611524,0
1767284046.862792,2,right_wrist,-0.2513,0.0869,-0.9374,0.35,-2.8,-0.77,0.12538239266411405,0.673986228448895,0.7255825316044587,-0.059597057826040384,175.0940201678226,15.205733215120915,93.56736332282541,0
1767284046.9272919,1,left_wrist,-0.0351,-0.0522,-0.9916,0.35,-1.12,-1.4,0.026741526112902196,-0.9984585228571681,-0.04580751741832337,0.01634442605308857,-176.85155751587368,1.7299385983732525,5.301121147483873,0
1767284046.9272919,2,right_wrist,-0.2528,0.0747,-0.9345,0.63,-2.52,-0.91,0.12475578303745238,0.6738785708983812,0.7256994388701158,-0.060695887062193456,175.24102037304073,15.240647018336862,93.6038759516594,0
1767284047.008619,1,left_wrist,0.0073,-0.2982,-1.0619,-10.92,1.4,0.07,0.025086857164162465,-0.9985990563300162,-0.04349212399020433,0.01670357582215875,-177.04328858356527,1.7866681691580493,5.033783975432552,0
1767284047.008619,2,right_wrist,-0.5285,-0.1083,-0.8813,-12.25,2.87,8.54,0.1287328157719986,0.6753685143314168,0.7236909687680874,-0.05980479676994601,174.8009456482601,15.492135590825681,93.24865939383012,0
1767284047.061408,1,left_wrist,-0.0332,-0.1591,-0.9823,1.68,-2.73,-0.63,0.03069890766746996,-0.9983995719205586,-0.043852234961877457,0.01824426884579053,-176.39167767047505,1.9333952294649468,5.090823996449145,0
1767284047.061408,2,right_wrist,-0.1474,0.123,-1.0502,-14.98,-28.0,-2.45,0.1390728313349707,0.6736606379858755,0.7233993174771888,-0.05944341752015393,173.9360264255146,16.337793985014773,93.20674277855754,0
1767284047.125721,1,left_wrist,-0.0869,-0.102,-0.995,0.84,-0.28,-1.4,0.03383060570013854,-0.9981887715390024,-0.04437587366157554,0.02248217801261437,-176.00927116901713,2.400271602870803,5.1746125330434785,0
1767284047.125721,2,right_wrist,-0.0586,0.0317,-0.8911,1.05,-14.77,-3.36,0.12239640775959582,0.6759434100890634,0.7252067313554874,-0.04684893298043323,174.23354978962962,13.93729510603833,93.32187396821605,0
1767284047.204292,1,left_wrist,0.0073,-0.062,-0.9931,1.47,-1.54,-1.75,0.030756898279744663,-0.9984766992239751,-0.0448787892954519,0.009175433852383574,-176.43096154316385,0.8916871875869314,5.1748938113286975,0
1767284047.204292,2,right_wrist,-0.3841,0.0605,-0.9379,3.15,-1.33,1.12,0.12447091902820125,0.6758224370455431,0.7246085711019014,-0.052090714986056656,174.50195371814712,14.524474602202792,93.28919421554623,0
1767284047.262128,1,left_wrist,-0.0468,-0.102,-0.9921,0.7,-1.33,-1.47,0.03481508603905576,-0.9982747568789905,-0.04546252913003332,0.012983759370325391,-175.9452946650532,1.3040014908146544,5.261184193419026,0
1767284047.262128,2,right_wrist,-0.263,0.1074,-0.9414,0.35,-0.14,-1.33,0.12917011642824178,0.6751918351526452,0.7243626079890513,-0.05224824315149389,174.13488509225425,14.93287168030816,93.25498626182777,0
1767284047.325896,1,left_wrist,-0.0615,-0.0415,-0.9965,-0.21,-0.84,0.14,0.0315285045220786,-0.9983301903178469,-0.045242191861124895,0.017202574753042297,-176.29954127827443,1.8048211365486622,5.247801509724579,0
1767284047.325896,2,right_wrist,-0.2547,0.0429,-0.9443,2.17,-5.04,0.14,0.12492329206745607,0.675227821381283,0.7246943861678189,-0.05726785301164535,174.9104374384956,14.975151617008699,93.37807096923329,0
1767284047.378017,1,left_wrist,0.0063,-0.0112,-0.9897,0.14,-0.7,-1.33,0.02764982771316206,-0.9984607997982707,-0.04586694461770791,0.01441324686065615,-176.7578382536029,1.5039404063366708,5.302934046710982,0
1767284047.378017,2,right_wrist,-0.3167,0.0927,-0.9189,-0.42,-2.17,-0.77,0.12958655551786857,0.6743756632708479,0.7244080005559375,-0.06048006405062328,174.8076603323425,15.62378559392899,93.38417813917685,0
1767284047.453577,1,left_wrist,-0.0708,-0.0849,-0.996,-0.07,-1.12,-1.26,0.033342636790168634,-0.9982137471211487,-0.046722909945182994,0.01656965046367459,-176.0925439832784,1.7170892821531634,5.418298152500567,0
1767284047.453577,2,right_wrist,-0.2401,0.0942,-0.9521,0.35,0.7,0.0,0.12682511610665195,0.6750887068627205,0.7245773657738206,-0.05619847684079344,174.66460448074122,15.05031181095329,93.34467886631288,0
1767284047.507456,1,left_wrist,-0.0107,-0.0264,-0.9941,-0.14,-0.77,-0.28,0.02883715863301821,-0.9983780709463091,-0.04686859928384251,0.014593838997032276,-176.61934271077624,1.5149178150094535,5.420232799792903,0
1767284047.507456,2,right_wrist,-0.2059,0.0566,-0.9501,0.07,-5.11,-0.84,0.1236296353053062,0.675028948762295,0.7251286283611199,-0.05692191088033504,174.99359710832275,14.84130314013439,93.44604317240756,0
1767284047.5577128,1,left_wrist,-0.0107,-0.0264,-0.9867,0.84,-1.26,-0.91,0.024794667622812447,-0.9984919853418838,-0.04728731040343638,0.01276283433671831,-177.09183967106867,1.3260704511832027,5.456521075444401,0
1767284047.5577128,2,right_wrist,-0.2967,0.0883,-0.9306,0.14,-3.64,0.49,0.1286062973640186,0.6745633060980776,0.7243844689534292,-0.06076106881389722,174.90941746692258,15.562845505502837,93.38316984359997,0
1767284047.623303,1,left_wrist,-0.0322,-0.082,-0.996,0.91,-1.19,-1.4,0.02988706530190898,-0.9982928843542309,-0.0479182509049425,0.014897033448329797,-176.49579162445258,1.5402349317027848,5.543316287019168,0
1767284047.623303,2,right_wrist,-0.2103,0.1025,-0.9575,0.84,-1.96,-0.56,0.12881321088064218,0.6741557661795801,0.7245904323556981,-0.06236878199889057,175.03604764152755,15.70986459984623,93.44479819554599,0
1767284047.6769128,1,left_wrist,-0.0425,-0.0683,-0.9916,0.07,-0.98,-0.21,0.03183305844854472,-0.9981456907494859,-0.04790684163896329,0.019919110226677365,-176.24439506849797,2.1040476215426573,5.564690999330579,0
1767284047.6769128,2,right_wrist,-0.2367,0.0717,-0.9428,1.54,-4.2,-0.07,0.125300023216166,0.6745552648575308,0.7248525847577336,-0.06215970724711582,175.3040121168657,15.397164603496746,93.48170829981554,0
1767284047.729182,1,left_wrist,-0.0181,-0.0205,-0.9926,0.28,-0.98,-1.12,0.027424078127449823,-0.9982857773577942,-0.0483917254876349,0.01821174259464472,-176.758259533287,1.931626151059916,5.605125192049067,0
1767284047.729182,2,right_wrist,-0.2923,0.0712,-0.9267,0.07,-2.52,-0.56,0.12902389803875683,0.6736767441877788,0.7246139479867261,-0.06668661378814214,175.39209420251936,16.07142633995402,93.52164653270248,0
1767284047.779967,1,left_wrist,-0.0078,-0.0517,-0.9882,1.33,-1.4,-0.84,0.027402300107658914,-0.9983315745055963,-0.04889394298867911,0.013876729910417947,-176.78472377493964,1.434122285735472,5.647968062301732,0
1767284047.779967,2,right_wrist,-0.2508,0.1025,-0.935,1.05,-0.91,-0.49,0.12968136264874805,0.6742117997511816,0.7243785088921177,-0.06242570875102967,174.9666897523316,15.786473855157732,93.41031390726683,0
1767284047.86053,1,left_wrist,-0.0371,-0.0303,-0.9921,-0.07,-0.84,-0.42,0.026771674605359518,-0.9982472852986106,-0.04951979118203037,0.018259931929422525,-176.8305254166904,1.9372184943085327,5.733457477050928,0
1767284047.86053,2,right_wrist,-0.2108,0.0903,-0.957,1.4,-2.45,-0.98,0.12686757593265274,0.6745573028781708,0.7247633270265513,-0.05995984579787259,174.98802908050388,15.354512763919752,93.43360868132764,0
1767284047.92533,1,left_wrist,-0.0078,-0.0327,-0.9955,0.91,-0.91,-0.77,0.024079998652656927,-0.9983544874716183,-0.04991488024737366,0.014730096403647367,-177.15872204351174,1.5476220082557761,5.762868035124411,0
1767284047.92533,2,right_wrist,0.0551,0.2991,-0.6817,46.06,-104.93,-25.34,0.11895071459180216,0.6654704296658983,0.7319286413266093,-0.08532466668067357,178.00064952252836,16.719647604818988,95.15186488482489,0
1767284047.97588,1,left_wrist,-0.0239,-0.0742,-0.9941,0.49,-1.19,-1.4,0.029251017123729572,-0.9981789669419098,-0.050609571707559635,0.014892924614941157,-176.5645250922147,1.5340397233143104,5.85104635255421,0
1767284047.97588,2,right_wrist,-0.142,0.1513,-0.9008,-0.91,-25.13,-38.64,0.1254768948385258,0.6527749611540188,0.7417213799017558,-0.08938564509296895,178.12288439343487,17.62797244852523,97.00812141179533,0
1767284048.02592,1,left_wrist,-0.0512,-0.0703,-0.9906,0.14,-0.98,-0.42,0.031061286605009182,-0.9980314945176147,-0.05068738490231126,0.019978023854798674,-176.32661324531395,2.104865081128547,5.88231171257209,0
1767284048.02592,2,right_wrist,-0.5187,0.1064,-0.7725,11.69,-10.78,-22.61,0.1286312875310231,0.6452643307779686,0.7464839838772409,-0.09924513644776166,178.92145281211666,18.670247750784412,98.14211218208003,0
1767284048.0763772,1,left_wrist,-0.0176,-0.0278,-0.9882,0.35,-0.91,-0.91,0.026908123099447893,-0.9981721757022343,-0.05109509678056541,0.0178199789595178,-176.81449845279113,1.8810757687209518,5.912982849873585,0
1767284048.0763772,2,right_wrist,-0.2572,0.1625,-1.0258,-1.47,-25.34,-3.85,0.13799353514380708,0.643590453191674,0.7459868820375645,-0.10125554131465409,178.3844277506447,19.646556037395452,98.1491400434964,0
1767284048.127032,1,left_wrist,-0.0112,-0.0566,-0.9921,1.05,-1.19,-0.84,0.02792599176260921,-0.9981868126192277,-0.05161371110567641,0.013388462310565829,-176.72381735283022,1.366384324285521,5.959044495607746,0
1767284048.127032,2,right_wrist,-0.205,0.1259,-0.9838,-8.54,-4.97,1.47,0.14091034220404078,0.6441606526913513,0.7457700063621636,-0.09501803299780066,177.58036993424287,19.425881612538294,97.9479976067009,0
1767284048.206728,1,left_wrist,-0.0351,-0.04,-0.9941,0.07,-0.77,-0.56,0.026054195220463924,-0.9981261491148453,-0.05216560052374103,0.018550457853675723,-176.9057889368373,1.966383448950712,6.036630498234747,0
1767284048.206728,2,right_wrist,-0.2162,0.083,-0.9716,-2.1,0.28,-0.07,0.13901388148669716,0.6447825638291941,0.7462058792982936,-0.09004094533330013,177.28077578281284,18.879543554465283,97.88844666286074,0
1767284048.25685,1,left_wrist,-0.0142,-0.0449,-0.9902,0.49,-1.05,-0.77,0.024504906306002636,-0.9982118483467055,-0.05260471406216719,0.0143303679514925,-177.10837470482423,1.4916543562071432,6.07092436192227,0
1767284048.25685,2,right_wrist,-0.2542,0.0805,-0.9536,0.84,-3.5,-0.07,0.13812436834587538,0.6454588982457493,0.7461698309739312,-0.08680468241270896,177.05149078795256,18.55326830074625,97.79675128135635,0
1767284048.308991,1,left_wrist,-0.0239,-0.0649,-0.9916,0.7,-1.12,-1.12,0.029765155638920477,-0.998037268686055,-0.05317430830182103,0.014427014940483714,-176.50463504594757,1.4687613538774293,6.144360572472155,0
1767284048.308991,2,right_wrist,-0.2723,0.0849,-0.9296,1.26,-2.73,-0.42,0.13822249023972438,0.6460957578310526,0.7460173544572624,-0.08314398206265107,176.70620449978736,18.28058388089194,97.68084941408067,0
1767284048.374201,1,left_wrist,-0.042,-0.0581,-0.9931,0.21,-1.12,-0.49,0.028802872041392896,-0.9979699637286783,-0.05323781970357254,0.019801025497618238,-176.581036131005,2.0891721406411965,6.169583589691022,0
1767284048.374201,2,right_wrist,-0.1015,0.1498,-1.1839,18.27,26.81,19.74,0.12124062247861372,0.6557363160051524,0.7416582225366378,-0.07248224801139014,176.93017995040958,15.955857878909912,96.60672695814308,0
1767284048.4334311,1,left_wrist,-0.0215,-0.0405,-0.9911,0.42,-0.84,-0.91,0.025222172909922857,-0.9980975133465265,-0.0536700597458559,0.01687366385995013,-177.00868171617677,1.7750649892887806,6.202280861248778,0
1767284048.4334311,2,right_wrist,-0.2289,0.1122,-0.9936,0.0,-40.53,-4.83,0.13411524930838908,0.6535148089052333,0.7406952041688423,-0.07938582345596812,176.53001468091225,17.604013894775772,96.61866247777328,0
1767284048.509973,1,left_wrist,-0.041,-0.0649,-0.9921,-0.21,-1.12,-1.05,0.028424511142467062,-0.9979561883029365,-0.05456549736010777,0.01726556955416724,-176.63790922427688,1.7970082427814946,6.31206163540042,0
1767284048.509973,2,right_wrist,-0.1898,0.1093,-0.9975,1.05,-4.06,-0.14,0.1329533608428822,0.6541311382696812,0.7406639889985815,-0.0765030273080912,176.36060718349927,17.27951854439112,96.54696903867836,0
1767284048.572397,1,left_wrist,-0.041,-0.0503,-0.9838,9.03,-2.59,6.51,0.029050415049916914,-0.9979944761215406,-0.05153097609693897,0.02253125648551951,-176.5395446503787,2.4058775736494105,5.9843172131649,0
1767284048.572397,2,right_wrist,-0.1923,0.019,-1.0233,-37.59,6.16,-10.29,0.13227135822498523,0.6493087213897979,0.7465256207248696,-0.060016412103787886,175.09706104632076,15.987418985973555,97.27926502144867,0
1767284048.624337,1,left_wrist,-0.0425,0.0122,-1.0082,28.42,1.75,-1.89,0.0364933309611574,-0.9977369565347745,-0.051953561755296876,0.022136616295716244,-175.6882648883384,2.314297189968811,6.048691841779434,0
1767284048.624337,2,right_wrist,-0.4982,0.3611,-0.9706,12.95,-34.23,2.03,0.14408471559627659,0.6496654260913409,0.7428695283900032,-0.07293348108180968,175.24434996959386,17.989157386772124,96.90515243797572,0
1767284048.7039812,1,left_wrist,-0.059,-0.387,-0.4299,94.64,0.35,22.96,0.12690404438688424,-0.9890001899186484,-0.06915426409149303,0.03149088149120647,-165.18922101024955,2.5641007383588903,8.332930364244719,0
1767284048.7039812,2,right_wrist,-0.0771,-0.0996,-0.8457,-5.81,0.7,9.66,0.14087613619149927,0.6526352100849553,0.7411337840901084,-0.07029872608658785,175.20774639219033,17.492140751265403,96.52865401347844,0
1767284048.75662,1,left_wrist,0.1137,-0.0688,-1.0019,-59.78,27.79,222.18,0.09483767328166975,-0.9947775011713038,0.026943663101931775,0.026411700220650015,-169.18878627219564,3.305397746109886,-2.7901024968471986,0
1767284048.75662,2,right_wrist,-0.2508,-0.001,-0.9321,-0.91,-6.23,-0.49,0.1385592931756369,0.6521404824208901,0.7416888212676703,-0.07356497719085135,175.69363791856682,17.546826953795115,96.68705680179036,0
1767284048.806993,1,left_wrist,0.2372,0.4987,-1.2298,-75.11,121.94,37.03,0.05592384158546468,-0.9969896799844261,0.04709380287073334,-0.025812316402213063,-173.45035947336658,-2.6481161856097066,-5.560374990418209,0
1767284048.806993,2,right_wrist,-0.7842,-0.2479,-0.6344,55.09,50.82,13.58,0.10799246447679295,0.6605999074466883,0.7386606088120271,-0.07953549451094861,178.50378290585073,15.344483670924545,96.18454286694877,0
1767284048.860978,1,left_wrist,0.2991,-0.0405,-0.6666,-41.09,149.38,-50.61,0.033432757816905356,-0.9944432152162813,0.02878922592810472,-0.09558306798550366,-175.79603968703677,-10.846523618042127,-3.7158011301106075,0
1767284048.860978,2,right_wrist,-0.3011,0.1069,-0.7115,-39.06,-50.89,-7.28,0.14000316472714913,0.6542156222513945,0.7386999332974419,-0.08199659758159643,176.25300714932894,18.308153857873652,96.33779312127665,0
1767284048.928892,1,left_wrist,0.5934,-0.162,-0.8203,-60.9,204.96,-8.05,0.004817807388024887,-0.9818068866697515,0.030615702887842006,-0.1873358074595057,-178.71035695544012,-21.565225162847923,-3.81777022023102,0
1767284048.928892,2,right_wrist,-0.3143,0.0717,-0.8686,11.2,56.14,9.1,0.13256570171451712,0.6585606707356423,0.7370548116024032,-0.07398906934747042,176.06972085308755,17.029794718136625,95.8495797338092,0
1767284048.978938,1,left_wrist,0.6842,-0.2069,-0.5544,-52.29,101.92,24.71,-0.01557972538030566,-0.9711569558401942,0.04590226107909801,-0.23346182066476628,179.43202730576914,-27.05762726204547,-5.275542977178926,0
1767284048.978938,2,right_wrist,-0.2572,0.0727,-0.9682,-49.0,-15.47,-3.99,0.1484444794334393,0.6544509711404354,0.7390260814590094,-0.0591490813319876,173.57411357881003,17.267246557535202,95.96976886561052,0
1767284049.055889,1,left_wrist,0.6608,0.4348,-1.1561,8.4,-60.2,-46.41,-0.09824046255186188,-0.9858450896357105,0.07181623891670004,-0.11532865466402376,169.48237854702148,-13.975259533894294,-7.040302275449512,0
1767284049.055889,2,right_wrist,-0.2425,0.1362,-0.9174,0.84,25.76,-0.98,0.13895775004973254,0.6555604189862277,0.7407382841136554,-0.04730829956862896,173.31808975675358,15.538721176534398,96.06904910910676,0
1767284049.1297731,1,left_wrist,0.6769,0.12,-1.0336,26.6,-59.57,13.37,-0.08366553940986986,-0.9887518344176794,0.07923062538860254,-0.09535405314647274,171.17032829102374,-11.643450945357516,-8.260832667589789,0
1767284049.1297731,2,right_wrist,-0.1401,0.1864,-0.9599,-0.7,-51.8,-8.4,0.1389812334985563,0.6507599860377263,0.7453173004121918,-0.04120411403829078,172.89147537632647,15.117430534129921,96.8050752707375,0
1767284049.2111418,1,left_wrist,0.6739,0.0156,-1.1502,23.8,-50.26,-92.82,-0.08552219807839549,-0.9921223229583953,-0.0632082356754036,-0.06621154632146743,169.666599585629,-6.924912979820314,7.917704363729513,0
1767284049.2111418,2,right_wrist,-0.2547,0.4875,-0.937,-128.17,-94.08,-4.76,0.20837525896091022,0.638303177705495,0.7406891693500409,-0.022986065161028964,165.7312641696223,19.75669864649515,95.9952287830122,0
1767284049.261329,1,left_wrist,0.2601,0.0215,-0.7676,-18.27,-54.74,-6.51,-0.09206453345194388,-0.9926756129578549,-0.06291895456772756,-0.046480687119784925,169.09117807616929,-4.628531603278833,7.695674901826259,0
1767284049.261329,2,right_wrist,0.5144,0.8618,-1.6216,-286.44,-262.57,3.36,0.3663316203218461,0.6031048736346957,0.7085654012008441,0.0008529780389990667,148.79952217452907,31.20562302790797,90.27674953160573,0
1767284049.3284879,1,left_wrist,0.1835,0.0307,-0.8823,25.13,-3.15,-38.57,-0.07798753494593044,-0.992721988725427,-0.07955996112511847,-0.04572975048980602,170.64118637805683,-4.495712040661378,9.532328310022718,0
1767284049.3284879,2,right_wrist,-0.4436,0.0107,-0.6969,-25.48,66.99,11.62,0.32510499297871936,0.6103145190080396,0.7223723563191237,-0.0010536860297433806,153.37658484885281,28.097921443983992,92.83598287838404,0
1767284049.379901,1,left_wrist,0.2635,0.121,-0.9267,-16.03,-7.98,-27.09,-0.0845532319897376,-0.9912265768918296,-0.09027843019086718,-0.04658786607764042,169.8305455571551,-4.421409970606769,10.801602835970495,0
1767284049.379901,2,right_wrist,-0.1898,0.0786,-0.8608,6.3,-30.59,-3.01,0.3284664190739819,0.6110169540634426,0.7201498647647101,-0.0123395975265896,153.92426942907866,29.22033904412556,92.46500319448465,0
1767284049.4577012,1,left_wrist,0.1547,0.1244,-0.9823,-37.52,5.88,-40.53,-0.10771192223324977,-0.9848201964213438,-0.1237731762235403,-0.05663500134175588,166.87990734906896,-4.8695207988126334,14.887176101341277,0
1767284049.4577012,2,right_wrist,-0.1913,0.0771,-1.0067,-1.68,-16.17,-0.49,0.3293585240461167,0.6114172644412534,0.7193170156614261,-0.016580782890977083,154.1629813481361,29.610548337844115,92.33251924852796,0
1767284049.511175,1,left_wrist,0.1347,0.1962,-1.0468,-17.01,-3.71,-73.99,-0.112962544612606,-0.979970693697269,-0.15438373016344364,-0.055340463225016026,166.1644711333951,-4.219918716156432,18.417714697229975,0
1767284049.511175,2,right_wrist,-0.936,0.7964,0.4534,-177.52,128.87,-31.85,0.3366764854887688,0.5735112994021675,0.7436219996514343,0.06899315336589881,147.382491188634,24.93459310121545,97.31570885195356,0
1767284049.5768378,1,left_wrist,0.1083,0.2176,-0.9682,3.22,-31.36,-62.93,-0.11201797906291511,-0.9764991775928316,-0.17916923494548737,-0.042423033557640204,166.45632871318566,-2.447948468202244,21.084831230400102,0
1767284049.5768378,2,right_wrist,0.1308,0.0346,-1.1161,0.0,-7.63,33.81,0.2826824506772438,0.5919629885856286,0.7510357397321902,0.0749384405282145,151.6520884200845,19.626526370252048,98.50731414729323,0
1767284049.6298969,1,left_wrist,0.1562,0.2298,-0.9516,10.99,-9.03,-71.75,-0.10843011146534896,-0.9711376783087247,-0.20883624025496594,-0.03901211930826211,166.87943261188224,-1.7468754161711286,24.47336527884648,0
1767284049.6298969,2,right_wrist,-0.1152,0.4031,-0.9296,-22.33,-4.69,14.28,0.2851885651420602,0.5953825852368395,0.7463456216436251,0.08458884419532846,150.4887777976081,18.963940688492,97.80151296707513,0
1767284049.701887,1,left_wrist,0.1879,0.2625,-0.7544,41.16,8.4,-86.73,-0.07436136376394308,-0.9583481792260938,-0.27468267126095325,-0.024260772084669688,171.03340035734783,-0.3236642869167744,32.01220234813685,0
1767284049.701887,2,right_wrist,-0.1035,0.0781,-0.9867,-18.2,-6.86,-9.45,0.2880831132491487,0.5911032345932131,0.7484922703034957,0.08581612441748851,150.20901646048299,19.256854611166208,98.23442491616628,0
1767284049.755538,1,left_wrist,0.0522,-0.1357,-0.7139,-55.51,41.09,-84.07,-0.08859064559659237,-0.9454297066656349,-0.31031587744369293,-0.04492686805533857,168.72704210320546,-1.7173098443189512,36.51200032052435,0
1767284049.755538,2,right_wrist,-0.1571,0.2738,-0.7915,-23.8,12.46,22.54,0.2848298433447977,0.5959626832315865,0.7442492468071226,0.09896210973204032,149.24748385954823,17.819139481947367,97.69042807035297,0
1767284049.809602,1,left_wrist,0.2377,0.1698,-1.2034,3.08,-52.85,-128.87,-0.09386571578280387,-0.9277795185157894,-0.3604827054440548,-0.021601192071892757,169.0577576763261,1.5810855901208998,42.31518164833706,0
1767284049.809602,2,right_wrist,-0.0903,0.4207,-1.0648,41.02,-25.27,110.39,0.27264885360234703,0.6383563365233752,0.7137583903409884,0.09334211518720928,150.0056963931935,15.66663236144042,92.16224018263138,0
1767284049.875089,1,left_wrist,-0.3138,-0.1401,-0.5114,48.37,134.54,-115.01,-0.05269289130753175,-0.9075867631737519,-0.412264986945729,-0.059559273468389115,171.65931942917783,-3.707535230742027,49.12961651715568,0
