timestamp,node_id,node_name,ax,ay,az,gx,gy,gz,qw,qx,qy,qz,roll,pitch,yaw,rep_number
1767376126.197987,1,left_wrist,0.9716,0.2645,0.144,-39.13,-23.31,-5.67,0.5337645845749714,0.5445102633812425,-0.4056216524348328,0.5040585446176203,65.66332832953532,-79.09525444474855,30.62395862346956,0
1767376126.197987,2,right_wrist,0.8154,-0.5549,0.0005,-25.27,25.2,-40.53,-0.15317177750476255,0.6689164044779929,-0.187013338423303,0.7029333266022012,-85.70278984150559,-62.02067417169202,-97.12344600393831,0
1767376126.2527611,1,left_wrist,0.9311,0.2367,0.1479,-39.41,-25.62,-20.93,0.545797994991016,0.5440928452845624,-0.4123020849201366,0.4858749995054741,70.63243190185285,-78.1782037862858,23.50819860621384,0
1767376126.2527611,2,right_wrist,0.8213,-0.5729,-0.0429,-47.88,30.45,-39.13,-0.12694515438395756,0.6666616367017294,-0.195334290039002,0.7080195654525119,-85.53529997016963,-63.43472979858969,-100.1608293913834,0
1767376126.3152902,1,left_wrist,0.9257,0.1806,0.1708,-65.87,-33.04,-33.81,0.5788398470944884,0.5378938477594091,-0.43133568007292783,0.43538967724813105,78.73079127684237,-75.40596678285361,9.138070885032498,0
1767376126.3152902,2,right_wrist,0.8911,-0.5968,-0.0644,-55.79,36.68,-27.72,-0.10115215473378904,0.6615972843348615,-0.20940462407931076,0.7128863712876341,-85.12537666902406,-64.27977896850649,-103.88110769345931,0
1767376126.407271,1,left_wrist,0.9199,0.182,0.1444,-77.0,-39.69,-17.92,0.5935512035718794,0.5263546444952508,-0.45101674061905506,0.40893967359259165,81.32142429979848,-74.9937640990015,2.3603868733151554,0
1767376126.407271,2,right_wrist,0.8272,-0.5187,-0.0298,-47.04,-5.39,23.66,-0.07812714642086785,0.6605491031924439,-0.25358046560810493,0.7023303914296798,-90.15668600533138,-62.65096490873707,-104.51481642818219,0
1767376126.4687738,1,left_wrist,0.8174,0.3328,0.0717,-36.47,-6.93,3.99,0.6197078025112813,0.5025992870919299,-0.4750801118173356,0.3710189799416606,80.88464739833606,-74.1058871565584,-3.706351206968143,0
1767376126.4687738,2,right_wrist,0.6276,-0.4865,0.0351,-58.8,10.36,53.41,-0.07966747168478333,0.6510602590929775,-0.2899350903284472,0.6969298934479525,-91.79135752253106,-59.46172531387247,-105.94043061145804,0
1767376126.548702,1,left_wrist,1.1019,0.2752,0.0669,17.36,-9.59,38.22,0.6073858024538112,0.49771359816898975,-0.4841956925550207,0.38589919990378463,81.21814227873126,-76.48817920291961,-3.239224460998212,0
1767376126.548702,2,right_wrist,0.9487,-0.3362,0.1957,-1.47,-24.43,37.38,-0.08192641955409741,0.6409384231779238,-0.32854168814386303,0.6888732529463046,-93.84533510738328,-56.018510231732435,-107.1670979746017,0
1767376126.6057339,1,left_wrist,1.0868,0.2011,0.0634,-19.67,-5.32,28.98,0.6050351567353061,0.48409417782660413,-0.4964060361782744,0.3913647063219185,78.96392922701449,-78.40732808122331,-2.0064434778132743,0
1767376126.6057339,2,right_wrist,0.9194,-0.4577,0.2152,26.04,-22.26,39.69,-0.10348410540746247,0.6394632322999758,-0.32896487873089014,0.6871389401176847,-93.3550831038168,-54.16583828967531,-105.9375153819464,0
1767376126.6677032,1,left_wrist,1.1063,0.2772,0.0229,1.47,-2.17,19.67,0.6067945988380515,0.4718049692620155,-0.5080589456600495,0.38868559728324875,77.7543896986762,-79.52755664995244,-2.42946815662753,0
1767376126.6677032,2,right_wrist,0.9643,-0.5431,0.2147,2.52,3.92,20.86,-0.10914116000408373,0.6336845215655803,-0.3322632267690663,0.6900241173018322,-92.29400218029818,-53.32036557783399,-106.84148308107977,0
1767376126.7478359,1,left_wrist,1.0219,0.2684,-0.0586,8.61,-0.28,10.71,0.6022911778357527,0.4746559103363196,-0.5092425421765693,0.3906649934682738,79.97167798875728,-79.82976730082521,-4.170682293322475,0
1767376126.7478359,2,right_wrist,0.9618,-0.5134,0.1435,15.12,5.67,10.92,-0.11263136917217483,0.6228986583687057,-0.3284781418431294,0.7010089488816477,-89.21823127520248,-53.06532879608957,-109.30156016317358,0
1767376126.817677,1,left_wrist,0.9184,0.1962,-0.1039,19.81,-7.49,7.91,0.5825819062937396,0.49060076727971436,-0.508444251779838,0.4017382884861099,89.44125577939461,-80.61225331398447,-10.882496434330054,0
1767376126.817677,2,right_wrist,0.7974,-0.4914,0.0673,15.61,13.65,11.76,-0.1163597236165609,0.615852490841594,-0.3245481861554998,0.7084169669814925,-87.07782684826991,-52.847609761928965,-110.79086702118934,0
1767376126.8683789,1,left_wrist,0.9555,0.245,-0.0805,3.5,-9.87,3.71,0.5785136818807918,0.49536323821020456,-0.5110976713202395,0.3983922093586402,94.55264675347375,-80.41914307266975,-15.831904709512543,0
1767376126.8683789,2,right_wrist,0.7847,-0.4675,0.0303,1.68,20.37,-2.45,-0.10974969300046473,0.6113751092948146,-0.3211806750127684,0.7148555480790504,-85.55509271988159,-53.47438129528697,-112.56092842066234,0
1767376126.950837,1,left_wrist,0.9941,0.2606,-0.0517,12.32,-14.49,-1.54,0.5735630678020254,0.5043879045399907,-0.5110244075065986,0.39429976406259265,100.04514052820306,-79.72710603721063,-20.75494415979217,0
1767376126.950837,2,right_wrist,0.8857,-0.4968,0.0127,29.82,1.54,-35.84,-0.09427123413883645,0.6161629372369578,-0.2892039450555754,0.726510321574138,-82.20712605686197,-57.22154483778261,-114.31413441127822,0
1767376127.0187578,1,left_wrist,0.9516,0.2274,-0.0288,29.75,-13.44,-18.62,0.5660732025443442,0.531289527010407,-0.49804164763128617,0.38632510282786653,105.63149051229993,-76.99667869661121,-24.087340462529113,0
1767376127.0187578,2,right_wrist,0.8965,-0.5446,0.0059,46.2,-17.22,-38.43,-0.09556691309879521,0.6269749187023536,-0.2638405775106626,0.7267444984984645,-81.57142001526097,-59.41466470635481,-112.60015444406858,0
1767376127.101705,1,left_wrist,0.9482,0.2079,-0.0268,32.48,-10.08,-18.9,0.5614297257517804,0.5431956471463802,-0.48910044562891974,0.38796379476582316,106.56998657332186,-76.08928694792272,-23.46428996261481,0
1767376127.101705,2,right_wrist,0.9018,-0.5905,0.062,45.08,-30.38,-27.72,-0.11388640953539092,0.6478874734533949,-0.2212111111338579,0.719956492974567,-82.34874119413657,-61.947336938437125,-106.62403629961686,0
1767376127.168632,1,left_wrist,0.9482,0.1893,-0.0122,27.23,-7.14,-20.44,0.5536247800389099,0.5621561227363595,-0.47314931846184793,0.39193088553465727,107.5956415594756,-74.69775287877303,-21.798657863083815,0
1767376127.168632,2,right_wrist,0.894,-0.5924,0.0844,44.17,-34.02,-23.66,-0.12554923990090217,0.6567911783820128,-0.20202184748360622,0.7155766272728472,-83.0154763962567,-62.7780825398368,-103.36332536123251,0
1767376127.2491899,1,left_wrist,0.935,0.204,-0.0098,28.63,-1.61,-23.8,0.5514054386263171,0.5717548420213876,-0.4622814796644321,0.39413738269501963,106.97058441723061,-73.84426888181355,-19.736730260790477,0
1767376127.2491899,2,right_wrist,0.835,-0.6002,0.1279,32.34,-28.28,-1.82,-0.15414567705820614,0.6688661906979155,-0.17672446320345933,0.7054258240885262,-84.63590750215357,-62.77143104335268,-97.24659310134679,0
1767376127.303754,1,left_wrist,0.9667,0.1693,-0.0151,32.97,3.71,-18.9,0.5470231055185698,0.580062546165085,-0.451761708912261,0.4002555720111485,106.55083903752589,-73.45466687921224,-17.620043710486904,0
1767376127.303754,2,right_wrist,0.8784,-0.5832,0.1552,27.58,-23.24,1.96,-0.1669861358691867,0.671500467349911,-0.1687391278473733,0.7019471913966437,-84.8911844006841,-62.419541900710506,-95.25507379370804,0
1767376127.3689442,1,left_wrist,1.0131,0.1601,-0.0517,16.24,3.5,-7.49,0.5388756521339871,0.5874944127955254,-0.4409152719006917,0.4123797636596031,106.35827311274078,-73.68639571988011,-15.195807673582475,0
1767376127.3689442,2,right_wrist,0.8784,-0.5832,0.1552,27.58,-23.24,1.96,-0.17972297142778224,0.673945963337127,-0.16059130019717316,0.698360169499766,-85.09789715271337,-62.07852005294253,-93.30465606440113,0
1767376127.448407,1,left_wrist,0.9492,0.1645,-0.0791,9.17,0.98,-5.6,0.5353933593342799,0.5885928308412371,-0.44036789696030054,0.4159189170857893,107.0070325867377,-73.97760414927068,-15.343457817367709,0
1767376127.448407,2,right_wrist,0.813,-0.57,0.1108,-7.7,6.58,24.36,-0.20041309226115592,0.6662309601860597,-0.17537606103268666,0.6965731385551281,-84.3313036290205,-59.077354172508905,-93.56369116508692,0
1767376127.5079198,1,left_wrist,0.9038,0.1723,-0.0917,7.14,2.31,-3.15,0.5317560933612574,0.589111997862996,-0.4407746229304765,0.4194046291203036,107.84455565883962,-74.34878042317942,-15.763218154064953,0
1767376127.5079198,2,right_wrist,0.8047,-0.529,0.0639,-19.04,15.47,23.38,-0.2040118804898549,0.659359994152125,-0.1921313980646527,0.6976453802673854,-83.97816892970452,-57.309965333024465,-95.01861601523788,0
1767376127.5739079,1,left_wrist,0.9775,0.1801,-0.0669,-5.88,-0.91,15.89,0.5240614852717357,0.5799375145788751,-0.4517196817584937,0.43009460348958634,110.2176089441983,-76.48622448264564,-18.241350261249103,0
1767376127.5739079,2,right_wrist,0.874,-0.5173,0.0522,-16.17,17.85,21.35,-0.2009792502082959,0.655073527389363,-0.20151039137640503,0.6999139781906751,-83.66548131829792,-56.71921343167874,-96.37943739213196,0
1767376127.6536021,1,left_wrist,0.9994,0.2045,-0.0503,-17.15,-1.33,16.31,0.5259183116741168,0.5704210733585456,-0.45910706174598437,0.432724432369262,109.63923332973607,-77.57430833620602,-18.594878066584965,0
1767376127.6536021,2,right_wrist,0.8779,-0.5178,0.0415,-16.52,6.72,9.31,-0.19336059761041227,0.6536026989389149,-0.21374269861939996,0.6998065804337701,-84.38776432911904,-56.31838401147927,-97.33783355117113,0
1767376127.720118,1,left_wrist,0.9672,0.2298,-0.0439,-13.93,-5.25,5.04,0.5341165597858065,0.5606030018489371,-0.4667108303191124,0.4273462012740728,107.79718389865972,-77.87702210963242,-18.539203340574787,0
1767376127.720118,2,right_wrist,0.853,-0.5061,0.0356,-16.45,3.64,1.47,-0.18551714430794128,0.6558526574105218,-0.21675991403064607,0.6988961443625299,-85.21371324622521,-56.753581406787916,-97.42849112221214,0
1767376127.799882,1,left_wrist,0.9706,0.2186,-0.063,-2.94,-1.12,5.74,0.5359485426796491,0.5610065105463069,-0.4661927117113571,0.4250825922940487,107.37064100804228,-77.5964075502244,-18.29578587374568,0
1767376127.799882,2,right_wrist,0.8599,-0.5139,0.0654,-10.99,-7.49,-8.05,-0.17122408168549424,0.6616102408795254,-0.21482083669643962,0.6977149927694956,-86.49394965833868,-58.1753350485356,-97.18001158245112,0
1767376127.8643231,1,left_wrist,0.9614,0.225,-0.0795,-6.86,-1.47,4.62,0.5379372829450776,0.5616999426077842,-0.47074347827315177,0.41655399620622274,109.28138638657538,-77.01212486849528,-21.036041187990968,0
1767376127.8643231,2,right_wrist,0.855,-0.5168,0.102,2.24,-12.46,-6.65,-0.17121939796588878,0.6636167338822895,-0.21013250457897492,0.6972381793841816,-86.59951551931997,-58.587853379893076,-96.67629204280044,0
1767376127.915803,1,left_wrist,0.9828,0.2201,-0.081,-6.09,-1.05,3.64,0.5381593067401587,0.562479523657441,-0.47274377221305725,0.41293422220593357,110.35042085069092,-76.74443961395372,-22.397599477395477,0
1767376127.915803,2,right_wrist,0.8486,-0.5417,0.1166,5.67,-12.53,-5.04,-0.17361150000701145,0.6649473590371201,-0.2058235443711804,0.6966639974602962,-86.57701514091676,-58.76228708055001,-96.13340584390166,0
1767376127.9710999,1,left_wrist,0.9877,0.2206,-0.083,-5.6,-2.73,-0.07,0.5388161965360546,0.5644683307207434,-0.47389404772546895,0.40801598191017996,111.30246835217264,-76.24173595782813,-23.624115609795766,0
1767376127.9710999,2,right_wrist,0.8638,-0.5534,0.1405,-0.7,-5.95,-5.95,-0.17325335532998543,0.6648390328080017,-0.20368783969340454,0.6974837627377835,-86.33007196670202,-58.96468162452114,-96.22949395105654,0
1767376128.0514402,1,left_wrist,0.9765,0.222,-0.0883,-2.1,-2.73,-2.1,0.5364284369244061,0.5658665298447376,-0.476709916808159,0.4059399680704913,113.33087865447443,-76.13360034838244,-25.716636346848194,0
1767376128.0514402,2,right_wrist,0.854,-0.5514,0.1122,-3.64,-0.07,-2.03,-0.172954750241027,0.6608426659745006,-0.20344113117290394,0.7014166602981909,-85.129522004028,-58.94582043227645,-97.43452642045752,0
1767376128.113535,1,left_wrist,0.957,0.2162,-0.0849,1.05,-3.57,-1.75,0.5374719227626208,0.5645775857020249,-0.47632136954737975,0.40680958061141165,112.59004304931334,-76.25670215843509,-25.037500733874253,0
1767376128.113535,2,right_wrist,0.8579,-0.5436,0.0976,-2.24,2.87,-0.07,-0.17362027126189197,0.6575052964498765,-0.20468927571533344,0.7040206580452305,-84.29755334814523,-58.72861752848478,-98.31688663170975,0
1767376128.165065,1,left_wrist,0.9623,0.2108,-0.0717,-1.68,-3.29,-4.41,0.5394839899812464,0.5634041437824439,-0.4754160853382229,0.406832079763095,111.45716789859345,-76.25926507496537,-24.034944073911564,0
1767376128.165065,2,right_wrist,0.8374,-0.549,0.0878,-1.61,5.25,1.54,-0.1755655381895804,0.6532654937998442,-0.20741743074548455,0.7066816439059322,-83.40165559179428,-58.2629088484768,-99.28175079497142,0
1767376128.219115,1,left_wrist,0.9701,0.2089,-0.0581,1.26,-2.52,-4.27,0.5407866230922178,0.5626866743207398,-0.47397135614701713,0.4077801961578549,110.39010565759662,-76.29772206038547,-22.946262135269667,0
1767376128.219115,2,right_wrist,0.8433,-0.5305,0.0605,-2.17,3.71,1.96,-0.1785506992737548,0.6509391659134987,-0.21237660796125832,0.7066074061737265,-83.32288050925558,-57.57316648919289,-99.53179999537426,0
1767376128.272192,1,left_wrist,0.976,0.2098,-0.062,2.45,-0.91,-4.2,0.5417403654061166,0.561744065251486,-0.472353819996135,0.4096862828792786,109.24103142251617,-76.42510496118774,-21.702931707467386,0
1767376128.272192,2,right_wrist,0.8579,-0.5407,0.063,-4.48,4.83,-0.91,-0.17375399800592795,0.6523854894263649,-0.21192915318346908,0.706603676323451,-83.60703083644017,-58.02820914309217,-99.6110966927041,0
1767376128.3970408,1,left_wrist,0.957,0.2025,-0.0737,3.5,0.91,-4.27,0.5400686797591102,0.5607819335470406,-0.47270432388843425,0.41279542915065404,109.39424178753464,-76.79576910001612,-21.655125297047906,0
1767376128.3970408,2,right_wrist,0.8652,-0.5412,0.0527,2.52,-3.78,1.68,-0.17688794116664738,0.6532751919886635,-0.21546805273773256,0.7039287592160228,-84.27200539477131,-57.5106166118441,-98.9845169026095,0
1767376128.45055,1,left_wrist,0.977,0.2045,-0.0883,2.1,0.98,-0.98,0.5338350811943713,0.5625433617560776,-0.47543990624939536,0.41535763839844814,112.45502937405485,-77.14245912902281,-24.264076716110573,0
1767376128.45055,2,right_wrist,0.8403,-0.5334,0.0659,1.33,-6.44,1.19,-0.18062946377126235,0.651731955484411,-0.21246636205487404,0.7053201400877045,-83.58102541015823,-57.41612350475165,-99.10683803051752,0
1767376128.5207539,1,left_wrist,0.9692,0.1962,-0.0878,2.31,-0.84,0.35,0.5300873375699131,0.5646371046139709,-0.4757783466839246,0.4169260359678969,114.11243231110633,-77.22138418735163,-25.513603281795383,0
1767376128.5207539,2,right_wrist,0.8423,-0.5261,0.0722,3.15,-8.26,-0.28,-0.18144625234030087,0.6522518762912893,-0.20865528081901935,0.7057674696190583,-83.33652174858071,-57.66731569612253,-98.95910672616016,0
1767376128.6029902,1,left_wrist,0.9677,0.2118,-0.0815,1.47,-2.17,0.84,0.5321770199222444,0.5653743282663733,-0.47332628328949355,0.41605494583213426,112.79511048365609,-76.966992925238,-24.183454294841273,0
1767376128.6029902,2,right_wrist,0.8355,-0.5339,0.081,1.82,-3.36,-2.17,-0.18548362465020132,0.64997680189411,-0.20505447671092697,0.7078690864608626,-82.39379304709938,-57.57867905088868,-99.25771924301371,0
1767376128.665781,1,left_wrist,0.9653,0.2128,-0.059,2.1,-1.26,-1.68,0.5358612913224214,0.5643220882396248,-0.46913051646983606,0.4175042702822103,109.88951802308803,-76.90393523194058,-21.225546004963274,0
1767376128.665781,2,right_wrist,0.8359,-0.548,0.0776,1.82,-3.01,-2.45,-0.18873137588656336,0.6488920553168769,-0.20632391555289367,0.7076369197360511,-82.28508879335581,-57.19087901026805,-99.20094178553332,0
1767376128.7181098,1,left_wrist,0.9628,0.2074,-0.0576,0.91,-1.75,-1.82,0.5373701655123891,0.5631346109390754,-0.46771112192545894,0.4187589063015997,108.57480502012274,-76.98299897772495,-19.91201479230593,0
1767376128.7181098,2,right_wrist,0.8516,-0.5417,0.0732,3.71,-3.22,-1.96,-0.1861331076926457,0.6515004513582917,-0.20122976721928804,0.7073953695674655,-82.42562318837038,-57.8680819718699,-98.84737990657793,0
1767376128.803882,1,left_wrist,0.9667,0.2103,-0.0522,0.28,-0.07,-1.75,0.5395156399855365,0.561596624303093,-0.46585297515901436,0.4201346347516022,106.81139716706856,-77.0490583370884,-18.17444578552943,0
1767376128.803882,2,right_wrist,0.8457,-0.5422,0.0586,-0.35,-1.89,-0.21,-0.19026186592178027,0.6535053676945886,-0.2052134166641349,0.7032912699524679,-83.45620827014187,-57.25864893789637,-97.80651019089154,0
1767376128.8696399,1,left_wrist,0.9828,0.1957,-0.0673,2.66,0.14,-0.42,0.5373870838511492,0.5634986374026649,-0.46567406933110644,0.4205140531633939,107.81500418995785,-77.01085161165604,-18.91346672380494,0
1767376128.8696399,2,right_wrist,0.8579,-0.5441,0.0571,1.89,-0.84,0.28,-0.18910217635315743,0.6562621163895666,-0.20401691349914575,0.7013825635818647,-84.08190936988855,-57.50320783529988,-97.17691354375968,0
1767376128.951016,1,left_wrist,0.9794,0.2113,-0.0717,-0.91,0.0,-1.61,0.534872380820903,0.5633964492798873,-0.468383692658284,0.4208475895446999,109.44630342685626,-77.22840692166211,-20.54243028002709,0
1767376128.951016,2,right_wrist,0.8408,-0.5397,0.0634,-0.07,-2.24,0.84,-0.19193284642926892,0.6547424083733135,-0.20304352048074759,0.7023158049836667,-83.6011148753902,-57.32330361928742,-97.33706227998009,0
1767376129.004195,1,left_wrist,0.9687,0.1981,-0.0795,1.26,-0.49,-0.77,0.5315612369438844,0.5637746211271158,-0.4709934835825865,0.4216230145217461,111.42770450522804,-77.45467112875676,-22.41666597903895,0
1767376129.004195,2,right_wrist,0.8555,-0.5183,0.0742,-0.49,-4.27,-0.21,-0.19002455236736385,0.6553208008760025,-0.19965060037835228,0.7032673426268143,-83.39140311386387,-57.763594124242985,-97.42050253688578,0
1767376129.064385,1,left_wrist,0.9745,0.2069,-0.0712,-0.49,-2.17,0.84,0.5344094367399406,0.5627325529240029,-0.4689787352644764,0.4216604957458853,109.57013604890997,-77.37395459821542,-20.665133085052265,0
1767376129.064385,2,right_wrist,0.8418,-0.5309,0.0825,3.92,-2.17,-0.56,-0.1921243525045268,0.6531500329106958,-0.19770296054552636,0.7052636436645571,-82.62092167525155,-57.70611279139574,-97.84966972849314,0
1767376129.150862,1,left_wrist,0.974,0.2137,-0.0683,1.12,-0.91,1.4,0.5367341740640911,0.5633016128203001,-0.4663399178220787,0.42087385334739386,108.1544667091942,-77.09943227195367,-19.244192805105907,0
1767376129.150862,2,right_wrist,0.8569,-0.5388,0.0932,4.83,-1.05,-2.1,-0.19448568203579839,0.6494618821700345,-0.19398189200125185,0.7090455617707802,-81.25860767804386,-57.73013150971645,-98.69889709449781,0
1767376129.216053,1,left_wrist,0.9526,0.2172,-0.0722,-0.63,-0.14,-1.54,0.5371480340959184,0.564250782791552,-0.4653626948000672,0.4201554544147087,107.99639877040862,-76.92718627166265,-19.040511106564505,0
1767376129.216053,2,right_wrist,0.8413,-0.5222,0.0888,3.15,-4.76,0.14,-0.19577635293403708,0.6484273664344709,-0.19118066727094174,0.7103967360232881,-80.70782328658161,-57.82483484439419,-98.90461751717957,0
1767376129.268123,1,left_wrist,0.9511,0.204,-0.0781,0.07,-0.84,-0.56,0.5343055806811285,0.5654042838564852,-0.46784080756094953,0.4194764844785173,110.01463098051462,-76.97899003907959,-21.010311641034146,0
1767376129.268123,2,right_wrist,0.8413,-0.5358,0.0849,4.34,-2.87,0.0,-0.20037428978526575,0.6482640292248253,-0.19319167923500666,0.7087177629216045,-80.9640629552469,-57.293678768946556,-98.42940064227867,0
1767376129.349756,1,left_wrist,0.9731,0.2323,-0.0908,5.04,1.96,0.14,0.5337041056655123,0.5690406051309673,-0.4656166297532819,0.41779644733428906,110.4034398779028,-76.52933135322098,-21.123677647190434,0
1767376129.349756,2,right_wrist,0.8911,-0.5422,0.0761,4.06,-3.71,-1.61,-0.19881296191394734,0.6544463409546837,-0.18588208885891397,0.7054227399421398,-81.90684014006521,-58.14767771271298,-97.00355184841531,0
1767376129.4036531,1,left_wrist,0.9853,0.223,-0.0854,5.04,-0.98,-1.12,0.5314012388440428,0.573126426652992,-0.4650749006013872,0.41574530575533725,111.92815090671787,-76.12757854795923,-22.367064715639465,0
1767376129.4036531,2,right_wrist,0.8594,-0.5441,0.082,8.75,-6.79,0.35,-0.20505891595782355,0.6535230595800651,-0.18523126604888177,0.7046615000560491,-81.69886553738215,-57.67819710905811,-96.6283721634944,0
1767376129.454824,1,left_wrist,0.9789,0.2196,-0.0756,6.58,-0.63,-3.71,0.5318106394268493,0.5732527076911574,-0.4621863343596497,0.41826136475695713,110.73806013862428,-76.19900557029176,-20.88135794978735,0
1767376129.454824,2,right_wrist,0.834,-0.5314,0.0834,7.63,-6.65,-0.98,-0.21005661050909927,0.6523871952625024,-0.18368076965559138,0.7046478146547278,-81.32586237412036,-57.37738796605616,-96.44717355443588,0
1767376129.521058,1,left_wrist,0.9711,0.1854,-0.0732,7.91,1.19,-2.38,0.5285812401987624,0.5731685663979719,-0.45886256031314565,0.42605729397124115,109.98267666898003,-76.77961045107185,-19.303092737206153,0
1767376129.521058,2,right_wrist,0.8477,-0.5373,0.0795,5.67,-3.99,-2.73,-0.21120430289305997,0.6555160369894256,-0.18227908914585922,0.7017590764281503,-82.0763594948072,-57.461732806790195,-95.48192205876828,0
1767376129.6027699,1,left_wrist,0.9736,0.2084,-0.0722,7.91,2.66,-1.12,0.527517639923958,0.5719327038406771,-0.4569236629524382,0.4310903479326302,108.91440949293188,-77.20790746058297,-17.84306975752868,0
1767376129.6027699,2,right_wrist,0.8682,-0.5636,0.0791,9.03,-6.44,0.07,-0.2203927859358634,0.6555733440620406,-0.17858021367258656,0.6998283487737513,-81.90354628124382,-57.02014824372882,-94.5625575817408,0
1767376129.653551,1,left_wrist,0.9853,0.2035,-0.0664,4.76,0.21,-0.56,0.5263422034429381,0.570267659785245,-0.456561247593805,0.43509827427086073,108.34230700475398,-77.6501492323508,-17.047763384878923,0
1767376129.653551,2,right_wrist,0.8423,-0.549,0.0717,6.72,-6.58,0.56,-0.22451534223074587,0.6581757460571545,-0.17885471128046343,0.6959946412565983,-82.71256157109127,-56.705737053876575,-93.4250431622601,0
1767376129.715394,1,left_wrist,0.9633,0.2054,-0.0669,3.08,-2.03,-4.06,0.5261104839484039,0.5740608028877845,-0.4528395425444675,0.4342790600242266,108.18460314212719,-77.18528773789674,-16.490043280832193,0
1767376129.715394,2,right_wrist,0.8335,-0.5456,0.0566,4.41,-1.89,-2.66,-0.22477226049665935,0.660883037795006,-0.17767071477682878,0.6936455567339542,-83.35430013269797,-56.82113813163174,-92.66256828314235,0
1767376129.803642,1,left_wrist,0.9423,0.1991,-0.0639,1.12,-2.1,-2.52,0.5255440038717805,0.5723725724602583,-0.45341932090805415,0.4365822462227746,107.88945835554064,-77.51669101634752,-16.160759747813678,0
1767376129.803642,2,right_wrist,0.8159,-0.5597,0.0547,4.2,-3.22,1.4,-0.23127006426272273,0.663184346029832,-0.18029980857282515,0.6886164822203303,-84.30467792013016,-56.094983229922235,-91.37664187051487,0
1767376129.855658,1,left_wrist,0.9589,0.2137,-0.0542,2.73,-0.77,-0.63,0.5277991265737139,0.5729794267701077,-0.45012884624651955,0.4364707095132508,106.26983452712737,-77.24750203210128,-14.452429489337511,0
1767376129.855658,2,right_wrist,0.8613,-0.5334,0.062,0.49,-6.37,2.17,-0.22957347241553802,0.6652355257043289,-0.17657610414766167,0.6881704698314158,-84.52551340386492,-56.565527406675464,-90.98954282478327,0
1767376129.917836,1,left_wrist,0.9755,0.2172,-0.0493,-1.33,-0.63,-1.68,0.5334143767584408,0.5707977023929176,-0.44555770495677616,0.43719265451745737,102.50838880817425,-77.01550309964335,-10.8349736746361,0
1767376129.917836,2,right_wrist,0.8642,-0.5578,0.0742,1.82,-3.22,1.19,-0.2305088053775253,0.6638227000721743,-0.1744129260670365,0.6897718787635871,-83.96014389473929,-56.65386692184592,-91.29365058725988,0
1767376129.967916,1,left_wrist,0.9711,0.2211,-0.0551,-0.91,-0.56,-3.43,0.5328462275220149,0.5737466206894984,-0.4457660983405724,0.4337998370598601,103.94319866933128,-76.61386957225037,-12.273960142417854,0
1767376129.967916,2,right_wrist,0.8642,-0.5578,0.0742,1.82,-3.22,1.19,-0.23140371727202083,0.6624186535429923,-0.17220855109478964,0.6913740391429323,-83.39290880757886,-56.74713336442923,-91.59971571854973,0
1767376130.01949,1,left_wrist,0.9633,0.2064,-0.0669,-3.01,0.28,-2.8,0.5311487319110886,0.5734962086073672,-0.44851716549189297,0.4333768285930109,105.25584558458698,-76.78988724359166,-13.686526403155241,0
1767376130.01949,2,right_wrist,0.8335,-0.5134,0.0551,-1.54,-2.73,0.14,-0.22789286120573243,0.6651345044379294,-0.1693722853177887,0.6906330167200265,-83.85591066441526,-57.30206256082695,-91.2009085597347,0
1767376130.0970151,1,left_wrist,0.9662,0.2035,-0.0712,-1.75,-0.21,-0.42,0.5285895585817393,0.573211893647452,-0.45171128914598807,0.4335644298112264,106.92983336615313,-77.05570700863251,-15.403125408025987,0
1767376130.0970151,2,right_wrist,0.8447,-0.5422,0.0854,0.07,-3.15,0.14,-0.22929046180567098,0.6628895841261209,-0.16740224067567258,0.6928057254373733,-83.07349715127566,-57.32430997623165,-91.6989657847357,0
1767376130.151995,1,left_wrist,0.9794,0.2176,-0.0756,-2.1,-0.14,0.42,0.527386063831747,0.5748706093636332,-0.4533080884067398,0.43116064193171544,108.4609808503082,-76.87069096109836,-16.999651426280046,0
1767376130.151995,2,right_wrist,0.8574,-0.5451,0.0913,-2.17,-0.91,-0.14,-0.22937940645359833,0.6609103068274744,-0.16722827440632773,0.6947066708066727,-82.50437912921767,-57.30523650215358,-92.24560447798851,0
1767376130.217911,1,left_wrist,0.974,0.2225,-0.0766,-2.59,-1.61,0.98,0.5277595466382891,0.5763536617705788,-0.45467022980474164,0.42727192702668454,109.49443342086552,-76.51538949531023,-18.271522409984062,0
1767376130.217911,2,right_wrist,0.8438,-0.5324,0.0859,0.63,-0.77,0.77,-0.23003005536835314,0.6587062972547449,-0.16593592139899876,0.69689128102857,-81.78472275597812,-57.32568199872679,-92.80129510598852,0
1767376130.2700648,1,left_wrist,0.9633,0.2157,-0.0722,-5.11,-3.22,0.77,0.529551602107022,0.5732099366457282,-0.4558804148195006,0.42799359413487315,108.55524843044232,-76.77640173905775,-17.645547405263798,0
1767376130.2700648,2,right_wrist,0.8496,-0.5383,0.0761,-2.59,0.21,-0.84,-0.227243961454772,0.6616225663592332,-0.16592459994175612,0.6950430121947362,-82.55344861597315,-57.59718044116157,-92.27069799883547,0
1767376130.326081,1,left_wrist,0.9667,0.2294,-0.0693,-1.05,-3.08,0.28,0.5319587570903035,0.5749020298162606,-0.4538555292839836,0.4248796246072975,107.90107649532008,-76.26232194912049,-17.09501316249436,0
1767376130.326081,2,right_wrist,0.8355,-0.5397,0.0678,0.7,0.49,-0.63,-0.23028403640671416,0.6609937846660956,-0.1691794900467679,0.6938550132099198,-82.71491713377895,-57.0714425791708,-92.12043019827676,0
1767376130.408305,1,left_wrist,0.9526,0.2216,-0.0703,-3.64,-1.33,-0.21,0.5346682260356693,0.5724318662673789,-0.4533004926897179,0.42540605293857203,106.32351997251352,-76.35176564296991,-15.75401953032816,0
1767376130.408305,2,right_wrist,0.8613,-0.5524,0.0669,-0.84,-1.4,-1.12,-0.22833646855979015,0.6623614934124297,-0.16840105788678184,0.6933835827828004,-82.99765928666359,-57.31338492613378,-91.93972001639541,0
1767376130.46828,1,left_wrist,0.9814,0.2294,-0.0634,0.98,-0.56,0.49,0.5342196525194769,0.5714248690627595,-0.4545784028965578,0.4259594552285372,106.54730579923124,-76.5312461329719,-16.051929434242776,0
1767376130.46828,2,right_wrist,0.8481,-0.5588,0.0717,1.19,-1.4,0.0,-0.23206455489063207,0.6608609618155747,-0.17091141752992273,0.6929632882552428,-82.85892766188246,-56.780698554068856,-91.96841194526621,0
1767376130.523516,1,left_wrist,0.9711,0.224,-0.0766,-1.89,-0.21,-0.77,0.5329321772892867,0.5732087599317198,-0.45609628223534904,0.4235459754009394,108.04725732662024,-76.33589283202328,-17.60140728367526,0
1767376130.523516,2,right_wrist,0.8696,-0.5407,0.0761,-1.61,-3.71,1.05,-0.229523813880216,0.6619173758140134,-0.1678221526302987,0.6935560046196002,-82.84110856371544,-57.25806790595156,-91.94623870317054,0
1767376130.6001742,1,left_wrist,0.9662,0.2137,-0.0869,1.33,-1.54,-1.12,0.5296893023775423,0.5748317047252196,-0.45841390146988065,0.42291186922177226,110.14383753271142,-76.37059170875304,-19.587552740880128,0
1767376130.6001742,2,right_wrist,0.8491,-0.5348,0.0815,0.77,-2.94,0.56,-0.2304195448602855,0.6591230844720367,-0.1639205234206901,0.6968455028655448,-81.72810110247032,-57.46605032487205,-92.65663147676639,0
1767376130.653172,1,left_wrist,0.9526,0.2133,-0.0883,-0.49,-2.1,-0.49,0.5269044318817951,0.5764368012983144,-0.46101196066829686,0.4213790525086211,112.26235543545855,-76.31601379929648,-21.69108742921293,0
1767376130.653172,2,right_wrist,0.8306,-0.5305,0.0752,0.35,-0.35,-1.54,-0.23287286603617394,0.6592875829436848,-0.1669034035328779,0.6951642720461929,-82.08347916171928,-57.02328052923992,-92.3396711799412,0
1767376130.716119,1,left_wrist,0.9721,0.2176,-0.081,-3.64,-3.78,-3.08,0.5307343735504438,0.5740354832564565,-0.45965959442709203,0.42132807400607153,110.18465532188614,-76.31929502670509,-19.897877209369092,0
1767376130.716119,2,right_wrist,0.8442,-0.5514,0.0747,-1.26,-0.35,-1.61,-0.2350466295021687,0.659263358410259,-0.1703933846525321,0.6936072380562005,-82.42210154758571,-56.557457013521656,-92.10576850921306,0
1767376130.770483,1,left_wrist,0.9872,0.2123,-0.0766,3.99,-4.48,-1.82,0.5283844628791127,0.5733504881304664,-0.46088045341044515,0.423872958340928,110.92562311982931,-76.68028992995049,-20.466533845040725,0
1767376130.770483,2,right_wrist,0.8491,-0.5563,0.062,-3.64,1.05,-0.42,-0.2330899087511693,0.6618324903708295,-0.17219739480910765,0.691371756979466,-83.25488114278328,-56.6022659624483,-91.59211693675823,0
1767376130.849825,1,left_wrist,0.9472,0.1952,-0.0669,-3.71,-4.69,-1.82,0.5289197968054061,0.5709583748832145,-0.46260330150876816,0.42455690800084056,110.74568122852905,-76.9488191206439,-20.515454151598412,0
1767376130.849825,2,right_wrist,0.8418,-0.5578,0.0874,4.27,-5.88,-0.28,-0.23201668826681426,0.663726164391089,-0.16777473027343437,0.6910046851867716,-83.38169279916298,-57.07920870275467,-91.18839058129292,0
1767376130.918839,1,left_wrist,0.9306,0.2128,-0.0883,3.78,1.26,-0.7,0.5287479491427406,0.5737562314918534,-0.4598656243023379,0.42397287730069916,110.56619318138124,-76.6109553253416,-20.040324164185336,0
1767376130.918839,2,right_wrist,0.8398,-0.5295,0.0956,-0.21,-5.6,0.7,-0.2327299093089037,0.6631091919509179,-0.16619796781223195,0.6917378292086929,-83.08392284585402,-57.144021653629075,-91.29339111378499,0
1767376130.969051,1,left_wrist,0.9116,0.2059,-0.1103,10.71,4.2,3.36,0.52437555866375,0.5767634320622965,-0.45911601140507025,0.4261299156164707,112.13571523553743,-76.66812379473944,-21.016491450255145,0
1767376130.969051,2,right_wrist,0.835,-0.5075,0.0878,4.2,-5.18,0.14,-0.23315056198665804,0.662692086308129,-0.16190957062704472,0.6930117640626678,-82.60325047062749,-57.45915576914207,-91.38060202259106,0
1767376131.019105,1,left_wrist,0.9599,0.2196,-0.0869,15.19,10.78,10.57,0.5226972026917852,0.5784823821599608,-0.4541091196284375,0.431196794165965,110.97756271229598,-76.80595482816666,-19.08144628143649,0
1767376131.019105,2,right_wrist,0.874,-0.4919,0.0976,9.87,-6.86,-3.08,-0.2334750892126071,0.6631296635579772,-0.15415529367887845,0.6942510910739917,-82.06544850029279,-58.078587706915364,-91.24589458452478,0
1767376131.103487,1,left_wrist,0.957,0.2557,-0.0791,22.75,17.36,13.3,0.5203112209882257,0.5796922537535959,-0.4464410437966566,0.44036748138977055,108.6043207951433,-77.19546220561247,-15.53049149251628,0
1767376131.103487,2,right_wrist,0.894,-0.4904,0.102,26.67,-20.37,0.14,-0.24573498572782765,0.6671246619367227,-0.12880561800982163,0.6913523812024268,-81.37934941045543,-59.219302763284595,-88.78156286410365,0
1767376131.167742,1,left_wrist,0.9579,0.2357,-0.1127,49.28,23.87,10.15,0.4997038935674338,0.5930785704133135,-0.4220982312112873,0.4694538436080271,106.93803450118247,-78.1515984446221,-8.824711434283238,0
1767376131.167742,2,right_wrist,0.9018,-0.467,0.0956,33.25,-24.15,3.08,-0.255099070305465,0.6701559785743233,-0.11357715637269496,0.6876886346746404,-81.32711759566926,-59.74260141686128,-86.77249690343852,0
1767376131.218924,1,left_wrist,0.975,0.2401,-0.0864,54.67,23.59,7.56,0.48890752140927224,0.6013878246513763,-0.4063883222100499,0.4838911566063468,105.39844324123719,-78.34594658237509,-4.439979093075998,0
1767376131.218924,2,right_wrist,0.9399,-0.4431,0.1171,47.95,-37.59,2.52,-0.2694501506781954,0.674909336484631,-0.09242088846632093,0.680699921551684,-81.6430804189824,-60.34447210448884,-83.47659421708344,0
1767376131.298806,1,left_wrist,1.0502,0.2406,-0.0273,67.13,27.09,8.47,0.4769712886777602,0.6076901482619362,-0.3856525246094199,0.5044632828510351,100.70432833113388,-78.81474167550749,3.6989407505728624,0
1767376131.298806,2,right_wrist,1.0375,-0.5095,0.1698,74.9,-49.49,-13.16,-0.30857987498658834,0.6807699768445977,-0.029476324902984016,0.6636729960232532,-81.16733236483391,-62.30395355858381,-75.37686947842849,0
1767376131.3499572,1,left_wrist,1.0799,0.2269,0.0229,67.2,27.86,4.27,0.46478195394933275,0.6128512604496369,-0.36411497844581253,0.5251774465071182,94.98538536254495,-79.16709099004952,12.878265747911884,0
1767376131.3499572,2,right_wrist,1.0121,-0.5549,0.1396,73.78,-56.84,-12.53,-0.32931230043489396,0.684436692217584,0.0023422404157035703,0.6504570216688922,-81.9804081454438,-63.11753617928388,-70.11431867297202,0
1767376131.4002209,1,left_wrist,1.0429,0.1718,0.06,60.69,21.84,-3.22,0.4535053737790284,0.6179796089110733,-0.34419443116955184,0.5421847217282403,90.22553704979474,-79.2058118597669,20.751593602954287,0
1767376131.4002209,2,right_wrist,0.8686,-0.489,0.0859,73.29,-49.21,-13.37,-0.3502529845116621,0.685929755846424,0.03125824971198155,0.6370605455606885,-82.62386024930365,-63.618355515351595,-65.20414937592965,0
1767376131.452634,1,left_wrist,1.0219,0.1835,0.1093,51.1,22.68,-6.16,0.44578669518276054,0.6212198526325768,-0.3248138487353114,0.5566471779888463,84.89825814495507,-78.87125111056733,28.713598146291826,0
1767376131.452634,2,right_wrist,0.7388,-0.5334,0.0112,43.12,-42.63,-28.35,-0.3570078999068794,0.6916004045971891,0.05478330841088982,0.6254862339689348,-84.97753168253395,-64.72772146376902,-60.29843759201582,0
1767376131.5038028,1,left_wrist,1.0058,0.1444,0.1059,50.12,12.25,-13.3,0.4373993847046165,0.6270982875190761,-0.3066324404066203,0.5669268581933171,82.78093389138999,-78.31600114186874,33.362596222896535,0
1767376131.5038028,2,right_wrist,0.7144,-0.528,0.0146,36.82,-18.41,-39.13,-0.35973585933111646,0.6904461733814924,0.07594846770473768,0.6229815594601975,-85.02117864949605,-66.19340930071763,-58.275856438646365,0
1767376131.5652869,1,left_wrist,1.0551,0.1337,0.0815,32.55,-3.15,-32.69,0.43174371594874367,0.6420356105671933,-0.27641896542215894,0.5700703413240555,84.56404726045113,-76.09493034910402,34.84545656687999,0
1767376131.5652869,2,right_wrist,0.7871,-0.5719,0.0127,26.81,-16.8,-42.28,-0.3585174398795201,0.6900218557849328,0.09507481569905335,0.6215270414560761,-85.4964877944281,-67.80543834680374,-56.34816457379271,0
1767376131.6177878,1,left_wrist,1.0443,0.1142,0.0688,24.08,-10.71,-32.62,0.4299008692615187,0.6509113699125584,-0.26577773698644297,0.5664466662000158,87.4857723047503,-75.00077150516584,33.0212405099429,0
1767376131.6177878,2,right_wrist,0.7876,-0.6017,0.0298,32.2,-20.65,-29.54,-0.3622849548620264,0.6897090733644424,0.11239956615019667,0.6167798173810727,-86.30240750023651,-68.7865073749244,-53.76255089706244,0
1767376131.696358,1,left_wrist,0.8969,0.1147,0.0386,8.89,-21.0,-33.11,0.43093997681873136,0.6595883406451584,-0.26086407325722033,0.557838590049209,91.28298383351157,-73.88802536166439,29.50212338053047,0
1767376131.696358,2,right_wrist,0.7413,-0.6227,0.0117,-3.64,12.46,8.54,-0.37164999621064976,0.6871365980096623,0.10994767480761145,0.614516952407931,-85.204849642,-67.85582426003094,-54.187298071067566,0
1767376131.755729,1,left_wrist,0.8789,0.1288,0.0249,5.46,-15.61,-22.4,0.4309424456098082,0.6649866825579578,-0.25873937116533946,0.5523904944886037,93.6460527173891,-73.2692631024279,27.288157615409773,0
1767376131.755729,2,right_wrist,0.873,-0.589,0.0254,-17.15,6.58,25.48,-0.3765063547435084,0.6899448251757744,0.09310469028195308,0.6111878759419457,-85.68477209238748,-65.99089906202511,-54.623688270392385,0
1767376131.818998,1,left_wrist,0.8374,0.242,0.0756,-19.67,-11.06,8.4,0.43446325946387315,0.6616653032758704,-0.2756196192914588,0.5454122551598094,95.73245487871456,-73.99838513152079,23.333827691376438,0
1767376131.818998,2,right_wrist,0.832,-0.589,0.0634,-11.76,22.19,46.76,-0.38932082873948615,0.6874947973481633,0.06871570356742787,0.6091455885189031,-84.27703678980438,-63.008486108329606,-56.81156031331007,0
1767376131.874881,1,left_wrist,0.8706,0.2694,0.0986,-18.97,-11.83,18.9,0.4358167675439342,0.6565095772280203,-0.2865863775729368,0.5449102387779702,95.7722127021556,-74.85678632952714,22.191542874933624,0
1767376131.874881,2,right_wrist,0.9145,-0.551,0.0542,-44.03,23.8,54.18,-0.3939977665465685,0.6899086166185328,0.03308443244953136,0.6063804754453349,-84.79559811302556,-59.628425398837344,-58.733891674321754,0
1767376131.946743,1,left_wrist,0.9165,0.305,0.083,-27.09,-16.8,17.5,0.4396524394490237,0.6514871223056086,-0.2992824383224603,0.5410178223203395,96.41787191807497,-75.48745510597215,20.01333400252859,0
1767376131.946743,2,right_wrist,0.8564,-0.4451,0.0547,-56.77,46.27,68.74,-0.3943273979840592,0.6836712608868499,-0.0408273629850425,0.6127255802300029,-84.00723931933572,-53.668921670290096,-65.48768512597657,0
1767376132.0016892,1,left_wrist,0.9789,0.3172,0.0673,-28.7,-11.83,12.39,0.44586973321136025,0.6456984893693438,-0.3096454539639915,0.537022657503025,96.01166699719562,-75.84378042341062,18.84793969235792,0
1767376132.0016892,2,right_wrist,0.9335,-0.4592,0.0366,-64.05,31.78,64.12,-0.3883945296975437,0.6852890772857176,-0.07891772929791914,0.610983274612631,-85.60712860070593,-50.90467830237037,-67.53756918356422,0
1767376132.053772,1,left_wrist,0.8955,0.2664,0.0098,-34.09,-22.05,3.36,0.4546416133000907,0.6429674732745269,-0.320037327588063,0.5267541558613017,97.2907791495421,-75.55238392337087,15.678089271871018,0
1767376132.053772,2,right_wrist,0.7618,-0.3514,0.0264,-55.79,28.84,45.43,-0.3796299884471044,0.6857977568692784,-0.10866116585878799,0.6113552646202748,-86.86915936612431,-49.115456059486924,-69.53258116332232,0
1767376132.1196108,1,left_wrist,1.0682,0.2211,0.002,-42.98,-25.27,-16.24,0.48011707349356786,0.6373310633441491,-0.3392937366154405,0.49817313429180443,98.84394817559503,-73.90510494915544,9.525563167916193,0
1767376132.1196108,2,right_wrist,0.7671,-0.3914,0.0229,-42.98,27.79,10.99,-0.36528722882036163,0.6854957710344078,-0.12447346119699317,0.6173873547557677,-87.44516441674517,-49.068702696332636,-71.61107592954424,0
1767376132.203555,1,left_wrist,1.0004,0.2538,-0.02,-47.81,-26.32,-22.47,0.4938906318320435,0.6334971951852778,-0.3500408442018258,0.48189703762464026,99.39072305548066,-73.00389528943396,6.385397269487193,0
1767376132.203555,2,right_wrist,0.7462,-0.5597,0.0527,-21.56,25.62,-34.72,-0.32603448736360097,0.6820162218783864,-0.12175491123995776,0.6432193465165948,-86.18885565946898,-52.937585588169604,-76.28527163098767,0
1767376132.266527,1,left_wrist,1.0692,0.1854,-0.1264,-9.03,-21.91,9.38,0.49113304579084094,0.6328703658797333,-0.371344786918783,0.4694320830021186,105.72052128606033,-73.52401654738433,-1.8021207088498647,0
1767376132.266527,2,right_wrist,0.874,-0.6622,0.0586,-33.25,23.45,-43.12,-0.30412881192587704,0.6796592005523187,-0.12158967157721716,0.6563421277252299,-85.35481868506761,-54.90701250306946,-79.0847768575992,0
1767376132.31888,1,left_wrist,0.9745,0.2172,-0.1845,-40.46,-22.4,-2.38,0.49629161061918814,0.6304091285234319,-0.3858976951663762,0.4553701096565493,108.66745995636008,-73.17128548152567,-6.854775623257533,0
1767376132.31888,2,right_wrist,0.8194,-0.5958,0.0874,-17.71,8.33,-38.36,-0.2892594234798961,0.6789845985891759,-0.1169968564804922,0.6645454359037136,-84.72915584956375,-56.58953924855917,-80.65805577302926,0
1767376132.399616,1,left_wrist,0.8784,0.2211,-0.1591,-23.66,-27.16,2.52,0.4950582360754071,0.631674400706427,-0.399087030048357,0.4434347041372207,113.23634290083804,-72.81492217506599,-12.735489944329466,0
1767376132.399616,2,right_wrist,0.7823,-0.6315,0.0791,2.03,7.14,-23.66,-0.28465626578631253,0.6759800177807536,-0.10740184845554952,0.6711830367776405,-83.20530534298862,-57.807985221880124,-81.80330374242317,0
1767376132.450666,1,left_wrist,0.8789,0.2562,-0.1288,-28.14,-23.59,16.24,0.49404254804212017,0.6295553166467189,-0.41464489959090794,0.4331878013623478,117.45319286530334,-72.77240132530875,-18.516699144931977,0
1767376132.450666,2,right_wrist,0.8237,-0.5915,0.083,-6.72,10.64,-27.86,-0.2772367729966315,0.6734760798387838,-0.10561022878375932,0.6770644143356231,-82.22067392990517,-58.585102125681736,-83.29468209009373,0
1767376132.5178502,1,left_wrist,1.0136,0.2923,-0.1562,-2.45,-6.16,41.58,0.4890982235519834,0.6179212159674522,-0.4366697526009885,0.43390762350872636,122.7442381785938,-74.44858441744614,-25.449529494229434,0
1767376132.5178502,2,right_wrist,1.0375,-0.6334,0.0947,-3.08,0.84,-29.47,-0.26953223310942137,0.6723241978085761,-0.09886302447950503,0.6823185844947125,-81.26520754702089,-59.789778088880816,-84.37325922430642,0
1767376132.570001,1,left_wrist,1.015,0.2865,-0.1669,-24.43,-6.51,25.13,0.49131957888783057,0.6115413322467435,-0.44734763494889845,0.4295373835430276,124.3789295944322,-74.78351777105767,-28.456430958530248,0
1767376132.570001,2,right_wrist,0.9365,-0.5905,0.1249,12.74,-16.66,-8.47,-0.2740932311351478,0.673812506461258,-0.09253711503490553,0.6799165309972308,-81.40749754116383,-59.944987512520086,-83.31515487932258,0
1767376132.652985,1,left_wrist,0.9823,0.245,-0.1928,-20.79,-13.58,8.33,0.49169192249541094,0.6104601767400476,-0.4565640642759388,0.42086420752911863,126.90628366418626,-74.3270519727941,-32.10053996683946,0
1767376132.652985,2,right_wrist,0.8706,-0.5763,0.0512,-21.84,-1.12,9.1,-0.28038685998806084,0.6778520880712591,-0.10994438741046479,0.6706802420829223,-83.84913917597375,-57.95051291150328,-81.74390021541899,0
1767376132.717383,1,left_wrist,0.9111,0.2279,-0.1566,-12.88,-13.37,2.24,0.4993779552288982,0.6097881064849194,-0.46590098358439125,0.4021397723628415,127.19315383522542,-72.89385273485726,-34.49005611981033,0
1767376132.717383,2,right_wrist,0.8652,-0.5402,0.0195,-9.87,-9.52,9.8,-0.27991507710547125,0.6838629505712412,-0.11505044797566684,0.6638843339510523,-85.92161616039584,-57.522575869265125,-80.13014553630519,0
1767376132.767859,1,left_wrist,0.9038,0.2318,-0.1635,-16.45,-9.1,3.64,0.5044427075140329,0.6075714873847112,-0.4688523344841688,0.3956917120711358,126.33343201698692,-72.52351534639902,-34.59615218115178,0
1767376132.767859,2,right_wrist,0.7925,-0.5456,0.0151,-5.04,-15.54,13.02,-0.2847537226361064,0.6894395076945267,-0.12147418221803717,0.6548530413224538,-87.94116015711289,-56.48929299427972,-78.20824443956788,0
1767376132.819353,1,left_wrist,0.9384,0.2577,-0.1923,-2.8,-6.37,4.48,0.502986286075821,0.6097855992288727,-0.47133668228714015,0.3911624354705969,127.53489523710513,-72.02703404106207,-35.990386611119874,0
1767376132.819353,2,right_wrist,0.7696,-0.5095,0.0293,-3.29,-15.19,10.57,-0.2886223648813957,0.6911349877441942,-0.12331837896566614,0.6510162337571801,-88.54108665284022,-55.96494704947627,-77.41614172989505,0
1767376132.904762,1,left_wrist,0.9765,0.2142,-0.2098,-0.98,-9.8,-0.84,0.49815795327723333,0.6108520214429225,-0.47629318889154415,0.3896707067528393,130.11071406979943,-71.91568738242215,-38.5980813167682,0
1767376132.904762,2,right_wrist,0.8433,-0.571,0.0815,13.86,-16.52,3.36,-0.30042732416193757,0.6936579899944475,-0.1141825714106882,0.6446273002284376,-88.82154863470744,-55.658979048201495,-75.33289436841717,0
1767376132.965388,1,left_wrist,1.0009,0.1381,-0.2352,-41.79,-34.51,-22.96,0.49909171130458513,0.6125620120092079,-0.4926078921608499,0.36470907547130793,133.08163432793006,-69.8056190465671,-43.921340350337964,0
1767376132.965388,2,right_wrist,0.8711,-0.6173,0.0771,6.86,-5.32,-1.19,-0.30407498994611604,0.691792234041026,-0.11147147727866413,0.6453960142138376,-88.17445642188027,-55.60558083330916,-75.43295309392192,0
1767376133.017897,1,left_wrist,0.853,0.2274,-0.2645,-54.53,-38.71,-31.71,0.5077070618956362,0.6150161454656964,-0.5023972690005523,0.33404440456113726,132.13270741126715,-67.07664106029429,-45.702003559600435,0
1767376133.017897,2,right_wrist,0.8696,-0.5973,0.0473,1.75,5.04,-2.8,-0.3047636972140131,0.6877526671022631,-0.11056446913076526,0.6495312586165513,-86.99526502992876,-55.694239966464664,-76.4793662413661,0
1767376133.068108,1,left_wrist,0.5929,0.3001,-0.3055,-32.06,-25.62,-23.31,0.5130292011396556,0.6191991786560809,-0.506239597354616,0.31163261382576424,131.13880479901397,-64.8713687553422,-46.33197055032267,0
1767376133.068108,2,right_wrist,0.8076,-0.5939,0.0088,-7.49,-5.88,2.66,-0.3053384787827945,0.6914073580025976,-0.11571176489493802,0.6444649456249544,-88.2824255958272,-55.13619028186149,-75.55928474270655,0
1767376133.158296,1,left_wrist,0.631,0.3675,-0.2782,11.41,3.5,0.49,0.5109943282815629,0.6237662474355374,-0.5028320171994555,0.311384693752581,131.19160783943752,-64.46885619769142,-45.81487616912895,0
1767376133.158296,2,right_wrist,0.8818,-0.4958,0.0117,-23.73,-17.22,-20.02,-0.28115007226754124,0.7072717990731242,-0.1207893900755161,0.6372842084541303,-93.07622977156177,-56.464782036186,-73.3210740794982,0
1767376133.213521,1,left_wrist,1.0131,0.4124,-0.2186,0.77,29.4,8.4,0.5218986809458894,0.6112074146447272,-0.49184323991034873,0.3348693632817737,126.81529937039248,-67.32909750826424,-40.77014244140187,0
1767376133.213521,2,right_wrist,0.9692,-0.4787,0.0698,24.78,-54.81,-23.1,-0.2837004238217057,0.7191220923499889,-0.09737804000587602,0.6268133718597367,-95.73493902807326,-57.807004473497535,-68.50194935696531,0
1767376133.267549,1,left_wrist,1.1156,0.4646,-0.1854,42.0,41.51,3.01,0.5220147480873615,0.6134413550451736,-0.4744393600063902,0.3551022393288399,123.75163290048201,-68.59084210566928,-35.3791636691245,0
1767376133.267549,2,right_wrist,0.954,-0.5719,0.1669,93.52,-79.66,-6.37,-0.315142659295113,0.7263439617934626,-0.05918625201018843,0.6079527457225339,-96.69184871430383,-57.76434405475612,-61.59003247378685,0
1767376133.3538702,1,left_wrist,1.2083,0.3421,-0.1113,88.97,39.69,-1.26,0.5077381428593254,0.6251641028959605,-0.4500417556804121,0.3857904105601182,122.99560279653237,-69.94625150880935,-29.901289566034613,0
1767376133.3538702,2,right_wrist,0.7964,-0.6539,0.0932,39.76,-31.01,-24.57,-0.354009952167147,0.7238339538742801,-0.0034932112022785576,0.5922239090587591,-95.29665848578578,-58.745407305322324,-54.875629619864235,0
1767376133.416041,1,left_wrist,1.0502,0.2186,-0.0766,70.49,27.3,-27.3,0.4857243537159623,0.6517180723201937,-0.39715944530954006,0.4261452585913398,119.24282848453285,-70.26647852520296,-17.88501744465889,0
1767376133.416041,2,right_wrist,0.7383,-0.6734,0.0142,5.39,12.46,-22.89,-0.3530216975180276,0.7188040341024384,0.00016822966552968593,0.5989126925840947,-93.76214390988916,-59.44262590707762,-56.22902903655543,0
1767376133.5060952,1,left_wrist,1.0824,0.1889,-0.0361,48.3,23.8,-11.83,0.47834902676389535,0.6569521375895505,-0.38018499551819496,0.4416508425140662,117.48311493779147,-70.73612881121575,-13.496799936284924,0
1767376133.5060952,2,right_wrist,1.0238,-0.4948,-0.0693,11.34,-6.72,16.73,-0.34896880011852655,0.715345332724309,-0.005761152170450212,0.605366534108925,-92.658274429675,-59.54995271132963,-58.20771417586612,0
1767376133.573767,1,left_wrist,0.7779,0.3187,-0.123,33.39,29.47,3.36,0.4726034188651614,0.6570902742843696,-0.35581941683874735,0.4671947372545909,112.0244403111897,-71.86047387139271,-4.793295935599919,0
1767376133.573767,2,right_wrist,0.7832,-0.4568,-0.1874,66.92,-38.29,43.33,-0.3796513799292373,0.7172070511691708,0.004205463388322999,0.5843468058856298,-93.05555949252216,-57.287035551318674,-54.08054669276916,0
1767376133.652765,1,left_wrist,0.7335,0.3201,-0.1488,72.17,27.44,6.09,0.45555081407059544,0.6676618746073658,-0.3354787466512189,0.4838957403622429,112.35355213372273,-72.14073966060684,-1.3255628765608007,0
1767376133.652765,2,right_wrist,0.5022,-0.3904,-0.1645,8.47,-4.13,30.17,-0.4039345277769695,0.7233282396183423,-0.008269563790311258,0.5599685431834047,-94.48327705036347,-53.45615049070543,-51.245658894732664,0
1767376133.714907,1,left_wrist,0.9697,0.2542,-0.0986,64.19,13.09,-2.45,0.4181204182747617,0.6865123337789156,-0.29832898706085315,0.5146610018938782,114.30672287980792,-72.96327017619211,4.064676897084582,0
1767376133.714907,2,right_wrist,0.6324,-0.4416,-0.1352,-7.77,3.57,-4.55,-0.39839397779456454,0.7263227298581448,-0.008867260347675163,0.5600525888185528,-95.3616174502789,-53.754643516693626,-50.94475646574396,0
1767376133.769699,1,left_wrist,1.0165,0.225,-0.0908,47.88,5.67,-8.61,0.4052602024636607,0.6925732808909029,-0.2855127323261487,0.5240123076558224,115.02186242640947,-73.18578143441817,5.802627621184156,0
1767376133.769699,2,right_wrist,0.7408,-0.4509,-0.0395,21.49,1.54,-31.99,-0.394622216016794,0.7218246084323054,0.009643829915284004,0.5684624330878063,-94.32409331552556,-55.921605492291015,-50.882813238146106,0
1767376133.848325,1,left_wrist,0.977,0.204,-0.0556,36.96,-1.05,-8.61,0.39559942572364093,0.6979001137707677,-0.2754796273603813,0.529667348885374,115.80852675648273,-73.18998681987767,6.862923678579087,0
1767376133.848325,2,right_wrist,0.9404,-0.5919,0.1142,82.88,-14.77,-25.83,-0.4197495913443876,0.6989289082531379,0.07186874792886688,0.5745811908211347,-88.56080610837992,-59.71374548659575,-49.222615373797645,0
1767376133.901612,1,left_wrist,0.9428,0.1952,-0.0537,34.51,2.03,-1.68,0.38542466742946757,0.7010865054126245,-0.26744987895777567,0.5370252320987065,116.47713184714253,-73.56996728057848,7.916185280454052,0
1767376133.901612,2,right_wrist,0.8691,-0.6988,0.121,75.32,10.29,2.24,-0.44636901737762547,0.6807919814092859,0.08548863461719455,0.5744289962436084,-83.45876283369873,-59.14324490291032,-50.614901802906,0
1767376133.9524229,1,left_wrist,0.9531,0.1976,-0.0429,28.07,7.98,6.58,0.3762834516032862,0.7006789304856776,-0.26202266608699165,0.5466296030033768,116.33414647270094,-74.41080804137222,9.46395376034408,0
1767376133.9524229,2,right_wrist,0.9106,-0.6359,0.0542,4.9,17.01,3.29,-0.451666619878088,0.6765761254910458,0.07891997133734356,0.5762062556303431,-82.11669123634661,-58.31905559367992,-51.97541440971098,0
1767376134.016961,1,left_wrist,0.976,0.2137,-0.0527,21.91,10.36,5.74,0.36398979292791844,0.6964079469347589,-0.2516856346466606,0.5649617185287094,113.4732685741721,-75.9560017863852,14.4926592782244,0
1767376134.016961,2,right_wrist,0.9614,-0.5495,0.041,4.48,22.4,-1.33,-0.45073970443729766,0.6720257165366831,0.07816233181692606,0.5823279188241588,-80.67345916507078,-58.55489812722701,-53.600803043205545,0
1767376134.06762,1,left_wrist,0.9906,0.1942,-0.0478,17.78,11.9,8.4,0.3577724144852035,0.6928381875417436,-0.24850529503045926,0.5746470774824524,111.68352052252483,-76.92925260063227,17.18999312095179,0
1767376134.06762,2,right_wrist,0.9082,-0.5358,0.0346,27.16,12.04,-6.72,-0.45552880002223106,0.665917960328295,0.08543480090105056,0.5845918894900162,-79.00040681396618,-58.91657790615592,-54.21351251066294,0
1767376134.120905,1,left_wrist,1.0287,0.162,-0.0615,0.49,2.73,5.95,0.35449884689246136,0.6894271045758291,-0.2520148927333909,0.579231671154713,111.52527483603377,-77.7832316760422,17.372152644544673,0
1767376134.120905,2,right_wrist,0.9165,-0.5773,0.0737,21.7,4.97,-9.59,-0.45974342276355534,0.6624399310413913,0.09103504744381404,0.5843987877506508,-78.117928547283,-59.088711892218235,-54.21614600970747,0
1767376134.202053,1,left_wrist,0.978,0.1859,-0.0586,-20.72,-4.13,-10.15,0.3629264000026969,0.6858191734436034,-0.25527235053464103,0.576864383170546,109.25809517494574,-77.56461087278461,18.5699786358947,0
1767376134.202053,2,right_wrist,0.8574,-0.5944,0.0678,-23.31,23.94,-22.47,-0.4477824550621239,0.6599830788916397,0.08274447777167951,0.5975504664156333,-76.83156071359365,-59.63803970165352,-57.42072456809978,0
1767376134.252697,1,left_wrist,0.9609,0.1562,-0.0425,-18.34,-8.89,-10.15,0.3685795137564716,0.6838966643658863,-0.260084471971918,0.5734026176669809,108.95742619024611,-77.42711591575092,17.911425546845006,0
1767376134.252697,2,right_wrist,0.8569,-0.5827,0.0537,-30.8,22.33,-20.3,-0.4351028810160087,0.6616608251346102,0.07395967592670605,0.606152127564172,-76.86128646411173,-60.05378328983944,-59.385017124926726,0
1767376134.314521,1,left_wrist,0.893,0.1664,-0.0595,-34.09,-11.97,-9.52,0.38213476421955245,0.677447015568068,-0.27826332711178964,0.5635672842327367,109.61218090565066,-77.48574603081336,14.34901984127758,0
1767376134.314521,2,right_wrist,0.854,-0.5841,0.0303,-37.87,12.39,-10.92,-0.4221732639282394,0.6675042615020034,0.0627277814047584,0.6101418044527676,-78.28404479584431,-60.170388649590116,-60.149753695780205,0
1767376134.36899,1,left_wrist,0.9916,0.1913,-0.0146,-20.65,-2.38,0.07,0.38879087995426287,0.6721365301052608,-0.2834516492908636,0.5627870814764134,107.50802911942773,-77.67333998793313,15.367796596812914,0
1767376134.36899,2,right_wrist,0.8374,-0.5783,0.039,-30.66,10.5,-0.63,-0.4144195222091351,0.6723466017364285,0.05027644537209815,0.6112927169418714,-79.61695495978861,-59.731436809156705,-60.58107018392607,0
1767376134.456864,1,left_wrist,1.0287,0.1786,-0.0176,-33.81,-3.29,4.41,0.3971607883693274,0.6640024765553574,-0.2941657519481976,0.5610976115534247,105.53877997813646,-78.18186434624488,15.588963988781469,0
1767376134.456864,2,right_wrist,0.875,-0.5319,0.1244,-21.0,-13.65,11.9,-0.4025032983345615,0.6871099198621821,0.031178404958363985,0.6040686715275317,-84.03972670739157,-58.78426624044097,-58.827881875742904,0
1767376134.514695,1,left_wrist,0.9965,0.1967,-0.0791,-9.52,-0.07,4.13,0.40624816199512004,0.6598251630654047,-0.3030409900378396,0.5547606181211722,105.22704162048518,-78.04475896254847,14.205137987827468,0
1767376134.514695,2,right_wrist,0.8916,-0.5417,0.1523,-25.2,-13.79,15.4,-0.40017926750134225,0.69284595751254,0.022096280263781784,0.5994437316538769,-85.78099931231212,-58.03041488801836,-58.02779991450001,0
1767376134.570532,1,left_wrist,0.9257,0.1972,-0.0996,-17.92,-1.89,3.29,0.40915283018395276,0.6590450274448748,-0.3092836155824353,0.550088409698752,106.77404060127881,-78.00192773171159,11.790542632076297,0
1767376134.570532,2,right_wrist,0.8447,-0.4929,0.1767,-21.28,-15.68,23.17,-0.4005332494700803,0.6983971029571671,0.012641964429170722,0.5930048763588257,-87.45890184321374,-56.974998428785995,-57.05766467502338,0
1767376134.6208372,1,left_wrist,0.9755,0.205,-0.0864,-9.17,-5.53,9.45,0.4077370400365277,0.6598659024700158,-0.315656005196581,0.5465242751452297,109.96054166190444,-78.14614991677324,8.142755505411817,0
1767376134.6208372,2,right_wrist,0.8613,-0.4875,0.1879,-12.25,-8.26,27.65,-0.4044814698352056,0.7004267373915817,0.0032757704205031075,0.5880360494349713,-88.08836423630183,-55.730923635170754,-56.78981017313622,0
1767376134.700816,1,left_wrist,0.9814,0.2323,-0.0625,-22.47,-4.13,6.86,0.41523157118928,0.6566259482074364,-0.3204802029952645,0.5419571439850951,108.89057058912165,-77.92462656449933,8.024733518663039,0
1767376134.700816,2,right_wrist,0.8535,-0.466,0.1942,-5.67,-0.42,22.19,-0.41166678503099013,0.701502041844553,-0.012617701110988075,0.5816065138982244,-88.50359467345677,-53.6689886705129,-56.94482855654685,0
1767376134.750829,1,left_wrist,0.9936,0.2411,-0.0551,-10.57,-4.76,7.77,0.41903323750449434,0.6550771284722767,-0.32287602058831427,0.5394776890178803,108.40242529002956,-77.79313289577064,7.910732576458537,0
1767376134.750829,2,right_wrist,0.834,-0.4748,0.1786,-7.63,11.34,9.24,-0.4116490665886627,0.6977772182007433,-0.017929037039915392,0.5859441520892043,-87.54116368079873,-53.413315734888954,-58.35706394046115,0
1767376134.81797,1,left_wrist,0.975,0.2372,-0.0805,-3.01,-3.08,-0.49,0.4246312321685136,0.6573625326973599,-0.322105215527836,0.5327391926661007,108.44984729739714,-76.89531701795,7.337229489848093,0
1767376134.81797,2,right_wrist,0.8394,-0.4763,0.1391,-8.19,11.9,-0.84,-0.40831636020277456,0.6942597629474803,-0.019839482751085095,0.5923576001597649,-86.58648206258317,-53.73584766911294,-59.81154320032374,0
1767376134.869518,1,left_wrist,0.9555,0.2133,-0.0854,3.29,-2.87,-1.05,0.4222222187409306,0.6610863575700323,-0.32230037841681003,0.5299204580959809,110.68960268938726,-76.60871885124226,5.289714260593383,0
1767376134.869518,2,right_wrist,0.8438,-0.5061,0.0898,-7.42,14.77,-7.21,-0.40281738302096787,0.6902233954923072,-0.019496011938585283,0.6007909168501964,-85.41982872479663,-54.454412987036015,-61.5062949058503,0
1767376134.9538822,1,left_wrist,0.9633,0.2137,-0.0781,-1.68,-5.53,-0.7,0.4231156057230042,0.6597425365552863,-0.3230787849621283,0.5304083977093941,110.19225075443734,-76.72154629059455,5.63441546311491,0
1767376134.9538822,2,right_wrist,0.8477,-0.509,0.0425,2.94,4.34,-11.48,-0.3892330565966764,0.6874103973262233,-0.009495256404557173,0.6130859755417866,-84.28144711877026,-56.66706302234757,-63.16352385314458,0
1767376135.00926,1,left_wrist,0.9301,0.2313,-0.0673,0.07,-3.22,-3.36,0.4266972375383424,0.6613182405888203,-0.3194975010798121,0.527739518081989,109.14184365125732,-76.08771269199106,6.63739664015686,0
1767376135.00926,2,right_wrist,0.8472,-0.5505,0.0376,7.42,1.68,-13.79,-0.3860872996185076,0.6883020466211661,-0.003243206348366822,0.614138723174972,-84.40466638167449,-57.4499271825671,-62.83461308103373,0
1767376135.060838,1,left_wrist,0.9726,0.2123,-0.0683,11.34,-3.22,-1.4,0.42239802439377505,0.6617977137701837,-0.3185111930664335,0.5311819979330916,109.65991320591142,-76.44541071709817,6.654754417913524,0
1767376135.060838,2,right_wrist,0.8618,-0.5319,0.0454,6.3,-2.38,-16.94,-0.3803551714953824,0.6895177557977517,0.006691759990187684,0.6163200696915392,-84.57375198578788,-58.761696185790434,-62.406875333108815,0
1767376135.123061,1,left_wrist,0.974,0.1962,-0.0595,3.43,-4.55,-5.74,0.4208792692401708,0.6608927108898478,-0.3179137901471198,0.5338654207296264,109.24147639686937,-76.72076368500277,7.296378136588623,0
1767376135.123061,2,right_wrist,0.852,-0.5514,0.059,12.88,-8.89,-17.22,-0.3827544349072448,0.6887650327384965,0.013475149727741385,0.6155649377404372,-84.31432572787321,-59.12339861643447,-61.89019128978617,0
1767376135.198477,1,left_wrist,0.9628,0.1996,-0.061,3.29,-2.87,-4.2,0.42004898071349617,0.6601390008339414,-0.317477196550155,0.5357084870059208,108.83645645060228,-76.90508438724532,7.836009075904081,0
1767376135.198477,2,right_wrist,0.8462,-0.5636,0.0888,5.95,-6.72,-14.14,-0.3856410742574795,0.6871004426500764,0.02387257232297213,0.6153080885591304,-83.76981702053413,-59.76523275588995,-61.32097277589454,0
1767376135.251709,1,left_wrist,0.9682,0.1898,-0.0556,-0.28,-1.47,-2.1,0.41956609698518116,0.6581442785137401,-0.31858047804923134,0.5378818438339161,108.29799897932119,-77.24909945278094,8.339058841284857,0
1767376135.251709,2,right_wrist,0.8403,-0.5539,0.0952,7.63,-7.63,-8.4,-0.3885403055043208,0.6860868985903243,0.02711285840458291,0.614480342639577,-83.48285098779475,-59.79634385795829,-61.070039179190395,0
1767376135.3047218,1,left_wrist,0.9706,0.2137,-0.0605,1.12,0.21,-0.42,0.42195401633716473,0.6569247242167511,-0.3159945862053399,0.5390288826200293,106.37608006970828,-77.12876936868207,10.271609721774634,0
1767376135.3047218,2,right_wrist,0.8252,-0.5461,0.0888,8.54,-6.72,-2.31,-0.3934576775873829,0.6849714391474645,0.028325966674495558,0.6125380176868616,-83.21256431877416,-59.47777628131092,-60.771678196625636,0
1767376135.3691142,1,left_wrist,0.9492,0.3304,-0.0903,-12.53,12.74,-18.55,0.43621580176803326,0.6587477678750442,-0.3057715045310888,0.5312917650635226,102.39268456110914,-75.18114028851535,13.720399159742682,0
1767376135.3691142,2,right_wrist,0.8374,-0.4939,0.0527,9.73,-12.6,2.52,-0.3966781483410224,0.6891152349513727,0.031106615747630923,0.6056393465119168,-84.57912145386344,-59.248074754002864,-58.85393989209104,0
1767376135.451265,1,left_wrist,0.8818,0.4421,-0.0771,44.38,8.75,-11.76,0.42977200651971503,0.6683706684035524,-0.28743838178444847,0.5347483975730496,102.39162887536682,-74.13033641406533,16.007845247473046,0
1767376135.451265,2,right_wrist,0.7359,-0.428,-0.0366,5.81,-22.33,3.71,-0.39952331971128147,0.7005338553243149,0.03936605226241493,0.5899862273651834,-88.28097154125936,-59.100118145291205,-54.154004456132,0
1767376135.5152278,1,left_wrist,0.7906,0.3797,-0.0273,42.14,23.66,-7.42,0.421738905387651,0.6782963284396435,-0.2506254877143652,0.5470258233535796,98.7391359687194,-72.45647684955632,23.751545365835764,0
1767376135.5152278,2,right_wrist,0.7135,-0.4294,-0.0449,12.32,-32.76,-1.61,-0.40090972468535924,0.7092137856952228,0.0487462647193347,0.5778503270817389,-91.19878139487416,-59.1736744502648,-50.28589731395286,0
1767376135.566596,1,left_wrist,0.833,0.2904,-0.0161,66.64,30.8,-1.96,0.408602483505149,0.682090256780376,-0.22558106854315335,0.5629476650574493,96.07029405413292,-72.23354487062875,29.943951949928852,0
1767376135.566596,2,right_wrist,0.7466,-0.4109,-0.0303,18.97,-35.0,-6.86,-0.40112460444701536,0.7160241353087017,0.06433824655850286,0.5676874839138422,-93.84075239704357,-59.833776428726836,-46.29882478514824,0
1767376135.653888,1,left_wrist,0.8579,0.2464,-0.021,66.15,31.85,-0.7,0.3899129080000573,0.6838492227731149,-0.20602453214528252,0.5812676292740403,93.93190153888402,-72.87450526126031,35.622230661094875,0
1767376135.653888,2,right_wrist,0.8198,-0.388,0.0185,41.72,-50.68,-13.72,-0.4133905897950369,0.721435320860497,0.11358437235707868,0.5438178816847344,-98.03261921241328,-61.47013493538215,-36.744156496698345,0
1767376135.7151911,1,left_wrist,0.9662,0.1869,0.0068,51.45,18.55,-1.61,0.35602760443189707,0.6876030107696074,-0.17517421837839312,0.6080793021297262,91.44317717616565,-73.93907017581022,43.97167885980907,0
1767376135.7151911,2,right_wrist,0.8491,-0.4363,0.0054,66.71,-49.42,-8.61,-0.43065908402846886,0.7178223982090988,0.14129054929860033,0.5284891093031134,-98.54560191466494,-61.692919128421394,-32.15230503801741,0
1767376135.774625,1,left_wrist,0.9667,0.1996,0.0303,28.21,13.02,-4.62,0.34797167396297085,0.6867545063397814,-0.16665724961292014,0.6160432803731146,89.7504744854708,-74.18044364829434,47.139674988450444,0
1767376135.774625,2,right_wrist,0.9394,-0.5158,-0.0654,50.4,-60.2,-14.7,-0.4422439601328259,0.7196519201975322,0.16617846542911582,0.5088281744456222,-101.02041766301392,-61.56299351494291,-26.284431980354636,0
1767376135.846926,1,left_wrist,0.9902,0.2289,0.0522,41.09,14.35,-11.97,0.3391065503704027,0.6874430188633479,-0.1512123182731608,0.6241503649877878,88.11875224147614,-73.88154838108002,50.88629185553449,0
1767376135.846926,2,right_wrist,0.9238,-0.5231,-0.0669,-9.94,-18.62,-47.04,-0.44344383717510716,0.7220015827122148,0.21632176371245818,0.4850527521587785,-107.55242394654972,-63.159998272850686,-15.126296501055636,0
1767376135.904001,1,left_wrist,1.035,0.1542,0.0708,34.3,18.62,-6.51,0.3298063342992797,0.6858732623500663,-0.13970483945825862,0.6334731309860673,85.82155215609419,-73.96966949557314,55.000567402171015,0
1767376135.904001,2,right_wrist,0.9926,-0.4831,-0.0049,4.2,15.12,-58.66,-0.435373852276905,0.7100027590124154,0.23203289319022813,0.5025001765433502,-106.75033236827579,-66.290385627774,-15.589621407152066,0
1767376135.9709141,1,left_wrist,1.0614,0.1527,0.0464,19.32,18.27,7.49,0.30969375307613756,0.678845791140569,-0.1297972154993808,0.6530014196040915,79.91314539799707,-75.23276392980291,63.56251874908902,0
1767376135.9709141,2,right_wrist,0.9482,-0.3909,0.6159,-50.68,77.77,-56.56,-0.4159908551724221,0.6940887452455914,0.22277498096229226,0.5436577323956385,-100.60608241058367,-70.05796189426346,-24.79996788397236,0
1767376136.049848,1,left_wrist,1.0043,0.1923,0.0664,14.49,6.72,8.12,0.3010315122669899,0.6767623522234388,-0.13017957964661214,0.6591100244104005,78.00908920904264,-76.04798922862983,66.21141315456245,0
1767376136.049848,2,right_wrist,1.0614,-0.3475,-0.408,-6.65,22.54,-17.15,-0.37800668291839357,0.6975333088947346,0.20554145448867758,0.5729842416140908,-101.16635692193181,-72.69662380600731,-29.495048026064726,0
1767376136.1041532,1,left_wrist,1.0111,0.2611,0.0517,-15.89,23.38,9.1,0.30747608604789395,0.6682294235704196,-0.13083483668351228,0.6646880016168576,72.94583596293744,-75.64665114551539,70.64873545672988,0
1767376136.1041532,2,right_wrist,0.9789,-0.2938,-0.2669,-26.74,31.57,-18.55,-0.3664900954664922,0.69471777065331,0.20006407780155483,0.5856847222156898,-99.3620874224737,-73.82476304119047,-32.90092341616498,0
1767376136.1685061,1,left_wrist,0.9418,0.2743,-0.0342,10.99,12.88,-1.61,0.3051794785426476,0.6653298765573428,-0.1279315352348274,0.6692048741073908,70.76723501498503,-75.59654221284346,73.27203862235903,0
1767376136.1685061,2,right_wrist,0.9789,-0.2938,-0.2669,-26.74,31.57,-18.55,-0.3550840614921647,0.6917258453054569,0.1943588692473906,0.5980428865520897,-97.16285054898276,-74.88203789272056,-36.689031190115045,0
1767376136.250548,1,left_wrist,1.0624,0.1269,0.0259,13.79,-0.7,4.48,0.29665747163586537,0.6679721822335413,-0.1286238406252938,0.6702711510333528,71.58637732432734,-76.35096713097546,73.15407529998322,0
1767376136.250548,2,right_wrist,1.0272,-0.2865,0.1635,68.25,28.98,-8.19,-0.3788635620228283,0.658127069313616,0.2069506392518719,0.6168489239038089,-78.82433623510282,-75.636654844139,-51.82086725802972,0
1767376136.3067908,1,left_wrist,1.0028,0.1952,0.0283,-11.48,-9.03,-3.08,0.29805902148748414,0.6712378661190546,-0.13434510857255047,0.6652457730797628,74.16774757180109,-76.69576088592318,69.97545321835165,0
1767376136.3067908,2,right_wrist,1.0512,-0.222,0.1562,16.03,21.7,-11.06,-0.3828500540180296,0.6459311605571589,0.21101627953211638,0.625836162052096,-71.63936202096787,-75.946485020928,-58.299113848678005,0
1767376136.365578,1,left_wrist,0.9921,0.203,0.121,-10.99,-16.59,-3.08,0.2969545644490927,0.6764810686785335,-0.14190764430816238,0.6588274211501121,78.30211029896716,-77.32981188417152,65.31065962016162,0
1767376136.365578,2,right_wrist,1.056,-0.1747,0.1562,29.33,10.92,-0.14,-0.39142256186389135,0.6353081292548002,0.21856517858407876,0.6288093683121968,-66.39389698287084,-75.94854884641119,-62.08773105276039,0
1767376136.419787,1,left_wrist,0.957,0.1566,0.1498,3.15,-10.64,-1.54,0.2957124329618875,0.6775136987328779,-0.14258353963931095,0.6581787593389666,79.02960933213123,-77.4687208817469,64.63678257810594,0
1767376136.419787,2,right_wrist,1.0365,-0.2908,0.164,10.78,5.67,3.5,-0.39845750045256806,0.6307647801466725,0.2170314809789445,0.6294956304246263,-64.37073285147011,-75.25834001606283,-63.56913077988217,0
1767376136.501722,1,left_wrist,0.937,0.2694,0.1259,-9.45,1.82,0.42,0.3008045131324163,0.6739002601086539,-0.14313417709612233,0.6594601516783819,76.81775130266999,-77.14379344833566,66.35217275578057,0
1767376136.501722,2,right_wrist,0.934,-0.1176,0.1615,14.35,0.49,4.34,-0.40711769422341576,0.623282380156979,0.220487464243984,0.6302059470897735,-61.27890140780942,-74.8229026725513,-65.52804510933406,0
1767376136.551733,1,left_wrist,0.9296,0.1942,0.0927,3.99,6.93,3.43,0.2994617820093894,0.6696089160379266,-0.14222356024209462,0.6646194396723113,73.50079582636856,-77.22637764519152,69.86580121339037,0
1767376136.551733,2,right_wrist,0.9487,-0.3035,0.1469,7.91,2.31,-0.42,-0.4123980747571137,0.6214471353658484,0.21877314857415928,0.6291816870707188,-60.93316988486796,-74.2488028416713,-65.50821804478898,0
1767376136.613517,1,left_wrist,0.9921,0.2445,0.0649,5.53,5.46,3.08,0.303581660613217,0.664703156895009,-0.14206098825238547,0.6677024518225809,70.44292115274843,-76.881334054207,72.57053975191747,0
1767376136.613517,2,right_wrist,0.957,-0.2538,0.1684,13.37,3.85,-1.75,-0.4179960759791658,0.6158091194670086,0.22026140491862892,0.6305103665686701,-58.630361393089494,-73.88053213680645,-67.13440888089094,0
1767376136.673072,1,left_wrist,0.9911,0.1874,0.0556,-9.8,4.2,-3.43,0.3047733025232541,0.6636659384257573,-0.14628148365191773,0.6672799141163487,69.97233863184921,-77.12725523011402,72.58483534602523,0
1767376136.673072,2,right_wrist,0.956,-0.2133,0.1552,17.57,6.93,0.28,-0.42207768944881363,0.608128489680957,0.22601189673584643,0.6332051694686124,-55.14280711832683,-73.93106414231657,-69.71984746875593,0
1767376136.752772,1,left_wrist,0.9711,0.1815,0.0542,5.88,1.96,-0.49,0.30053633940536406,0.6652929016398307,-0.14696616465599047,0.6674310527468637,70.64128584877622,-77.53064452485978,72.2366362424194,0
1767376136.752772,2,right_wrist,0.9867,-0.2538,0.2025,3.43,-0.49,3.64,-0.4309813640407297,0.6042885187328007,0.22137917543148436,0.6325201266857726,-54.519302522297544,-72.79836024824087,-69.86146434633667,0
1767376136.819295,1,left_wrist,0.9926,0.1596,0.0766,3.36,0.21,5.6,0.2922444839618693,0.665919061239111,-0.15176872244520462,0.6694110996686805,70.18341564230593,-78.59512866708917,73.03142107602612,0
1767376136.819295,2,right_wrist,0.9726,-0.2586,0.1527,20.3,3.15,4.06,-0.4375480220487502,0.6028594819856841,0.2247844118340389,0.628159328178452,-54.93691606900873,-72.57151951273443,-68.49938190490063,0
1767376136.900434,1,left_wrist,1.0038,0.1928,0.1118,3.92,1.89,2.52,0.29156152597165713,0.66321906698055,-0.1504090501043746,0.6726882364165641,67.85583854017247,-78.51771903382759,75.53167634730077,0
1767376136.900434,2,right_wrist,0.9457,-0.2996,0.1986,1.89,3.57,-0.21,-0.4465157648406421,0.5988638618805208,0.21994165783884134,0.6273845820781915,-54.30168138445082,-71.41479536052188,-68.65077920057321,0
1767376136.971113,1,left_wrist,0.9877,0.2011,0.0913,-7.7,-3.36,2.38,0.2863688248071479,0.6654439618137659,-0.15125966080421702,0.6725308505024624,68.88538484725413,-79.0204696671045,74.89055907455234,0
1767376136.971113,2,right_wrist,0.9921,-0.2225,0.2103,-0.7,-4.76,-0.98,-0.44393476037698293,0.5978316913788314,0.22366520398654505,0.628882400642452,-53.420233621068675,-71.90026637352919,-69.46810491832595,0
1767376137.050695,1,left_wrist,0.9643,0.2035,0.1054,-5.18,0.77,4.06,0.2890326666472848,0.6624679577968472,-0.1516936580764775,0.6742294539714287,66.85717010011858,-78.8131368695743,76.64672518126143,0
1767376137.050695,2,right_wrist,0.9516,-0.3021,0.204,5.11,0.35,1.05,-0.44519893401329075,0.5974873531975257,0.2254413796041964,0.6276806164639798,-53.48121333788917,-71.95157151199473,-69.12739053658545,0
1767376137.1036959,1,left_wrist,0.9784,0.2035,0.0947,-4.55,5.53,8.82,0.2909622802315975,0.6584317162432326,-0.15198838555774968,0.6772799695716456,63.92979010936397,-78.61735485840397,79.37695193666467,0
1767376137.1036959,2,right_wrist,0.957,-0.2455,0.1679,5.6,-2.31,1.05,-0.4448926418319498,0.5993708005000493,0.22881726552456844,0.6248742591510533,-54.44423051162654,-72.29991031510313,-67.90722784100296,0
1767376137.165984,1,left_wrist,0.9799,0.2362,0.0742,-11.48,-0.07,0.35,0.2967061915843119,0.6603416441122072,-0.15148423942890127,0.6730281376966107,66.42812540189985,-78.1670537458087,76.41341817996927,0
1767376137.165984,2,right_wrist,0.9311,-0.2133,0.163,7.42,-2.17,-0.35,-0.443580331256789,0.5982195616302215,0.2350299395538534,0.6246044935143957,-53.76125358718107,-72.90342098437874,-68.18228648570344,0
1767376137.219736,1,left_wrist,0.9877,0.1962,0.08,0.0,-1.96,-0.84,0.29893101471283146,0.6630047556394375,-0.14876659049075155,0.6700249577411306,68.75875608149799,-77.79606066148098,74.11202540328787,0
1767376137.219736,2,right_wrist,0.9526,-0.222,0.1781,2.73,-1.19,-1.19,-0.4421790483350243,0.5954363647612764,0.23896102034479078,0.6267622001119604,-52.105654566110694,-73.2798001275371,-69.63186750296477,0
1767376137.297601,1,left_wrist,0.9662,0.1552,0.0937,1.61,-0.98,2.31,0.2957069775793686,0.6612702730857646,-0.15172518845540542,0.6725016554121818,66.99490470963171,-78.27749992013185,75.91562069022108,0
1767376137.297601,2,right_wrist,0.956,-0.2479,0.1932,7.35,-5.32,2.59,-0.4472485075941972,0.5937517511149171,0.23768634076375106,0.6252462186347638,-52.12223973717589,-72.76388824019118,-69.21593270016179,0
1767376137.3480802,1,left_wrist,1.0121,0.2142,0.0786,1.61,1.47,1.05,0.29779363610872234,0.6624041291041176,-0.14804344675961073,0.6712844835913427,68.12206906014183,-77.8217433228587,74.9095284000793,0
1767376137.3480802,2,right_wrist,0.9067,-0.2333,0.1659,0.63,-3.92,1.68,-0.4484699544080154,0.5976337055900097,0.2362474642612613,0.6212051107051121,-54.33583401805942,-72.63177120263262,-67.01148561857185,0
1767376137.403768,1,left_wrist,0.9736,0.1786,0.0854,5.6,1.19,-2.24,0.2948268167569985,0.6608761619051152,-0.1482964033850589,0.6740385919882889,66.50353255817491,-78.0574522386617,76.76942939752202,0
1767376137.403768,2,right_wrist,0.957,-0.2694,0.2167,3.15,-0.35,-0.77,-0.45131857706790085,0.5952962148793953,0.23501515987003702,0.6218535464037579,-53.582318780655555,-72.27101233898397,-67.58159407557149,0
1767376137.47172,1,left_wrist,0.9555,0.2025,0.083,-4.2,-4.34,-2.31,0.29838578348424005,0.6620779166499448,-0.15059297839658153,0.6707760515675942,68.01545906093514,-77.98183328398905,74.7518114639801,0
1767376137.47172,2,right_wrist,0.957,-0.2694,0.2167,3.15,-0.35,-0.77,-0.4542064924096604,0.5930049368026782,0.23370153096351548,0.622434897483965,-52.889119645190355,-71.89920843109377,-68.09336628729233,0
1767376137.548185,1,left_wrist,0.9267,0.1484,0.0903,-1.54,-3.85,-2.94,0.2974763949376172,0.6610809750716602,-0.1532757085658549,0.6715551325221607,67.15791887908745,-78.26435260701548,75.46679649385533,0
1767376137.548185,2,right_wrist,0.9721,-0.2894,0.2094,2.73,2.24,0.42,-0.45710176672585656,0.5895638623741716,0.23220286161757153,0.6241428186682599,-51.66534084916108,-71.48215407207536,-69.14727469689628,0
1767376137.613358,1,left_wrist,0.9736,0.1083,0.0908,9.59,2.17,0.21,0.2906749488638321,0.6593252279819234,-0.1544626737252124,0.6759730765905192,64.59545166421195,-78.86327619828037,78.53170126753999,0
1767376137.613358,2,right_wrist,0.9496,-0.2918,0.1674,1.96,0.98,0.42,-0.45858137210680316,0.5918108843163625,0.23070913674354887,0.6214791199906663,-52.98036259914721,-71.297098443961,-67.81636303988023,0
1767376137.663499,1,left_wrist,1.2488,0.0888,0.2191,28.0,9.24,-0.28,0.28209336372925875,0.6576755802784261,-0.1466500046816496,0.6829201573919309,61.70700115722201,-78.81849647436668,82.8228293015059,0
1767376137.663499,2,right_wrist,0.9755,-0.2313,0.2367,3.08,-2.8,0.21,-0.4590432934658805,0.5890640807152845,0.23297313715475887,0.6229015017635806,-51.7615553401846,-71.39621070757248,-68.78684571717903,0
1767376137.716535,1,left_wrist,1.401,-0.1142,0.223,12.32,9.03,-15.75,0.28133429101757346,0.6558711056650575,-0.14038078323552383,0.6862778920739872,60.38340101034919,-78.2956850691161,84.73023997912152,0
1767376137.716535,2,right_wrist,0.9755,-0.2313,0.2367,3.08,-2.8,0.21,-0.4595795892778632,0.5863037669963471,0.23512530910005353,0.6243000744399185,-50.54252832234294,-71.47345676660298,-69.75876186559073,0
1767376137.769112,1,left_wrist,1.5011,0.3094,0.2635,-48.44,-8.96,-66.92,0.3161905095321035,0.6539775501485803,-0.13532987886330958,0.673812102496187,64.96070477841751,-75.21630042767562,77.47766620268995,0
1767376137.769112,2,right_wrist,0.9794,-0.2952,0.2074,-0.77,-1.96,-0.91,-0.46130764598855634,0.5886153930304269,0.23207683319829756,0.621986750930261,-51.91472835467304,-71.14502052835385,-68.48056069246805,0
1767376137.823057,1,left_wrist,1.4635,-0.0371,0.1371,-2.94,-21.77,-59.36,0.3300382932704223,0.6627098969891199,-0.12588612266602206,0.6603355219340636,71.65227783612063,-73.39873237202114,70.31959020644423,0
1767376137.823057,2,right_wrist,0.9677,-0.2074,0.2079,-0.98,-2.66,-1.05,-0.4582441204661374,0.5875610456524055,0.23596464847561083,0.6237828375002388,-50.92807618997315,-71.67343939130934,-69.43876356796734,0
1767376137.9039109,1,left_wrist,1.3664,0.3167,0.1703,-0.21,-2.24,-28.98,0.3368391373037283,0.662671366756233,-0.12019166328771078,0.6579969751739289,72.14732107535629,-72.37185505474696,69.67527414412592,0
1767376137.9039109,2,right_wrist,0.9292,-0.1786,0.223,1.89,-2.24,-1.89,-0.4547395524781833,0.5823901910496486,0.24228259807324215,0.6287549184316373,-47.7685695443075,-72.30958971836954,-72.38999823626544,0
1767376137.96784,1,left_wrist,0.8194,0.1371,0.1039,-32.62,-12.81,15.96,0.3541806832885885,0.654567996337125,-0.13612173062627278,0.6538865774794115,69.63713036196404,-72.26015698440514,69.2790409823152,0
1767376137.96784,2,right_wrist,0.9984,-0.2074,0.2206,-1.96,-2.94,0.0,-0.4520321202051632,0.5812612902335086,0.2452660917991178,0.6305924349312229,-46.66494635897669,-72.7103009305793,-73.50298049683691,0
1767376138.0506392,1,left_wrist,0.6144,0.589,0.1649,-9.52,-13.09,39.13,0.34786349963664426,0.6544173033872167,-0.14862614548867378,0.6547054662404534,69.14771449098059,-73.80219922274549,69.31345152218063,0
1767376138.0506392,2,right_wrist,0.955,-0.2723,0.2108,1.54,-2.45,-2.87,-0.45704111279746734,0.5823815730455378,0.2398480820932755,0.6280270870798768,-48.200325590134455,-71.9420851204814,-71.93755805848768,0
1767376138.103989,1,left_wrist,0.609,0.6061,0.1127,-67.06,-3.15,32.62,0.3602804658058643,0.6431785156957802,-0.17404148102360825,0.6528621185129303,64.61854493932931,-74.84481342162344,70.57143800091741,0
1767376138.103989,2,right_wrist,0.9267,-0.2586,0.1869,5.67,5.11,-5.32,-0.4589189426094648,0.5819751465298542,0.2393512202991991,0.6272235058390665,-48.35060255271067,-71.75795578581675,-71.639518851074,0
1767376138.165347,1,left_wrist,0.5788,0.1757,-0.0063,-18.62,-3.71,17.71,0.3728945721175931,0.6382486469675208,-0.2039015486292058,0.6418819682745246,64.51315644541906,-76.27076727246994,66.97647600109487,0
1767376138.165347,2,right_wrist,0.9121,-0.2811,0.1771,4.06,5.53,-5.95,-0.46033445899032804,0.5816767877809983,0.2383847625472964,0.6268309225047298,-48.46542400391875,-71.56797542431667,-71.46441194255766,0
1767376138.217819,1,left_wrist,0.7432,0.2743,-0.1113,-14.07,-9.94,12.6,0.37235020649321104,0.6405041668390462,-0.21232599194380705,0.6372028006305063,66.59312878674478,-77.00287513701947,64.22939249627873,0
1767376138.217819,2,right_wrist,0.9565,-0.2704,0.2035,6.23,3.64,-4.83,-0.4627901822314552,0.5812926239591873,0.23766973302036057,0.6256494470283257,-48.72432545624542,-71.32556799451629,-71.0174143034533,0
1767376138.269701,1,left_wrist,0.73,0.2015,-0.2172,-22.96,-15.19,3.43,0.3754160084010103,0.6434377837843887,-0.22253903931563346,0.6289093853770682,70.25695214160108,-77.53221773471041,59.399548700159485,0
1767376138.269701,2,right_wrist,0.9462,-0.2782,0.1942,2.24,1.19,-3.78,-0.46375682751520797,0.5828171359315328,0.2366396553064991,0.6239034096188417,-49.61445297783951,-71.21430815376475,-70.12266022879064,0
1767376138.32058,1,left_wrist,0.4958,0.3157,0.0098,7.56,-15.75,-14.07,0.3782288697583045,0.6519854417182707,-0.21582141067984334,0.6207084859746558,75.87918345677272,-76.56782123141826,54.07768081921713,0
1767376138.32058,2,right_wrist,0.9862,-0.2372,0.245,2.45,-2.73,-2.17,-0.4636827664647486,0.5798955927589908,0.23894593805168732,0.6257988752553774,-48.22406890590156,-71.33147240326802,-71.31221602731834,0
1767376138.399486,1,left_wrist,0.5588,0.0952,-0.0244,37.52,3.64,-21.84,0.37140916539610436,0.6609664465636909,-0.200990551395889,0.6203074936080599,79.34657965760884,-75.76710331766554,52.50871500970638,0
1767376138.399486,2,right_wrist,0.9872,-0.2469,0.2294,0.21,-4.9,0.35,-0.4622874487935647,0.5798675872430606,0.24155493353907373,0.6258555025209752,-47.956919567588,-71.65203159067069,-71.494479886616,0
1767376138.449694,1,left_wrist,0.5256,0.0654,-0.0864,36.05,16.45,-15.05,0.3640796426809809,0.6655354004369884,-0.18635488636665437,0.624324035159418,79.94531636513493,-75.17582788916823,53.834927415182975,0
1767376138.449694,2,right_wrist,0.9521,-0.2142,0.2386,3.92,4.62,-0.84,-0.46356880172533116,0.5747507013974342,0.24258307507957896,0.6292209858189994,-45.76089063073943,-71.47737733732792,-73.45427122571861,0
1767376138.503822,1,left_wrist,0.551,0.1454,0.1137,33.46,51.31,-17.78,0.36444149997662684,0.655623162991569,-0.16305422254389648,0.6409009141468924,72.04198686273945,-73.58224181178987,63.67974196076462,0
1767376138.503822,2,right_wrist,0.9331,-0.2352,0.2001,-0.35,-4.69,0.84,-0.46298600865323297,0.5791550618720834,0.24279244517056006,0.6255199426616169,-47.74466482782872,-71.68898440912365,-71.52613746980569,0
1767376138.5668201,1,left_wrist,0.9867,0.7222,0.1069,19.6,11.55,-36.89,0.3792533249324617,0.662846347925218,-0.11633562663646864,0.6350335869424338,75.13947259835902,-68.45052305276802,63.06231524143205,0
1767376138.5668201,2,right_wrist,1.0575,-0.2474,0.2474,6.23,1.33,3.15,-0.46530261320690225,0.5748833535873057,0.24448515016003652,0.6270802335126384,-46.13768014662704,-71.53460656298375,-72.73662031527854,0
1767376138.619026,1,left_wrist,1.0751,0.3421,0.2445,-5.6,31.43,-29.82,0.39093863400758294,0.6519734168071616,-0.10468677523258296,0.6412006919120431,71.18527156286572,-66.62731000182535,66.87479808132065,0
1767376138.619026,2,right_wrist,0.957,-0.1991,0.162,-3.29,2.94,1.47,-0.4630245620021736,0.5767662386340113,0.24496099999522797,0.6268517124775269,-46.59983085692929,-71.79407143867374,-72.47084742678673,0
1767376138.671469,1,left_wrist,1.3425,0.3753,0.0952,87.08,14.7,20.16,0.35790265899887447,0.6623123915206435,-0.08683056874019035,0.6524633591643261,73.39233663025979,-67.88390645567969,69.23064029453309,0
1767376138.671469,2,right_wrist,0.9579,-0.1986,0.2694,-5.6,-13.93,2.38,-0.46107424925447404,0.5790540571086431,0.24595135900730714,0.6257913906589816,-47.3372781532869,-72.08944445874309,-71.8523227405573,0
1767376138.748238,1,left_wrist,1.0453,0.6969,0.2542,12.39,21.42,5.18,0.3565936318849224,0.6569420567242108,-0.07825327742592579,0.6596548645907082,71.16418564412037,-67.29720865860689,72.28100192729866,0
1767376138.748238,2,right_wrist,0.9516,-0.2899,0.1942,6.72,-2.66,2.03,-0.4650657609332477,0.5792291228482954,0.24717970231750339,0.6221813690670943,-48.186972962251964,-71.93046159568067,-70.49062149395961,0
1767376138.8006258,1,left_wrist,0.9087,0.3128,0.0551,37.1,-13.72,0.49,0.34302460288446557,0.6687151401224903,-0.07177831619553528,0.6557454205032974,75.34768728605592,-67.85870585007133,69.87262876580844,0
1767376138.8006258,2,right_wrist,0.9965,-0.2552,0.2167,0.0,-2.52,-0.98,-0.4669345147482337,0.5815162249101182,0.24445741709863705,0.6197189768988675,-49.62171596830916,-71.6306064600225,-69.10880542365642,0
1767376138.863522,1,left_wrist,1.3269,0.3416,0.0917,59.29,-0.77,41.79,0.29539153659920464,0.6825473986898987,-0.07566213523504603,0.6641898297466522,79.37178537894374,-72.06044517785665,69.82027148909698,0
1767376138.863522,2,right_wrist,0.9965,-0.2552,0.2167,0.0,-2.52,-0.98,-0.4691493064571139,0.5813714384960271,0.24190942521745606,0.6191817251363521,-49.9159026915157,-71.25040803120163,-68.809621779291,0
1767376138.915683,1,left_wrist,1.1531,0.2035,0.1337,-49.98,-2.59,27.51,0.3000064152399693,0.6740331930457428,-0.1015487273234551,0.6673554236435111,75.26169912070239,-73.85683353688381,71.40733895149471,0
1767376138.915683,2,right_wrist,0.9677,-0.1996,0.2045,4.34,-6.51,1.54,-0.4673172675389509,0.5812064176367508,0.2477081941399147,0.6184289143577665,-49.583664395598355,-71.87615254661485,-68.82343441131172,0
1767376138.968284,1,left_wrist,1.2205,0.1625,0.1562,26.46,-26.74,25.76,0.2812782612479525,0.6823029370116148,-0.10778923214976201,0.6661281583353292,79.23179852968218,-75.84551978552639,68.57896011583658,0
1767376138.968284,2,right_wrist,0.9433,-0.2474,0.1972,3.5,-1.4,1.12,-0.4701609723725787,0.5833578431351041,0.2457651242747537,0.6150136507433352,-51.1154359368943,-71.5580071182799,-67.17503782645873,0
1767376139.053826,1,left_wrist,1.157,0.0752,0.1752,7.28,-18.76,27.79,0.26833807057633136,0.6852714186471701,-0.1186266799096233,0.6665774324699918,81.14381148682567,-77.75160086029582,66.90880486632611,0
1767376139.053826,2,right_wrist,0.9365,-0.2445,0.1835,4.62,0.28,1.61,-0.4743076712140437,0.5824973372032741,0.24808906004443354,0.6117032805739032,-51.4729097319232,-71.43663384039097,-66.18586228434141,0
1767376139.118915,1,left_wrist,1.0238,-0.0068,0.0395,-12.25,9.52,24.08,0.26197179826727723,0.6756651236017228,-0.14135402543047973,0.6744378823549854,73.9501076203373,-80.21413068023206,72.78422110220977,0
1767376139.118915,2,right_wrist,0.9755,-0.2601,0.2255,-0.91,-3.08,0.07,-0.4754459942891201,0.5811864118755838,0.24694588860798133,0.6125285211851189,-51.009022270028744,-71.22777532298065,-66.62944471842341,0
1767376139.169837,1,left_wrist,0.9126,0.1991,0.0649,39.62,-9.03,25.27,0.24538688721890883,0.6804845728000475,-0.1348945389171895,0.6771480525944605,76.08173305687107,-81.033747006379,72.62248080795757,0
1767376139.169837,2,right_wrist,0.9716,-0.2196,0.1952,3.64,-4.13,2.17,-0.4736577158358867,0.5813137484017716,0.2519424299337657,0.6117578819658,-50.874449740266606,-71.78962641770678,-66.51144060762431,0
1767376139.2495182,1,left_wrist,0.998,0.3084,0.1083,-16.73,-10.01,-8.19,0.25529775623608497,0.6813602567280581,-0.13532004241722495,0.672502596524724,78.12838769563751,-80.24013622911377,69.6836944658795,0
1767376139.2495182,2,right_wrist,0.9658,-0.2469,0.1967,3.22,-1.26,-0.7,-0.4756531164095152,0.581631906415614,0.25359544344227525,0.6092189995022894,-51.43590190116076,-71.79216687955982,-65.59948965857485,0
1767376139.2997918,1,left_wrist,1.0233,0.059,0.0268,-22.61,2.31,-4.34,0.26008225581034594,0.6779605791173403,-0.1439686062131137,0.6723092397108161,76.12729475613965,-80.56971102611716,70.55443428608999,0
1767376139.2997918,2,right_wrist,0.9623,-0.2396,0.2176,-1.33,-7.63,0.49,-0.47529213916012697,0.5811566950015841,0.25456195755496863,0.6095510545255488,-51.16326619405332,-71.89192691258376,-65.8236198861077,0
1767376139.350111,1,left_wrist,0.977,0.2279,0.0576,-2.45,2.17,2.8,0.26343318101615765,0.6766978615990443,-0.14180559098281967,0.6727363061504873,75.15037607133685,-80.12726698286791,71.41931156552175,0
1767376139.350111,2,right_wrist,0.9653,-0.2542,0.1903,-1.68,-6.02,-0.7,-0.4743526451909166,0.5859655971020767,0.2543450288320419,0.6057577843673284,-53.41508575903886,-72.02753598883628,-63.696224110725105,0
1767376139.422965,1,left_wrist,1.0058,0.2069,0.0556,9.03,-7.35,-6.65,0.2705202326930936,0.6817593062736444,-0.13017242403131715,0.6671418080399133,79.40191526787464,-78.54726084666694,67.50985723709063,0
1767376139.422965,2,right_wrist,0.9618,-0.2669,0.2176,2.73,-0.07,-1.68,-0.47678217456445865,0.5834083238420772,0.2532652815089604,0.6067702883889018,-52.508446562322725,-71.71258391327638,-64.44221490143866,0
1767376139.500874,1,left_wrist,0.9643,0.1425,0.0307,-18.76,0.14,-5.04,0.27424339217046784,0.6794476365585816,-0.1376846708013358,0.6664716066361119,78.4109406073378,-78.86751090709575,67.55486114243804,0
1767376139.500874,2,right_wrist,0.9477,-0.2372,0.1962,4.2,-2.24,-0.84,-0.4777584817801191,0.5826785702538776,0.2558545664273049,0.6056161801771387,-52.408667980881944,-71.84784168584956,-64.21176991339925,0
1767376139.567512,1,left_wrist,1.2893,0.0961,0.203,-38.64,4.27,-54.74,0.3022921301063613,0.6761537460950521,-0.13346909814494193,0.658499490932045,77.88812598915945,-76.21269580113236,65.94839011896426,0
1767376139.567512,2,right_wrist,0.9677,-0.263,0.203,3.92,-2.45,0.49,-0.4813344022087159,0.5817496905389892,0.2540745943028416,0.6044258360940694,-52.503626049570386,-71.41264354045653,-63.899932085074845,0
1767376139.617972,1,left_wrist,1.4933,-0.0342,0.2982,-23.8,-16.1,-98.63,0.3348708137272812,0.6807930277406744,-0.11545130329706588,0.6411344539644729,81.43350969665225,-71.85699485646798,60.94308664190724,0
1767376139.617972,2,right_wrist,0.9677,-0.263,0.203,3.92,-2.45,0.49,-0.48478980457720566,0.5804810243474109,0.2525240415063226,0.6035331260269716,-52.420517222932396,-71.00046466653687,-63.75646995170138,0
1767376139.699939,1,left_wrist,1.4742,0.0771,0.1283,-52.99,-2.52,-84.42,0.3711997425416383,0.6763408871667826,-0.10876027265043396,0.6268532193236899,80.46024815425801,-68.22943583161965,59.102740794100264,0
1767376139.699939,2,right_wrist,0.9433,-0.2347,0.2054,1.47,0.28,-1.12,-0.487521324550058,0.5772505026999809,0.2534730012273911,0.6040333210099883,-51.37269855941026,-70.82225929437494,-64.42894570747751,0
1767376139.753868,1,left_wrist,1.2376,0.509,0.0659,-6.37,-4.76,-58.94,0.3897511229083431,0.6814162401227839,-0.09183808661290264,0.612643236913536,82.58602629646188,-65.02852763826773,56.58808615574306,0
1767376139.753868,2,right_wrist,0.9692,-0.266,0.1962,-3.78,-1.26,0.7,-0.485526441027341,0.5811711942372687,0.2532147912296168,0.6019853715454324,-52.900303370194635,-71.0139944897247,-63.1398993691187,0
1767376139.807961,1,left_wrist,1.0038,0.5534,0.0556,-37.38,-8.33,-33.32,0.4120342398319678,0.6791815908990796,-0.08977014968013791,0.6007341109145489,82.27301255489861,-62.8722226602587,54.91061938102004,0
1767376139.807961,2,right_wrist,0.9726,-0.3074,0.2298,-0.14,-1.05,-2.03,-0.4876050881565296,0.5806951234582367,0.2505660135634062,0.6018730135523848,-52.921721545337896,-70.62439091966445,-63.13261638091393,0
1767376139.863631,1,left_wrist,0.8686,0.7154,0.0781,-18.69,-16.31,23.45,0.4138187673581339,0.6770119468298262,-0.10455831234177218,0.5995635170289497,81.95896571209832,-63.94328933548021,53.83999111973242,0
1767376139.863631,2,right_wrist,0.9789,-0.3109,0.182,-4.41,-2.24,-3.5,-0.48594859421970116,0.5847501543784178,0.24915246789232126,0.5998702096899617,-54.52533130899115,-70.68233040079775,-61.83238377074677,0
1767376139.920115,1,left_wrist,0.5949,0.4319,0.1352,-4.13,-17.92,40.04,0.4065207847889806,0.6777161607603144,-0.11801226912793872,0.6012609760446173,82.54283177362095,-65.63244456065051,52.85821879252005,0
1767376139.920115,2,right_wrist,0.9736,-0.2025,0.2342,-0.07,-1.68,-2.87,-0.4839001625912508,0.5821739675896326,0.2523688550106509,0.6026807323332309,-53.08168273786536,-71.08008720841121,-63.20466001474841,0
1767376139.9980001,1,left_wrist,0.7701,0.6383,0.1264,-57.61,-31.57,26.6,0.41782266498760484,0.6737771608393551,-0.14322681143352026,0.5923973654908505,82.60940830506344,-66.63173339005262,49.593756931901034,0
1767376139.9980001,2,right_wrist,0.9721,-0.2064,0.2064,0.07,-2.66,-4.27,-0.4814029255617943,0.5815394767083567,0.25604547781775533,0.6037414790946481,-52.484721293924395,-71.57190007839405,-63.73785928522874,0
1767376140.051998,1,left_wrist,0.5597,0.1942,0.0459,-5.25,-5.39,38.29,0.4072096470884752,0.6698431088234051,-0.1596683625414497,0.5999971057290256,81.70010362190156,-69.04231640472435,50.1863218876942,0
1767376140.051998,2,right_wrist,0.9628,-0.2918,0.2162,0.7,-1.54,-2.8,-0.48349731201942664,0.5812675812515297,0.253764275351984,0.6032926659682413,-52.62581658176608,-71.21571721543441,-63.57852234701486,0
1767376140.1039538,1,left_wrist,0.7232,0.4387,-0.0581,-9.8,-13.23,27.51,0.4031379172237684,0.6720077198364212,-0.17031728754306635,0.5973922210246033,83.45865561707753,-70.08972684808728,47.91891423731445,0
1767376140.1039538,2,right_wrist,0.9496,-0.2045,0.2015,1.75,-2.1,-3.08,-0.4807846706019782,0.5790439673712975,0.25865569018616213,0.6055174797636937,-51.22979905441463,-71.79739852595921,-64.82279753943887,0
1767376140.167818,1,left_wrist,0.6949,0.3728,-0.0522,-13.86,-8.82,7.7,0.4037420399361631,0.6737424870602063,-0.18990878104447065,0.5890654303218928,86.42495774591411,-71.281219074507,43.2182495938113,0
1767376140.167818,2,right_wrist,0.9887,-0.2674,0.204,-1.12,-3.99,-2.52,-0.48182364865250665,0.5816904368064243,0.256334403460632,0.6031375306923115,-52.6434744518764,-71.56710310349625,-63.510000486303525,0
1767376140.2210271,1,left_wrist,0.6852,0.2752,0.0381,-10.15,20.51,-2.38,0.41210962058126965,0.6660506068287441,-0.18510665522588512,0.5935299284438056,82.34967551527099,-70.59788653889731,46.91541403381903,0
1767376140.2210271,2,right_wrist,0.9828,-0.2464,0.2123,0.56,-1.68,-2.03,-0.4809935403304296,0.5788254662063613,0.2584401421891677,0.6056525297038151,-51.15132451942139,-71.75936380536322,-64.89811049858945,0
1767376140.30379,1,left_wrist,0.7452,0.2235,-0.0649,5.81,-1.19,-12.32,0.4114083568858679,0.6705983202290489,-0.181789103566899,0.5899099750087227,84.15974674293759,-70.18032438803179,45.43673429775382,0
1767376140.30379,2,right_wrist,0.9555,-0.2245,0.2264,0.14,-4.27,-0.07,-0.4820430954630471,0.5793402605722311,0.2583548073609181,0.6043609104748635,-51.59198116790114,-71.68395614369103,-64.35655980148604,0
1767376140.368937,1,left_wrist,0.446,0.183,-0.1186,48.79,6.65,-11.41,0.39334589797881897,0.6858849905286659,-0.161017141797423,0.5906896514736966,88.80778389817688,-69.54733541333479,44.245631008101526,0
1767376140.368937,2,right_wrist,0.9448,-0.2362,0.2045,-1.33,-1.54,0.63,-0.4816566027472229,0.5771247811643689,0.25898725542711915,0.606514225325599,-50.44552651540857,-71.72358035323295,-65.48319540601261,0
1767376140.4190972,1,left_wrist,0.6783,0.4587,-0.0166,6.58,10.5,-15.68,0.39881010351323176,0.6865568117461692,-0.14947605212585927,0.5892768071302041,88.05821827768607,-68.1820029449845,45.430805150046766,0
1767376140.4190972,2,right_wrist,1.0248,-0.2708,0.2342,3.64,-1.4,1.4,-0.4849816215706208,0.575093359386414,0.25757343430263707,0.6063962241553991,-50.01348315358493,-71.31705065078117,-65.68856881855449,0
1767376140.47069,1,left_wrist,0.3543,0.3318,-0.0083,49.07,38.5,-8.82,0.3914546099996536,0.6865151718999376,-0.12406715944888694,0.6000562865327741,86.0827578010613,-67.0769537280157,50.245858828750855,0
1767376140.47069,2,right_wrist,0.9038,-0.2157,0.1967,2.24,3.99,-0.35,-0.4835808483001998,0.5716879981287661,0.2608203135402284,0.6093399379636624,-48.1830925325857,-71.61526517677363,-67.37049734401856,0
1767376140.5486999,1,left_wrist,0.7481,0.935,0.3011,20.86,32.13,-33.46,0.3984287924798949,0.6824664997626045,-0.10016250307115966,0.6045340743112102,83.46649370898596,-64.81840226903631,54.18020767816392,0
1767376140.5486999,2,right_wrist,0.9457,-0.2279,0.1806,3.36,7.42,-1.05,-0.4843416582150056,0.5738044184901695,0.26404341519782604,0.6053451266256015,-49.449612522904104,-71.89228096146229,-65.74525971943544,0
1767376140.602869,1,left_wrist,0.9658,0.325,0.1771,35.28,74.97,6.51,0.38877603571967245,0.6656644543012524,-0.08118091142538707,0.6317861093361068,76.37400899141036,-64.72078176489175,63.80362823134077,0
1767376140.602869,2,right_wrist,0.916,-0.2782,0.2201,1.12,-8.47,-1.33,-0.48610986240275267,0.5756641377427574,0.2628944645104226,0.6026562060756057,-50.66279707011835,-71.70380256772093,-64.45269659104162,0
1767376140.66758,1,left_wrist,1.039,0.2899,0.0512,0.91,-3.78,4.48,0.3749701525610592,0.6724523195960392,-0.08222356101351287,0.6328068809459166,78.40855667869343,-65.8850598866546,62.98374513909393,0
1767376140.66758,2,right_wrist,0.9833,-0.2435,0.2279,4.34,-4.41,1.68,-0.4879072835411541,0.5732644169478909,0.2643038841397995,0.6028746534375964,-49.855265769806515,-71.64520460694682,-64.94204769454167,0
1767376140.720406,1,left_wrist,1.3293,0.4792,0.164,34.51,-17.15,30.8,0.35393708539860935,0.6797278170912993,-0.08728411286202961,0.6364590465173097,80.68430027943522,-67.97556414442727,62.2506284888211,0
1767376140.720406,2,right_wrist,0.9653,-0.2577,0.1752,0.91,-3.78,2.66,-0.4876960439516326,0.5772335901084226,0.264827249895488,0.5990162592762083,-51.80809243831816,-71.77854281786367,-62.97254067681951,0
1767376140.7969651,1,left_wrist,1.2019,0.2577,0.2108,-13.65,-7.28,11.55,0.35315414430873315,0.6771509716098003,-0.09796006775396557,0.638085054778051,79.77194163253782,-68.96316432133963,62.365037459383664,0
1767376140.7969651,2,right_wrist,0.9799,-0.2762,0.2069,-1.54,-3.15,-0.77,-0.48869565910366597,0.5782762186971053,0.2629181973030695,0.5980361102722103,-52.42139836999243,-71.5561364793319,-62.42488547845546,0
1767376140.8579352,1,left_wrist,1.2737,0.2294,0.103,56.14,-12.88,22.05,0.3269349617986637,0.6873366148588371,-0.09427917875998779,0.6417112630151065,83.51035005607753,-70.6980346686875,61.31978748251259,0
1767376140.8579352,2,right_wrist,0.9579,-0.205,0.2123,0.63,-6.16,2.17,-0.4873230995666698,0.5773618975836751,0.2662899479596346,0.598547491401448,-51.87016890503108,-71.93318581442605,-62.8200949503748,0
1767376140.9200761,1,left_wrist,1.1156,0.0264,0.1371,-4.97,-36.75,22.19,0.307075951426798,0.6929024683473665,-0.11990891726011489,0.6412584354025767,87.67875209720731,-74.2175596723821,56.82774579015266,0
1767376140.9200761,2,right_wrist,0.9745,-0.2645,0.1918,0.7,-5.81,-0.07,-0.4883453553858195,0.5812858694752386,0.26511921658802795,0.5944218643499446,-53.978045312822616,-71.80467564842556,-60.713547793927255,0
1767376141.0038872,1,left_wrist,1.1575,-0.0386,0.2137,29.89,-3.71,42.77,0.28406442539140964,0.6936020711797662,-0.12722435569528429,0.6496441582898336,88.6326352127211,-76.77242594340231,57.31921915379389,0
1767376141.0038872,2,right_wrist,0.955,-0.2528,0.1996,1.89,-3.57,0.91,-0.48950484262477967,0.5782537112657004,0.26619422021150824,0.5959431949274366,-52.70594259313886,-71.77202667453076,-61.76436291041905,0
1767376141.0548239,1,left_wrist,0.9887,0.2899,0.1454,-18.62,6.72,16.66,0.2871158398475231,0.686266590851934,-0.13539308164888944,0.6544244602937246,84.36081019896595,-77.4130135184103,60.65546555834351,0
1767376141.0548239,2,right_wrist,0.9731,-0.2708,0.1889,-3.43,0.0,1.05,-0.49038059154296026,0.5817076020227977,0.2625038550515455,0.5934937803127679,-54.393833493359324,-71.42963876949828,-60.31543019412654,0
1767376141.1227012,1,left_wrist,1.0512,0.1996,0.0625,-23.38,7.63,10.36,0.2980077497923476,0.6730801719752167,-0.15855166230283396,0.6580393860085597,77.2243324343925,-78.61583793358102,64.91285535465002,0
1767376141.1227012,2,right_wrist,0.9589,-0.2216,0.2411,0.7,-5.32,0.91,-0.49035837339393,0.5801232233208432,0.26417252611985376,0.5943219563921137,-53.68897809955661,-71.55691052713019,-60.872994239828174,0
1767376141.199903,1,left_wrist,0.9921,0.1366,0.0605,-0.42,4.41,0.28,0.2958462893933232,0.6700181718427186,-0.16118037168908766,0.6614918822139173,74.67857310062631,-79.04971981195632,67.4329506674371,0
1767376141.199903,2,right_wrist,0.9472,-0.2313,0.2084,1.26,-5.39,0.42,-0.4883042752113069,0.5785993430944628,0.2698108150886013,0.5949654267621279,-52.854110367377295,-72.17440888189012,-61.42150352238747,0
1767376141.253758,1,left_wrist,1.0053,0.1181,0.0298,-7.21,1.75,-5.53,0.2963601819523186,0.6691818037064534,-0.1649137584101493,0.6611881792866576,74.35726668653312,-79.31393992681038,67.39720513446073,0
1767376141.253758,2,right_wrist,0.9599,-0.2323,0.1972,-1.4,-2.17,0.49,-0.4873328585322708,0.5765689688324779,0.27114459860104184,0.5971226974615006,-51.69717636899778,-72.3337073847987,-62.55912434258501,0
1767376141.307808,1,left_wrist,1.0214,0.0512,0.0312,-16.45,1.4,4.41,0.2966715454135081,0.6659593379527657,-0.17434749009884515,0.661881490171547,72.37843491316897,-80.07034136290716,68.5597751457384,0
1767376141.307808,2,right_wrist,0.9618,-0.2752,0.2162,1.68,-3.92,1.82,-0.4905081899195401,0.5768373466380955,0.26868551386209943,0.5953725604913597,-52.29401138747195,-71.88809277404805,-61.84694100162199,0
1767376141.365025,1,left_wrist,1.0331,0.0805,0.082,-14.28,-8.89,-6.09,0.30806816647950125,0.6706980659190953,-0.1752640806748652,0.651567810131484,78.11795430414602,-79.11163992101523,61.72396053977458,0
1767376141.365025,2,right_wrist,0.9423,-0.2494,0.2201,1.33,-3.29,-0.35,-0.4920962166883518,0.5750988958460442,0.26824457822123327,0.5959424634749434,-51.6852380374822,-71.70556849641103,-62.324560526303436,0
1767376141.4208798,1,left_wrist,0.956,0.3348,0.0381,-14.42,-7.14,-19.95,0.3204984595798147,0.6731663570913223,-0.1709901761806028,0.6441196726828723,80.53364433040362,-77.63507836244223,58.54456174804045,0
1767376141.4208798,2,right_wrist,0.9531,-0.3099,0.1518,-11.06,17.15,-2.03,-0.49142627216953333,0.5757323813371931,0.26062561416754687,0.59925514878151,-51.55930198565766,-71.11634678963347,-63.19806995514826,0
1767376141.503704,1,left_wrist,0.9799,0.2372,0.0415,-32.55,-9.94,-10.36,0.3354837178235805,0.6721197629111523,-0.17497182455177523,0.6364672497407446,81.21325910613274,-76.64679548302453,56.16707085320931,0
1767376141.503704,2,right_wrist,0.9301,-0.2713,0.246,8.4,-14.35,-2.73,-0.4932991493088041,0.5772565292085128,0.25610523111289707,0.5981980937565426,-52.43519258707043,-70.61343106985896,-62.526177762842316,0
1767376141.571687,1,left_wrist,0.9126,0.246,0.0312,-20.23,-9.1,-10.08,0.34729264925534203,0.6756009327430065,-0.16830032233384293,0.6281928023722576,83.25818450123926,-74.95322627094528,53.58858783617311,0
1767376141.571687,2,right_wrist,0.9301,-0.2713,0.246,8.4,-14.35,-2.73,-0.4949289076857106,0.576689899853332,0.26036146126101345,0.5955552411273142,-52.60769565906683,-70.84287709498741,-61.80405172607268,0
1767376141.653773,1,left_wrist,1.0214,0.3172,0.0683,3.29,3.43,-8.89,0.3518618086667218,0.6744893112083956,-0.1615393980536262,0.6286194870856926,82.04696060157536,-74.08579089015198,54.945959922689596,0
1767376141.653773,2,right_wrist,0.935,-0.2621,0.1459,0.49,-2.17,6.09,-0.49185698066530925,0.5785530178954847,0.26014814365713596,0.5963858309907931,-52.97829415476427,-71.08367100111931,-61.780157347298655,0
1767376141.7158551,1,left_wrist,0.835,0.1932,0.022,1.19,5.6,3.29,0.3489834807415169,0.6707863135510517,-0.15864668273443708,0.6348917087027395,79.43426436561423,-74.25596290225897,58.07490320752385,0
1767376141.7158551,2,right_wrist,0.9882,-0.2582,0.1996,6.58,1.75,2.03,-0.49141911745801686,0.576446062674882,0.26465346959283576,0.5968045985545718,-52.071098411274065,-71.47098909975134,-62.331376837614265,0
1767376141.768626,1,left_wrist,0.8852,0.1918,0.0068,-7.42,8.47,7.35,0.3467228163456551,0.6680357336391434,-0.16444882129350313,0.6375485333539135,78.11372151730087,-74.98249820674287,59.12289835193103,0
1767376141.768626,2,right_wrist,0.9165,-0.1269,0.2079,10.85,-10.08,2.38,-0.4916924497947317,0.574745673292522,0.27202972080370624,0.5948998040391662,-51.61516735656484,-72.05302581910885,-62.099628128824115,0
1767376141.8203561,1,left_wrist,1.0648,0.2274,0.1488,-21.56,-0.49,2.66,0.35220330928391963,0.6620786699112375,-0.17201590638733194,0.6387606685823469,75.42493773146026,-75.23714030025536,60.67763547270201,0
1767376141.8203561,2,right_wrist,0.9423,-0.0703,0.224,-2.24,-5.67,1.33,-0.48900688111565505,0.5745008525811479,0.27516845799229045,0.5959054961411405,-51.14278429410252,-72.51868602903997,-62.57500705243152,0
1767376141.901699,1,left_wrist,1.3288,0.0015,0.245,14.77,7.98,-9.45,0.3494578431799237,0.660736617608066,-0.1663167192959944,0.6431524600547723,73.90231813908579,-75.04973469758963,62.93351929664603,0
1767376141.901699,2,right_wrist,0.9209,-0.2547,0.2084,-3.01,1.61,1.33,-0.49317930795014786,0.5746695174696312,0.2675459019237185,0.5957753823924402,-51.63440729822906,-71.55795194058562,-62.32226081406692,0
1767376141.951775,1,left_wrist,1.3166,-0.0015,0.303,-11.2,14.84,-25.34,0.35951494956856594,0.6544204989978125,-0.16194003848226773,0.6451807773519972,70.81478094193233,-73.92059687401196,65.45973235140376,0
1767376141.951775,2,right_wrist,0.9272,-0.2752,0.2069,4.34,-0.49,1.61,-0.4974520673072108,0.57420267248982,0.26476486262643123,0.5939127033123113,-52.033061825199,-70.99113292517788,-61.71655249683667,0
1767376142.002829,1,left_wrist,1.3796,0.1327,0.2884,-18.9,22.05,-43.19,0.37735406287410356,0.6458121875573589,-0.15344348719565018,0.6457442418419416,67.67594392326335,-71.78019814535622,67.64117108952719,0
1767376142.002829,2,right_wrist,0.936,-0.2826,0.1962,3.71,1.47,-1.61,-0.5002503826546633,0.574880036446499,0.2625571788091673,0.5918836255590334,-52.73238256147778,-70.59830287863157,-60.91584863681774,0
1767376142.0692658,1,left_wrist,1.1419,0.2015,-0.0454,-13.58,-8.33,-12.25,0.4053654205051549,0.6453515358561017,-0.14509731626595612,0.6309889379690161,69.82892901610843,-68.75733006151634,63.511732090560656,0
1767376142.0692658,2,right_wrist,0.9897,-0.2542,0.2552,1.12,7.63,-0.07,-0.5019329567281555,0.569740117426578,0.261294278992725,0.595973829383936,-50.564405210021384,-70.28883170535772,-63.007695980894816,0
1767376142.121721,1,left_wrist,1.1141,0.5466,0.103,-48.02,-10.71,2.03,0.41937880492103485,0.641553804016379,-0.15777257462161937,0.6226057735295939,69.60363228563189,-68.62314785825377,61.3182815386419,0
1767376142.121721,2,right_wrist,0.9501,-0.2923,0.2274,0.91,4.83,-2.17,-0.5049145454109167,0.5684537351776641,0.2573109627148579,0.5964165668907954,-50.35819025087778,-69.70356936119263,-63.24485821287025,0
1767376142.2006028,1,left_wrist,0.9858,0.4778,0.1093,-6.51,3.57,15.61,0.4193056324277521,0.6401075816173736,-0.16005465203110633,0.6235604052002675,69.02177969892156,-68.83033325996554,61.717668043451354,0
1767376142.2006028,2,right_wrist,0.937,-0.3206,0.2255,5.18,2.52,-0.63,-0.509133123500414,0.5643321394704505,0.25645257038076236,0.5971137061402262,-49.21649141992705,-69.24073500764388,-64.0004771514006,0
1767376142.25482,1,left_wrist,0.873,0.5026,0.1049,-12.81,-7.49,32.97,0.4158212963090806,0.6388573179142747,-0.17062453208105297,0.6243726819258968,68.47797369195928,-69.99600019208911,61.71650473962056,0
1767376142.25482,2,right_wrist,0.9633,-0.2869,0.2225,6.65,-4.2,0.07,-0.5099427510842188,0.566948686007411,0.258708340065141,0.5929566365526809,-50.55794307374046,-69.42367794718956,-62.378431350309185,0
1767376142.3156,1,left_wrist,0.7159,0.266,0.245,-45.5,0.56,25.69,0.4243891095249496,0.6189410403104721,-0.20505797848826188,0.6282969821623515,60.778596659660415,-72.13954677409005,65.66373265222745,0
1767376142.3156,2,right_wrist,0.9623,-0.2401,0.2152,3.64,-3.36,1.96,-0.5082102448064387,0.5667371964000214,0.2636443217156322,0.5924719140326634,-50.3355980762477,-69.9719778432454,-62.34940969044879,0
1767376142.3658938,1,left_wrist,0.6749,0.3089,0.0874,15.75,-5.53,24.64,0.41513288721448277,0.6230044506645964,-0.20514743192074567,0.6304321308288429,61.64501877681346,-72.91129037601155,65.69670287070362,0
1767376142.3658938,2,right_wrist,0.9067,-0.2884,0.2318,6.79,-1.75,-1.61,-0.5120245536463571,0.5652263961320632,0.26268897896475346,0.5910537013751491,-50.26384968985333,-69.58073303705716,-62.09157855862261,0
1767376142.417813,1,left_wrist,0.7286,0.3636,0.0371,-33.32,-4.2,12.04,0.4220917054475756,0.6194483499813416,-0.21568893186361646,0.6257800081252858,61.12233111315872,-73.20759552242104,64.6364656570399,0
1767376142.417813,2,right_wrist,0.9243,-0.263,0.2196,0.84,-3.85,-2.31,-0.5085613084452387,0.5647250291086019,0.2680467888786456,0.5921165054468609,-49.62859196228396,-70.28843313907358,-62.62309285830284,0
1767376142.502992,1,left_wrist,0.6886,0.123,0.0029,-19.46,-4.55,7.63,0.4224668174879922,0.6182560294783591,-0.22614822184786895,0.62300742522884,61.0245132915377,-74.0363622787006,63.79737122005832,0
1767376142.502992,2,right_wrist,0.9233,-0.2259,0.2625,-1.75,-2.24,-2.52,-0.5093032808467758,0.5645531942972329,0.26735578551445716,0.5919550176148933,-49.65494615577486,-70.1712283314928,-62.577975704079144,0
1767376142.5700321,1,left_wrist,0.7793,0.3011,0.1596,-13.72,6.93,3.92,0.4325284086236065,0.6049191198673665,-0.23578893107003493,0.6256161875601298,55.48767707573065,-73.91778937141856,67.49857390217748,0
1767376142.5700321,2,right_wrist,0.9506,-0.2572,0.2098,8.26,-3.15,-0.35,-0.5088953628734002,0.565545617055628,0.27225004992194085,0.5891210189703131,-50.23196502885961,-70.63807745654329,-61.61041761238087,0
1767376142.622427,1,left_wrist,0.8106,0.1728,0.0639,-10.71,18.27,-5.25,0.43679140266230493,0.6006860910247415,-0.23557711345878454,0.6268117055576891,53.890155506626094,-73.50212383901405,68.68592213346423,0
1767376142.622427,2,right_wrist,0.9536,-0.2279,0.2357,3.71,-2.31,2.17,-0.5095808108354755,0.5625886323225775,0.2746447774576414,0.5902471297896447,-49.05979775185102,-70.74149449790339,-62.48859487918524,0
1767376142.7010062,1,left_wrist,0.9145,0.1127,0.0517,18.27,1.12,2.52,0.4287393285286136,0.6048454667147612,-0.23399165438612424,0.6289614099808357,54.698732961362076,-74.04789340655847,68.81693355887558,0
1767376142.7010062,2,right_wrist,0.9296,-0.2484,0.2245,-1.68,-0.84,0.49,-0.5134984303676396,0.5590989141858452,0.2724703248989539,0.5911748372652862,-48.07529734415975,-70.19929274616177,-63.236014939759926,0
1767376142.774168,1,left_wrist,0.7193,0.2582,-0.0142,35.56,-25.34,-16.66,0.41688962897010384,0.6320351928798653,-0.21574983523048738,0.6165927025326349,67.52040441012159,-73.59803946271316,58.739872250526304,0
1767376142.774168,2,right_wrist,1.0189,-0.2762,0.2542,1.47,-2.59,0.77,-0.5157550407389155,0.557516942214488,0.27116371357212243,0.5913051983011673,-47.724528737772765,-69.88986311415503,-63.45484185932611,0
1767376142.8474398,1,left_wrist,0.2591,0.2723,0.0586,18.06,9.45,-42.28,0.4268464321470886,0.6372918268595041,-0.19399629429217266,0.6115772139168378,69.86880459488985,-70.929905035323,57.26505192563662,0
1767376142.8474398,2,right_wrist,0.9906,-0.3006,0.2103,-3.15,-13.86,1.96,-0.5102854452378264,0.5663819697611282,0.27358934665654955,0.5864887877052556,-50.93143096261864,-70.66012002678104,-60.642420454658605,0
1767376142.9018,1,left_wrist,0.4597,0.4177,0.1176,37.17,-3.29,-46.06,0.4311912601136315,0.6490406522875315,-0.16830626760186837,0.603732829292662,74.2059667022031,-68.254504387024,54.648423476944394,0
1767376142.9018,2,right_wrist,0.9711,-0.2167,0.2425,2.66,-6.23,0.98,-0.5096729362869692,0.5645876004623557,0.27720062446037075,0.5870554941566929,-50.13634776064412,-70.9882550206298,-61.177057248018485,0
1767376142.967479,1,left_wrist,1.3069,0.4436,0.3562,31.92,25.76,-11.2,0.4120197863481604,0.6644711330235828,-0.1264558189357609,0.610513500991795,77.803728542723,-66.2827865738901,56.403821440821645,0
1767376142.967479,2,right_wrist,0.9121,-0.2167,0.245,1.33,1.05,-0.49,-0.5105145186976979,0.5610316951058685,0.27753965850507334,0.5895677240507496,-48.609348101090504,-70.89290927325727,-62.57557956440377,0
1767376143.0514681,1,left_wrist,1.1341,0.4665,0.2621,43.47,38.22,8.68,0.4000922446081272,0.6588303033193708,-0.11024863276283378,0.6274663865152158,74.53512833132508,-66.20671908741588,62.18326081714376,0
1767376143.0514681,2,right_wrist,0.9623,-0.284,0.2508,4.13,-2.59,2.03,-0.5166044084265868,0.5592883573303524,0.2743759288553869,0.5873961765398852,-48.78326606289372,-70.1416506156833,-62.021090268664295,0
1767376143.1170418,1,left_wrist,1.2629,-0.0732,0.2547,47.32,-40.67,27.93,0.363765494151128,0.6729664948571289,-0.10486559632579406,0.635447848978916,78.5397955160437,-68.67981434330656,62.04848840789202,0
1767376143.1170418,2,right_wrist,1.0072,-0.325,0.2064,3.36,-2.45,1.61,-0.5181518045648901,0.56236035124268,0.2737667470976166,0.5833706462961153,-50.43437864861989,-70.02378327739746,-60.26189006363292,0
1767376143.1695821,1,left_wrist,1.3493,0.4621,0.3728,39.13,5.53,22.4,0.34695289744821584,0.6739889415250938,-0.09975513673239714,0.6445242480695915,78.08107557965997,-69.72249922853545,64.48649405549489,0
1767376143.1695821,2,right_wrist,0.9316,-0.2826,0.2674,1.12,-4.27,-0.14,-0.519962535063772,0.5612819674485278,0.27288691220378564,0.583210295086643,-50.215839658591186,-69.79664219550416,-60.359432928594444,0
1767376143.249758,1,left_wrist,1.056,0.2128,0.1527,-40.04,-6.58,18.69,0.3513174817559113,0.6669597064731618,-0.12023194807131475,0.6459760487950736,75.43241653850484,-71.11305898162985,65.0554205829651,0
1767376143.249758,2,right_wrist,0.9594,-0.2884,0.2425,3.01,2.59,0.07,-0.5213827986251892,0.5619049453497528,0.2744782282052992,0.5805897966124932,-50.81126817298237,-69.83254544912987,-59.466648137014474,0
1767376143.30237,1,left_wrist,1.2537,0.2196,0.1288,12.6,-18.48,16.38,0.33934472909058283,0.6720483919798039,-0.12769580178380327,0.6456701138217489,77.58835404646501,-72.65153532025053,63.379818006146074,0
1767376143.30237,2,right_wrist,0.9345,-0.3094,0.1981,-0.14,2.59,-0.77,-0.5225117842834596,0.5640405631925655,0.2718625898710033,0.5787317259205337,-51.84130055508621,-69.54700003728681,-58.55011677696691,0
1767376143.3757188,1,left_wrist,1.0951,-0.0654,0.1454,44.1,-35.49,23.94,0.3128261318887254,0.6856239574680952,-0.14121037712038073,0.6419651310989135,85.39247098023911,-75.61354823725499,56.8460726655087,0
1767376143.3757188,2,right_wrist,0.9697,-0.2952,0.243,2.24,-2.8,-0.28,-0.5249181465449656,0.5625057235743023,0.270702957696003,0.5785915304155295,-51.49352613335861,-69.24687497738721,-58.734806491309385,0
1767376143.4540238,1,left_wrist,1.1531,0.1054,0.1991,-3.64,-5.25,39.55,0.30147323185582586,0.681711648170528,-0.15637382673378575,0.6480203280265655,84.07277003038472,-77.90760671844242,57.92849185538668,0
1767376143.4540238,2,right_wrist,0.957,-0.223,0.2284,-0.98,-3.92,-1.68,-0.5216362955811964,0.5597098037966697,0.27596905670229205,0.5817745185284995,-49.924029242414775,-69.91109064356478,-60.18858058097511,0
1767376143.518446,1,left_wrist,0.9955,0.0142,0.1069,13.23,0.35,22.26,0.2960469203110187,0.6717798189986808,-0.17743448434848802,0.6554274174341863,78.21568476071192,-80.28648188134552,62.51658057125055,0
1767376143.518446,2,right_wrist,0.9526,-0.2991,0.2186,0.14,0.63,-1.4,-0.5231196717591725,0.5617824416098481,0.27326467023325196,0.5797177911016405,-50.99205920834147,-69.594874149494,-59.203703718812946,0
1767376143.601995,1,left_wrist,1.0024,0.2225,0.0795,-12.11,-2.38,4.06,0.30105122559970043,0.6693187545668812,-0.1796769543769295,0.655054773599726,76.75253661158588,-80.08518090931295,63.347152960527666,0
1767376143.601995,2,right_wrist,0.9399,-0.3436,0.1845,-1.96,-0.42,-1.68,-0.524940038934237,0.5613271250836059,0.27085774660933115,0.579642903235096,-50.98210769330299,-69.24539331155925,-59.22829200018041,0
1767376143.653017,1,left_wrist,0.9858,0.0468,0.1157,4.2,-1.12,6.93,0.2961484068832815,0.6673446170154108,-0.18271449601100603,0.6584547791522916,74.6220081022394,-80.77046527007164,65.659763537175,0
1767376143.653017,2,right_wrist,0.9965,-0.283,0.2567,-2.31,-6.93,-1.68,-0.523717774541457,0.5604605677525707,0.2723679525304575,0.5808780793403865,-50.460135564888226,-69.45655824026136,-59.748181173878834,0
1767376143.703101,1,left_wrist,0.9945,0.121,0.0722,9.03,-0.07,6.16,0.29050178696682666,0.665535374032406,-0.18359642126511766,0.6625433810546049,71.95756273303337,-81.32594899621901,68.75129089666808,0
1767376143.703101,2,right_wrist,0.9467,-0.2523,0.243,-3.01,-2.03,-1.75,-0.5219895046840115,0.5584264339550602,0.27376015690037897,0.5837313177771559,-49.31407823400177,-69.67572377139766,-60.95550402237574,0
1767376143.765635,1,left_wrist,0.9848,0.1947,0.0449,-10.85,-3.85,-7.0,0.2998226412542169,0.6685236576069309,-0.18367075876241226,0.6553224819787857,76.42095532114448,-80.51697928103802,63.452764439802735,0
1767376143.765635,2,right_wrist,0.9457,-0.3401,0.2216,1.12,-1.68,-2.1,-0.5234793849925709,0.5605684529952352,0.27175285130015286,0.5812768108264473,-50.44205260506548,-69.42368755305861,-59.84778129218807,0
1767376143.818198,1,left_wrist,0.9994,0.1659,0.0371,8.26,-3.5,-4.55,0.3001902898594851,0.6732471185833435,-0.1782101900257898,0.6518168725679596,80.11281480863484,-79.95189081519476,60.18401302584119,0
1767376143.818198,2,right_wrist,0.9448,-0.2108,0.2713,0.63,-3.29,-0.35,-0.5227233343271669,0.5582311171612513,0.27417142676123774,0.5830680614906782,-49.369487125626776,-69.65317290941148,-60.78234435679613,0
1767376143.869343,1,left_wrist,1.0219,0.2045,0.0239,-8.75,-3.57,-8.89,0.30754536991873044,0.6755466615139006,-0.17556545568077345,0.6467065210206073,82.255708953677,-79.03680438171254,57.602779535863036,0
1767376143.869343,2,right_wrist,0.9204,-0.285,0.203,-3.99,-3.64,0.42,-0.521830347715949,0.5631415777507747,0.2724829500225659,0.5799290418301362,-51.353121565308435,-69.64312030374457,-59.05644244788752,0
1767376143.9194229,1,left_wrist,1.0292,0.1679,0.0098,-1.82,-7.49,-15.4,0.3087174036149816,0.6794391745635677,-0.17564268096945504,0.6420324145987213,85.57101299484505,-78.78134209531021,54.17010129847143,0
1767376143.9194229,2,right_wrist,0.9862,-0.3231,0.2518,-0.56,-4.69,0.35,-0.5239592390684936,0.5642577286141951,0.26983306754293385,0.5781609180446956,-52.075561693980426,-69.26478305873387,-58.338598023705856,0
1767376143.971044,1,left_wrist,1.0433,0.0849,0.0756,10.92,-9.38,-11.55,0.3060819230839449,0.6823325016173707,-0.1727988228743074,0.6409967085805266,87.3365465018436,-78.67438725697927,52.875530714965755,0
1767376143.971044,2,right_wrist,0.9506,-0.2001,0.2133,-4.62,-7.07,-0.98,-0.519350294092417,0.5653966752210431,0.27408934162305226,0.5792036813451308,-52.048135289798516,-69.99393843815544,-58.492284431003846,0
1767376144.0515509,1,left_wrist,1.0551,0.06,0.0883,-1.68,-10.36,-4.55,0.30523484712933824,0.683255044881946,-0.17561047405389307,0.6396524002486558,88.61675114824938,-78.90109146320879,51.43325039949363,0
1767376144.0515509,2,right_wrist,0.9677,-0.2323,0.2274,0.07,-3.29,-2.94,-0.5166458213767751,0.5609736988822821,0.2798742588124607,0.5831432102583582,-49.80568937492559,-70.63886270483215,-60.50399117782982,0
1767376144.118903,1,left_wrist,0.9404,0.0825,0.0381,8.82,-10.01,4.62,0.2957056746220164,0.6868359172343869,-0.18052900722265217,0.6389239816631868,92.82752989102485,-79.87898145765146,47.654230299087956,0
1767376144.118903,2,right_wrist,0.914,-0.2386,0.2313,6.93,0.35,-1.89,-0.5189084794146986,0.5563000040549081,0.2814714916047291,0.5848402302286012,-48.10057055480974,-70.52879496044433,-61.80885265547263,0
1767376144.206536,1,left_wrist,0.9331,0.1723,0.0176,2.73,-7.42,1.26,0.29549085157777877,0.6869376864368267,-0.1799459514269159,0.639078419406978,92.77452262800412,-79.85295837556944,47.77536717389147,0
1767376144.206536,2,right_wrist,0.9697,-0.2289,0.2391,4.9,-1.54,1.68,-0.517599251440459,0.5522427443903787,0.2887307262332376,0.5863049836947375,-46.22839387759634,-71.16619609722116,-63.15865178839665,0
1767376144.265616,1,left_wrist,0.9833,0.2011,0.0454,10.71,-4.27,2.94,0.29267781821253774,0.6862054799099846,-0.18173618422623372,0.6406509918908616,92.64949718847872,-80.27055238586188,48.00175286136196,0
1767376144.265616,2,right_wrist,0.9262,-0.2679,0.222,5.6,2.45,0.28,-0.521720684794923,0.5520759817203106,0.2860196780010268,0.584133872721708,-46.84536480784647,-70.63360722410849,-62.33600507357178,0
1767376144.318146,1,left_wrist,0.9658,0.041,0.1137,-8.61,-2.66,-0.49,0.2941955306950319,0.6834932069684819,-0.1857468177719095,0.6417040949180687,91.16473185524744,-80.57211161281734,49.017866731210574,0
1767376144.318146,2,right_wrist,0.9496,-0.2499,0.2523,-1.05,-5.18,2.1,-0.5232480996322533,0.5518002893367198,0.28450203593657303,0.583769182526016,-46.948372898554645,-70.3864862107155,-62.20183085029712,0
1767376144.396933,1,left_wrist,1.0233,-0.1732,0.1391,8.12,4.76,11.83,0.2867318615472525,0.6803098881819731,-0.18880401763290078,0.6475463987554512,88.79496069102866,-81.62527993583691,51.797811312429495,0
1767376144.396933,2,right_wrist,0.9516,-0.2469,0.243,1.4,-4.83,2.38,-0.5246368119804852,0.5543454920740605,0.2839394756054529,0.5803754518628618,-48.35498886778309,-70.2858445268046,-60.69939833948424,0
1767376144.448253,1,left_wrist,1.0912,-0.1298,0.103,-28.77,10.43,19.74,0.28816683121212355,0.6701692633318966,-0.20412066869015918,0.652815278993858,81.2561447737425,-83.04193470038263,57.9230105787639,0
1767376144.448253,2,right_wrist,0.9335,-0.3231,0.2176,1.54,2.73,-1.47,-0.5269947970280314,0.5553045378206227,0.280838433253065,0.5788291013668648,-49.079030917152096,-69.85992277947712,-59.997108556687664,0
1767376144.502292,1,left_wrist,1.0594,-0.083,0.0961,-29.89,9.45,31.57,0.2863765289804471,0.6587429712930438,-0.223253277577802,0.6589416935297782,68.67506856764021,-84.88349437993578,69.03582019536567,0
1767376144.502292,2,right_wrist,0.9618,-0.2821,0.2411,3.22,2.1,-0.14,-0.5307209076563386,0.5537785947780339,0.2777011827100807,0.5784000685196368,-48.91362290788078,-69.28878137205328,-60.029585066964934,0
1767376144.5710132,1,left_wrist,1.1004,-0.1044,0.0795,-12.53,17.08,67.62,0.2720870538843863,0.6296846610508979,-0.2678989049407731,0.6765323639540575,-17.351427293432465,-86.18816039224448,152.43133635300893,0
1767376144.5710132,2,right_wrist,0.9287,-0.2425,0.2206,5.88,3.5,1.19,-0.5301291002678502,0.5513560907124144,0.2817673125326794,0.5792898927753138,-47.90134184961257,-69.64181402308263,-60.73577193001571,0
