timestamp,node_id,node_name,ax,ay,az,gx,gy,gz,qw,qx,qy,qz,roll,pitch,yaw,rep_number
1767131134.853,1,left_wrist,-0.0771,0.12,-0.975,1.4,-5.04,17.78,0.034935953477991305,0.8736407133245881,-0.4805287322395918,-0.06799647541232581,172.71221851445264,4.889453294679771,-57.935807135297,1
1767131134.853,2,right_wrist,-0.1347,0.0244,-0.9609,0.98,-2.59,-0.42,0.05341310117783022,0.7648409639134822,0.640286813093164,-0.04688429930650529,178.74614633717908,8.054644016515232,79.78050623922432,1
1767131134.876,1,left_wrist,-0.0771,0.12,-0.975,1.4,-5.04,17.78,0.034935953477991305,0.8736407133245881,-0.4805287322395918,-0.06799647541232581,172.71221851445264,4.889453294679771,-57.935807135297,1
1767131134.876,2,right_wrist,-0.1347,0.0244,-0.9609,0.98,-2.59,-0.42,0.05341310117783022,0.7648409639134822,0.640286813093164,-0.04688429930650529,178.74614633717908,8.054644016515232,79.78050623922432,1
1767131134.9,1,left_wrist,-0.0771,0.12,-0.975,1.4,-5.04,17.78,0.034935953477991305,0.8736407133245881,-0.4805287322395918,-0.06799647541232581,172.71221851445264,4.889453294679771,-57.935807135297,1
1767131134.9,2,right_wrist,-0.1347,0.0244,-0.9609,0.98,-2.59,-0.42,0.05341310117783022,0.7648409639134822,0.640286813093164,-0.04688429930650529,178.74614633717908,8.054644016515232,79.78050623922432,1
1767131134.926,1,left_wrist,-0.0771,0.12,-0.975,1.4,-5.04,17.78,0.034935953477991305,0.8736407133245881,-0.4805287322395918,-0.06799647541232581,172.71221851445264,4.889453294679771,-57.935807135297,1
1767131134.926,2,right_wrist,-0.1347,0.0244,-0.9609,0.98,-2.59,-0.42,0.05341310117783022,0.7648409639134822,0.640286813093164,-0.04688429930650529,178.74614633717908,8.054644016515232,79.78050623922432,1
1767131134.954,1,left_wrist,-0.0771,0.12,-0.975,1.4,-5.04,17.78,0.034935953477991305,0.8736407133245881,-0.4805287322395918,-0.06799647541232581,172.71221851445264,4.889453294679771,-57.935807135297,1
1767131134.954,2,right_wrist,-0.1347,0.0244,-0.9609,0.98,-2.59,-0.42,0.05341310117783022,0.7648409639134822,0.640286813093164,-0.04688429930650529,178.74614633717908,8.054644016515232,79.78050623922432,1
1767131134.983,1,left_wrist,-0.0771,0.12,-0.975,1.4,-5.04,17.78,0.034935953477991305,0.8736407133245881,-0.4805287322395918,-0.06799647541232581,172.71221851445264,4.889453294679771,-57.935807135297,1
1767131134.983,2,right_wrist,-0.1347,0.0244,-0.9609,0.98,-2.59,-0.42,0.05341310117783022,0.7648409639134822,0.640286813093164,-0.04688429930650529,178.74614633717908,8.054644016515232,79.78050623922432,1
1767131135.012,1,left_wrist,-0.0771,0.12,-0.975,1.4,-5.04,17.78,0.034935953477991305,0.8736407133245881,-0.4805287322395918,-0.06799647541232581,172.71221851445264,4.889453294679771,-57.935807135297,1
1767131135.012,2,right_wrist,-0.1347,0.0244,-0.9609,0.98,-2.59,-0.42,0.05341310117783022,0.7648409639134822,0.640286813093164,-0.04688429930650529,178.74614633717908,8.054644016515232,79.78050623922432,1
1767131135.034,1,left_wrist,-0.0771,0.12,-0.975,1.4,-5.04,17.78,0.034935953477991305,0.8736407133245881,-0.4805287322395918,-0.06799647541232581,172.71221851445264,4.889453294679771,-57.935807135297,1
1767131135.034,2,right_wrist,-0.1347,0.0244,-0.9609,0.98,-2.59,-0.42,0.05341310117783022,0.7648409639134822,0.640286813093164,-0.04688429930650529,178.74614633717908,8.054644016515232,79.78050623922432,1
1767131135.056,1,left_wrist,-0.0771,0.12,-0.975,1.4,-5.04,17.78,0.034935953477991305,0.8736407133245881,-0.4805287322395918,-0.06799647541232581,172.71221851445264,4.889453294679771,-57.935807135297,1
1767131135.056,2,right_wrist,-0.1347,0.0244,-0.9609,0.98,-2.59,-0.42,0.05341310117783022,0.7648409639134822,0.640286813093164,-0.04688429930650529,178.74614633717908,8.054644016515232,79.78050623922432,1
1767131135.112,1,left_wrist,-0.0771,0.12,-0.975,1.4,-5.04,17.78,0.034935953477991305,0.8736407133245881,-0.4805287322395918,-0.06799647541232581,172.71221851445264,4.889453294679771,-57.935807135297,1
1767131135.112,2,right_wrist,-0.1347,0.0244,-0.9609,0.98,-2.59,-0.42,0.05341310117783022,0.7648409639134822,0.640286813093164,-0.04688429930650529,178.74614633717908,8.054644016515232,79.78050623922432,1
1767131135.127,1,left_wrist,-0.0771,0.12,-0.975,1.4,-5.04,17.78,0.034935953477991305,0.8736407133245881,-0.4805287322395918,-0.06799647541232581,172.71221851445264,4.889453294679771,-57.935807135297,1
1767131135.127,2,right_wrist,-0.1347,0.0244,-0.9609,0.98,-2.59,-0.42,0.05341310117783022,0.7648409639134822,0.640286813093164,-0.04688429930650529,178.74614633717908,8.054644016515232,79.78050623922432,1
1767131135.141,1,left_wrist,-0.0771,0.12,-0.975,1.4,-5.04,17.78,0.034935953477991305,0.8736407133245881,-0.4805287322395918,-0.06799647541232581,172.71221851445264,4.889453294679771,-57.935807135297,1
1767131135.141,2,right_wrist,-0.1347,0.0244,-0.9609,0.98,-2.59,-0.42,0.05341310117783022,0.7648409639134822,0.640286813093164,-0.04688429930650529,178.74614633717908,8.054644016515232,79.78050623922432,1
1767131135.158,1,left_wrist,-0.0771,0.12,-0.975,1.4,-5.04,17.78,0.034935953477991305,0.8736407133245881,-0.4805287322395918,-0.06799647541232581,172.71221851445264,4.889453294679771,-57.935807135297,1
1767131135.158,2,right_wrist,-0.1347,0.0244,-0.9609,0.98,-2.59,-0.42,0.05341310117783022,0.7648409639134822,0.640286813093164,-0.04688429930650529,178.74614633717908,8.054644016515232,79.78050623922432,1
1767131135.175,1,left_wrist,-0.0771,0.12,-0.975,1.4,-5.04,17.78,0.034935953477991305,0.8736407133245881,-0.4805287322395918,-0.06799647541232581,172.71221851445264,4.889453294679771,-57.935807135297,1
1767131135.175,2,right_wrist,-0.1347,0.0244,-0.9609,0.98,-2.59,-0.42,0.05341310117783022,0.7648409639134822,0.640286813093164,-0.04688429930650529,178.74614633717908,8.054644016515232,79.78050623922432,1
1767131135.191,1,left_wrist,-0.0771,0.12,-0.975,1.4,-5.04,17.78,0.034935953477991305,0.8736407133245881,-0.4805287322395918,-0.06799647541232581,172.71221851445264,4.889453294679771,-57.935807135297,1
1767131135.191,2,right_wrist,-0.1347,0.0244,-0.9609,0.98,-2.59,-0.42,0.05341310117783022,0.7648409639134822,0.640286813093164,-0.04688429930650529,178.74614633717908,8.054644016515232,79.78050623922432,1
1767131135.209,1,left_wrist,-0.0771,0.12,-0.975,1.4,-5.04,17.78,0.034935953477991305,0.8736407133245881,-0.4805287322395918,-0.06799647541232581,172.71221851445264,4.889453294679771,-57.935807135297,1
1767131135.209,2,right_wrist,-0.1347,0.0244,-0.9609,0.98,-2.59,-0.42,0.05341310117783022,0.7648409639134822,0.640286813093164,-0.04688429930650529,178.74614633717908,8.054644016515232,79.78050623922432,1
1767131135.229,1,left_wrist,-0.0771,0.12,-0.975,1.4,-5.04,17.78,0.034935953477991305,0.8736407133245881,-0.4805287322395918,-0.06799647541232581,172.71221851445264,4.889453294679771,-57.935807135297,1
1767131135.229,2,right_wrist,-0.1347,0.0244,-0.9609,0.98,-2.59,-0.42,0.05341310117783022,0.7648409639134822,0.640286813093164,-0.04688429930650529,178.74614633717908,8.054644016515232,79.78050623922432,1
1767131135.246,1,left_wrist,-0.0771,0.12,-0.975,1.4,-5.04,17.78,0.034935953477991305,0.8736407133245881,-0.4805287322395918,-0.06799647541232581,172.71221851445264,4.889453294679771,-57.935807135297,1
1767131135.246,2,right_wrist,-0.1347,0.0244,-0.9609,0.98,-2.59,-0.42,0.05341310117783022,0.7648409639134822,0.640286813093164,-0.04688429930650529,178.74614633717908,8.054644016515232,79.78050623922432,1
1767131135.266,1,left_wrist,-0.0771,0.12,-0.975,1.4,-5.04,17.78,0.034935953477991305,0.8736407133245881,-0.4805287322395918,-0.06799647541232581,172.71221851445264,4.889453294679771,-57.935807135297,1
1767131135.266,2,right_wrist,-0.1347,0.0244,-0.9609,0.98,-2.59,-0.42,0.05341310117783022,0.7648409639134822,0.640286813093164,-0.04688429930650529,178.74614633717908,8.054644016515232,79.78050623922432,1
1767131135.287,1,left_wrist,-0.0771,0.12,-0.975,1.4,-5.04,17.78,0.034935953477991305,0.8736407133245881,-0.4805287322395918,-0.06799647541232581,172.71221851445264,4.889453294679771,-57.935807135297,1
1767131135.287,2,right_wrist,-0.1347,0.0244,-0.9609,0.98,-2.59,-0.42,0.05341310117783022,0.7648409639134822,0.640286813093164,-0.04688429930650529,178.74614633717908,8.054644016515232,79.78050623922432,1
1767131135.308,1,left_wrist,-0.0771,0.12,-0.975,1.4,-5.04,17.78,0.034935953477991305,0.8736407133245881,-0.4805287322395918,-0.06799647541232581,172.71221851445264,4.889453294679771,-57.935807135297,1
1767131135.308,2,right_wrist,-0.1347,0.0244,-0.9609,0.98,-2.59,-0.42,0.05341310117783022,0.7648409639134822,0.640286813093164,-0.04688429930650529,178.74614633717908,8.054644016515232,79.78050623922432,1
1767131135.329,1,left_wrist,-0.0771,0.12,-0.975,1.4,-5.04,17.78,0.034935953477991305,0.8736407133245881,-0.4805287322395918,-0.06799647541232581,172.71221851445264,4.889453294679771,-57.935807135297,1
1767131135.329,2,right_wrist,-0.1347,0.0244,-0.9609,0.98,-2.59,-0.42,0.05341310117783022,0.7648409639134822,0.640286813093164,-0.04688429930650529,178.74614633717908,8.054644016515232,79.78050623922432,1
1767131135.351,1,left_wrist,-0.0771,0.12,-0.975,1.4,-5.04,17.78,0.034935953477991305,0.8736407133245881,-0.4805287322395918,-0.06799647541232581,172.71221851445264,4.889453294679771,-57.935807135297,1
1767131135.351,2,right_wrist,-0.1347,0.0244,-0.9609,0.98,-2.59,-0.42,0.05341310117783022,0.7648409639134822,0.640286813093164,-0.04688429930650529,178.74614633717908,8.054644016515232,79.78050623922432,1
1767131135.372,1,left_wrist,-0.0771,0.12,-0.975,1.4,-5.04,17.78,0.034935953477991305,0.8736407133245881,-0.4805287322395918,-0.06799647541232581,172.71221851445264,4.889453294679771,-57.935807135297,1
1767131135.372,2,right_wrist,-0.1347,0.0244,-0.9609,0.98,-2.59,-0.42,0.05341310117783022,0.7648409639134822,0.640286813093164,-0.04688429930650529,178.74614633717908,8.054644016515232,79.78050623922432,1
1767131135.394,1,left_wrist,-0.0771,0.12,-0.975,1.4,-5.04,17.78,0.034935953477991305,0.8736407133245881,-0.4805287322395918,-0.06799647541232581,172.71221851445264,4.889453294679771,-57.935807135297,1
1767131135.394,2,right_wrist,-0.1347,0.0244,-0.9609,0.98,-2.59,-0.42,0.05341310117783022,0.7648409639134822,0.640286813093164,-0.04688429930650529,178.74614633717908,8.054644016515232,79.78050623922432,1
1767131135.407,1,left_wrist,-0.0771,0.12,-0.975,1.4,-5.04,17.78,0.034935953477991305,0.8736407133245881,-0.4805287322395918,-0.06799647541232581,172.71221851445264,4.889453294679771,-57.935807135297,1
1767131135.407,2,right_wrist,-0.1347,0.0244,-0.9609,0.98,-2.59,-0.42,0.05341310117783022,0.7648409639134822,0.640286813093164,-0.04688429930650529,178.74614633717908,8.054644016515232,79.78050623922432,1
1767131135.423,1,left_wrist,-0.0771,0.12,-0.975,1.4,-5.04,17.78,0.034935953477991305,0.8736407133245881,-0.4805287322395918,-0.06799647541232581,172.71221851445264,4.889453294679771,-57.935807135297,1
1767131135.423,2,right_wrist,-0.1347,0.0244,-0.9609,0.98,-2.59,-0.42,0.05341310117783022,0.7648409639134822,0.640286813093164,-0.04688429930650529,178.74614633717908,8.054644016515232,79.78050623922432,1
1767131135.437,1,left_wrist,-0.0771,0.12,-0.975,1.4,-5.04,17.78,0.034935953477991305,0.8736407133245881,-0.4805287322395918,-0.06799647541232581,172.71221851445264,4.889453294679771,-57.935807135297,1
1767131135.437,2,right_wrist,-0.1347,0.0244,-0.9609,0.98,-2.59,-0.42,0.05341310117783022,0.7648409639134822,0.640286813093164,-0.04688429930650529,178.74614633717908,8.054644016515232,79.78050623922432,1
1767131135.451,1,left_wrist,-0.0771,0.12,-0.975,1.4,-5.04,17.78,0.034935953477991305,0.8736407133245881,-0.4805287322395918,-0.06799647541232581,172.71221851445264,4.889453294679771,-57.935807135297,1
1767131135.451,2,right_wrist,-0.1347,0.0244,-0.9609,0.98,-2.59,-0.42,0.05341310117783022,0.7648409639134822,0.640286813093164,-0.04688429930650529,178.74614633717908,8.054644016515232,79.78050623922432,1
1767131135.465,1,left_wrist,-0.0771,0.12,-0.975,1.4,-5.04,17.78,0.034935953477991305,0.8736407133245881,-0.4805287322395918,-0.06799647541232581,172.71221851445264,4.889453294679771,-57.935807135297,1
1767131135.465,2,right_wrist,-0.1347,0.0244,-0.9609,0.98,-2.59,-0.42,0.05341310117783022,0.7648409639134822,0.640286813093164,-0.04688429930650529,178.74614633717908,8.054644016515232,79.78050623922432,1
1767131135.482,1,left_wrist,-0.0771,0.12,-0.975,1.4,-5.04,17.78,0.034935953477991305,0.8736407133245881,-0.4805287322395918,-0.06799647541232581,172.71221851445264,4.889453294679771,-57.935807135297,1
1767131135.482,2,right_wrist,-0.1347,0.0244,-0.9609,0.98,-2.59,-0.42,0.05341310117783022,0.7648409639134822,0.640286813093164,-0.04688429930650529,178.74614633717908,8.054644016515232,79.78050623922432,1
1767131135.501,1,left_wrist,-0.0771,0.12,-0.975,1.4,-5.04,17.78,0.034935953477991305,0.8736407133245881,-0.4805287322395918,-0.06799647541232581,172.71221851445264,4.889453294679771,-57.935807135297,1
1767131135.501,2,right_wrist,-0.1347,0.0244,-0.9609,0.98,-2.59,-0.42,0.05341310117783022,0.7648409639134822,0.640286813093164,-0.04688429930650529,178.74614633717908,8.054644016515232,79.78050623922432,1
1767131135.516,1,left_wrist,-0.0771,0.12,-0.975,1.4,-5.04,17.78,0.034935953477991305,0.8736407133245881,-0.4805287322395918,-0.06799647541232581,172.71221851445264,4.889453294679771,-57.935807135297,1
1767131135.516,2,right_wrist,-0.1347,0.0244,-0.9609,0.98,-2.59,-0.42,0.05341310117783022,0.7648409639134822,0.640286813093164,-0.04688429930650529,178.74614633717908,8.054644016515232,79.78050623922432,1
1767131135.532,1,left_wrist,-0.0771,0.12,-0.975,1.4,-5.04,17.78,0.034935953477991305,0.8736407133245881,-0.4805287322395918,-0.06799647541232581,172.71221851445264,4.889453294679771,-57.935807135297,1
1767131135.532,2,right_wrist,-0.1347,0.0244,-0.9609,0.98,-2.59,-0.42,0.05341310117783022,0.7648409639134822,0.640286813093164,-0.04688429930650529,178.74614633717908,8.054644016515232,79.78050623922432,1
1767131135.552,1,left_wrist,-0.0771,0.12,-0.975,1.4,-5.04,17.78,0.034935953477991305,0.8736407133245881,-0.4805287322395918,-0.06799647541232581,172.71221851445264,4.889453294679771,-57.935807135297,1
1767131135.552,2,right_wrist,-0.1347,0.0244,-0.9609,0.98,-2.59,-0.42,0.05341310117783022,0.7648409639134822,0.640286813093164,-0.04688429930650529,178.74614633717908,8.054644016515232,79.78050623922432,1
1767131135.572,1,left_wrist,-0.0771,0.12,-0.975,1.4,-5.04,17.78,0.034935953477991305,0.8736407133245881,-0.4805287322395918,-0.06799647541232581,172.71221851445264,4.889453294679771,-57.935807135297,1
1767131135.572,2,right_wrist,-0.1347,0.0244,-0.9609,0.98,-2.59,-0.42,0.05341310117783022,0.7648409639134822,0.640286813093164,-0.04688429930650529,178.74614633717908,8.054644016515232,79.78050623922432,1
1767131135.593,1,left_wrist,-0.0771,0.12,-0.975,1.4,-5.04,17.78,0.034935953477991305,0.8736407133245881,-0.4805287322395918,-0.06799647541232581,172.71221851445264,4.889453294679771,-57.935807135297,1
1767131135.593,2,right_wrist,-0.1347,0.0244,-0.9609,0.98,-2.59,-0.42,0.05341310117783022,0.7648409639134822,0.640286813093164,-0.04688429930650529,178.74614633717908,8.054644016515232,79.78050623922432,1
1767131135.607,1,left_wrist,-0.0771,0.12,-0.975,1.4,-5.04,17.78,0.034935953477991305,0.8736407133245881,-0.4805287322395918,-0.06799647541232581,172.71221851445264,4.889453294679771,-57.935807135297,1
1767131135.607,2,right_wrist,-0.1347,0.0244,-0.9609,0.98,-2.59,-0.42,0.05341310117783022,0.7648409639134822,0.640286813093164,-0.04688429930650529,178.74614633717908,8.054644016515232,79.78050623922432,1
1767131135.62,1,left_wrist,-0.0771,0.12,-0.975,1.4,-5.04,17.78,0.034935953477991305,0.8736407133245881,-0.4805287322395918,-0.06799647541232581,172.71221851445264,4.889453294679771,-57.935807135297,1
1767131135.62,2,right_wrist,-0.1347,0.0244,-0.9609,0.98,-2.59,-0.42,0.05341310117783022,0.7648409639134822,0.640286813093164,-0.04688429930650529,178.74614633717908,8.054644016515232,79.78050623922432,1
1767131135.634,1,left_wrist,-0.0771,0.12,-0.975,1.4,-5.04,17.78,0.034935953477991305,0.8736407133245881,-0.4805287322395918,-0.06799647541232581,172.71221851445264,4.889453294679771,-57.935807135297,1
1767131135.634,2,right_wrist,-0.1347,0.0244,-0.9609,0.98,-2.59,-0.42,0.05341310117783022,0.7648409639134822,0.640286813093164,-0.04688429930650529,178.74614633717908,8.054644016515232,79.78050623922432,1
1767131135.651,1,left_wrist,-0.0771,0.12,-0.975,1.4,-5.04,17.78,0.034935953477991305,0.8736407133245881,-0.4805287322395918,-0.06799647541232581,172.71221851445264,4.889453294679771,-57.935807135297,1
1767131135.651,2,right_wrist,-0.1347,0.0244,-0.9609,0.98,-2.59,-0.42,0.05341310117783022,0.7648409639134822,0.640286813093164,-0.04688429930650529,178.74614633717908,8.054644016515232,79.78050623922432,1
1767131135.664,1,left_wrist,-0.0771,0.12,-0.975,1.4,-5.04,17.78,0.034935953477991305,0.8736407133245881,-0.4805287322395918,-0.06799647541232581,172.71221851445264,4.889453294679771,-57.935807135297,1
1767131135.664,2,right_wrist,-0.1347,0.0244,-0.9609,0.98,-2.59,-0.42,0.05341310117783022,0.7648409639134822,0.640286813093164,-0.04688429930650529,178.74614633717908,8.054644016515232,79.78050623922432,1
1767131135.689,1,left_wrist,-0.0771,0.12,-0.975,1.4,-5.04,17.78,0.034935953477991305,0.8736407133245881,-0.4805287322395918,-0.06799647541232581,172.71221851445264,4.889453294679771,-57.935807135297,1
1767131135.689,2,right_wrist,-0.1347,0.0244,-0.9609,0.98,-2.59,-0.42,0.05341310117783022,0.7648409639134822,0.640286813093164,-0.04688429930650529,178.74614633717908,8.054644016515232,79.78050623922432,1
1767131135.705,1,left_wrist,-0.0771,0.12,-0.975,1.4,-5.04,17.78,0.034935953477991305,0.8736407133245881,-0.4805287322395918,-0.06799647541232581,172.71221851445264,4.889453294679771,-57.935807135297,1
1767131135.705,2,right_wrist,-0.1347,0.0244,-0.9609,0.98,-2.59,-0.42,0.05341310117783022,0.7648409639134822,0.640286813093164,-0.04688429930650529,178.74614633717908,8.054644016515232,79.78050623922432,1
1767131135.722,1,left_wrist,-0.0771,0.12,-0.975,1.4,-5.04,17.78,0.034935953477991305,0.8736407133245881,-0.4805287322395918,-0.06799647541232581,172.71221851445264,4.889453294679771,-57.935807135297,1
1767131135.722,2,right_wrist,-0.1347,0.0244,-0.9609,0.98,-2.59,-0.42,0.05341310117783022,0.7648409639134822,0.640286813093164,-0.04688429930650529,178.74614633717908,8.054644016515232,79.78050623922432,1
1767131135.741,1,left_wrist,-0.0771,0.12,-0.975,1.4,-5.04,17.78,0.034935953477991305,0.8736407133245881,-0.4805287322395918,-0.06799647541232581,172.71221851445264,4.889453294679771,-57.935807135297,1
1767131135.741,2,right_wrist,-0.1347,0.0244,-0.9609,0.98,-2.59,-0.42,0.05341310117783022,0.7648409639134822,0.640286813093164,-0.04688429930650529,178.74614633717908,8.054644016515232,79.78050623922432,1
1767131135.762,1,left_wrist,-0.0771,0.12,-0.975,1.4,-5.04,17.78,0.034935953477991305,0.8736407133245881,-0.4805287322395918,-0.06799647541232581,172.71221851445264,4.889453294679771,-57.935807135297,1
1767131135.762,2,right_wrist,-0.1347,0.0244,-0.9609,0.98,-2.59,-0.42,0.05341310117783022,0.7648409639134822,0.640286813093164,-0.04688429930650529,178.74614633717908,8.054644016515232,79.78050623922432,1
1767131135.787,1,left_wrist,-0.0771,0.12,-0.975,1.4,-5.04,17.78,0.034935953477991305,0.8736407133245881,-0.4805287322395918,-0.06799647541232581,172.71221851445264,4.889453294679771,-57.935807135297,1
1767131135.787,2,right_wrist,-0.1347,0.0244,-0.9609,0.98,-2.59,-0.42,0.05341310117783022,0.7648409639134822,0.640286813093164,-0.04688429930650529,178.74614633717908,8.054644016515232,79.78050623922432,1
1767131135.812,1,left_wrist,-0.0771,0.12,-0.975,1.4,-5.04,17.78,0.034935953477991305,0.8736407133245881,-0.4805287322395918,-0.06799647541232581,172.71221851445264,4.889453294679771,-57.935807135297,1
1767131135.812,2,right_wrist,-0.1347,0.0244,-0.9609,0.98,-2.59,-0.42,0.05341310117783022,0.7648409639134822,0.640286813093164,-0.04688429930650529,178.74614633717908,8.054644016515232,79.78050623922432,1
1767131135.83,1,left_wrist,-0.0771,0.12,-0.975,1.4,-5.04,17.78,0.034935953477991305,0.8736407133245881,-0.4805287322395918,-0.06799647541232581,172.71221851445264,4.889453294679771,-57.935807135297,1
1767131135.83,2,right_wrist,-0.1347,0.0244,-0.9609,0.98,-2.59,-0.42,0.05341310117783022,0.7648409639134822,0.640286813093164,-0.04688429930650529,178.74614633717908,8.054644016515232,79.78050623922432,1
1767131135.846,1,left_wrist,-0.0771,0.12,-0.975,1.4,-5.04,17.78,0.034935953477991305,0.8736407133245881,-0.4805287322395918,-0.06799647541232581,172.71221851445264,4.889453294679771,-57.935807135297,1
1767131135.846,2,right_wrist,-0.1347,0.0244,-0.9609,0.98,-2.59,-0.42,0.05341310117783022,0.7648409639134822,0.640286813093164,-0.04688429930650529,178.74614633717908,8.054644016515232,79.78050623922432,1
1767131135.864,1,left_wrist,-0.0771,0.12,-0.975,1.4,-5.04,17.78,0.034935953477991305,0.8736407133245881,-0.4805287322395918,-0.06799647541232581,172.71221851445264,4.889453294679771,-57.935807135297,1
1767131135.864,2,right_wrist,-0.1347,0.0244,-0.9609,0.98,-2.59,-0.42,0.05341310117783022,0.7648409639134822,0.640286813093164,-0.04688429930650529,178.74614633717908,8.054644016515232,79.78050623922432,1
1767131135.882,1,left_wrist,-0.0771,0.12,-0.975,1.4,-5.04,17.78,0.034935953477991305,0.8736407133245881,-0.4805287322395918,-0.06799647541232581,172.71221851445264,4.889453294679771,-57.935807135297,1
1767131135.882,2,right_wrist,-0.1347,0.0244,-0.9609,0.98,-2.59,-0.42,0.05341310117783022,0.7648409639134822,0.640286813093164,-0.04688429930650529,178.74614633717908,8.054644016515232,79.78050623922432,1
1767131135.902,1,left_wrist,-0.0771,0.12,-0.975,1.4,-5.04,17.78,0.034935953477991305,0.8736407133245881,-0.4805287322395918,-0.06799647541232581,172.71221851445264,4.889453294679771,-57.935807135297,1
1767131135.902,2,right_wrist,-0.1347,0.0244,-0.9609,0.98,-2.59,-0.42,0.05341310117783022,0.7648409639134822,0.640286813093164,-0.04688429930650529,178.74614633717908,8.054644016515232,79.78050623922432,1
1767131135.923,1,left_wrist,-0.0771,0.12,-0.975,1.4,-5.04,17.78,0.034935953477991305,0.8736407133245881,-0.4805287322395918,-0.06799647541232581,172.71221851445264,4.889453294679771,-57.935807135297,1
1767131135.923,2,right_wrist,-0.1347,0.0244,-0.9609,0.98,-2.59,-0.42,0.05341310117783022,0.7648409639134822,0.640286813093164,-0.04688429930650529,178.74614633717908,8.054644016515232,79.78050623922432,1
1767131135.943,1,left_wrist,-0.0771,0.12,-0.975,1.4,-5.04,17.78,0.034935953477991305,0.8736407133245881,-0.4805287322395918,-0.06799647541232581,172.71221851445264,4.889453294679771,-57.935807135297,1
1767131135.943,2,right_wrist,-0.1347,0.0244,-0.9609,0.98,-2.59,-0.42,0.05341310117783022,0.7648409639134822,0.640286813093164,-0.04688429930650529,178.74614633717908,8.054644016515232,79.78050623922432,1
1767131135.968,1,left_wrist,-0.0771,0.12,-0.975,1.4,-5.04,17.78,0.034935953477991305,0.8736407133245881,-0.4805287322395918,-0.06799647541232581,172.71221851445264,4.889453294679771,-57.935807135297,1
1767131135.968,2,right_wrist,-0.1347,0.0244,-0.9609,0.98,-2.59,-0.42,0.05341310117783022,0.7648409639134822,0.640286813093164,-0.04688429930650529,178.74614633717908,8.054644016515232,79.78050623922432,1
1767131135.994,1,left_wrist,-0.0771,0.12,-0.975,1.4,-5.04,17.78,0.034935953477991305,0.8736407133245881,-0.4805287322395918,-0.06799647541232581,172.71221851445264,4.889453294679771,-57.935807135297,1
1767131135.994,2,right_wrist,-0.1347,0.0244,-0.9609,0.98,-2.59,-0.42,0.05341310117783022,0.7648409639134822,0.640286813093164,-0.04688429930650529,178.74614633717908,8.054644016515232,79.78050623922432,1
1767131136.01,1,left_wrist,-0.0771,0.12,-0.975,1.4,-5.04,17.78,0.034935953477991305,0.8736407133245881,-0.4805287322395918,-0.06799647541232581,172.71221851445264,4.889453294679771,-57.935807135297,1
1767131136.01,2,right_wrist,-0.1347,0.0244,-0.9609,0.98,-2.59,-0.42,0.05341310117783022,0.7648409639134822,0.640286813093164,-0.04688429930650529,178.74614633717908,8.054644016515232,79.78050623922432,1
1767131136.026,1,left_wrist,-0.0771,0.12,-0.975,1.4,-5.04,17.78,0.034935953477991305,0.8736407133245881,-0.4805287322395918,-0.06799647541232581,172.71221851445264,4.889453294679771,-57.935807135297,1
1767131136.026,2,right_wrist,-0.1347,0.0244,-0.9609,0.98,-2.59,-0.42,0.05341310117783022,0.7648409639134822,0.640286813093164,-0.04688429930650529,178.74614633717908,8.054644016515232,79.78050623922432,1
1767131136.04,1,left_wrist,-0.0771,0.12,-0.975,1.4,-5.04,17.78,0.034935953477991305,0.8736407133245881,-0.4805287322395918,-0.06799647541232581,172.71221851445264,4.889453294679771,-57.935807135297,1
1767131136.04,2,right_wrist,-0.1347,0.0244,-0.9609,0.98,-2.59,-0.42,0.05341310117783022,0.7648409639134822,0.640286813093164,-0.04688429930650529,178.74614633717908,8.054644016515232,79.78050623922432,1
1767131136.055,1,left_wrist,-0.0771,0.12,-0.975,1.4,-5.04,17.78,0.034935953477991305,0.8736407133245881,-0.4805287322395918,-0.06799647541232581,172.71221851445264,4.889453294679771,-57.935807135297,1
1767131136.055,2,right_wrist,-0.1347,0.0244,-0.9609,0.98,-2.59,-0.42,0.05341310117783022,0.7648409639134822,0.640286813093164,-0.04688429930650529,178.74614633717908,8.054644016515232,79.78050623922432,1
1767131136.069,1,left_wrist,-0.0771,0.12,-0.975,1.4,-5.04,17.78,0.034935953477991305,0.8736407133245881,-0.4805287322395918,-0.06799647541232581,172.71221851445264,4.889453294679771,-57.935807135297,1
1767131136.069,2,right_wrist,-0.1347,0.0244,-0.9609,0.98,-2.59,-0.42,0.05341310117783022,0.7648409639134822,0.640286813093164,-0.04688429930650529,178.74614633717908,8.054644016515232,79.78050623922432,1
1767131136.083,1,left_wrist,-0.0771,0.12,-0.975,1.4,-5.04,17.78,0.034935953477991305,0.8736407133245881,-0.4805287322395918,-0.06799647541232581,172.71221851445264,4.889453294679771,-57.935807135297,1
1767131136.083,2,right_wrist,-0.1347,0.0244,-0.9609,0.98,-2.59,-0.42,0.05341310117783022,0.7648409639134822,0.640286813093164,-0.04688429930650529,178.74614633717908,8.054644016515232,79.78050623922432,1
1767131136.1,1,left_wrist,-0.0771,0.12,-0.975,1.4,-5.04,17.78,0.034935953477991305,0.8736407133245881,-0.4805287322395918,-0.06799647541232581,172.71221851445264,4.889453294679771,-57.935807135297,1
1767131136.1,2,right_wrist,-0.1347,0.0244,-0.9609,0.98,-2.59,-0.42,0.05341310117783022,0.7648409639134822,0.640286813093164,-0.04688429930650529,178.74614633717908,8.054644016515232,79.78050623922432,1
1767131136.117,1,left_wrist,-0.0771,0.12,-0.975,1.4,-5.04,17.78,0.034935953477991305,0.8736407133245881,-0.4805287322395918,-0.06799647541232581,172.71221851445264,4.889453294679771,-57.935807135297,1
1767131136.117,2,right_wrist,-0.1347,0.0244,-0.9609,0.98,-2.59,-0.42,0.05341310117783022,0.7648409639134822,0.640286813093164,-0.04688429930650529,178.74614633717908,8.054644016515232,79.78050623922432,1
1767131136.132,1,left_wrist,-0.0771,0.12,-0.975,1.4,-5.04,17.78,0.034935953477991305,0.8736407133245881,-0.4805287322395918,-0.06799647541232581,172.71221851445264,4.889453294679771,-57.935807135297,1
1767131136.132,2,right_wrist,-0.1347,0.0244,-0.9609,0.98,-2.59,-0.42,0.05341310117783022,0.7648409639134822,0.640286813093164,-0.04688429930650529,178.74614633717908,8.054644016515232,79.78050623922432,1
1767131136.15,1,left_wrist,-0.0771,0.12,-0.975,1.4,-5.04,17.78,0.034935953477991305,0.8736407133245881,-0.4805287322395918,-0.06799647541232581,172.71221851445264,4.889453294679771,-57.935807135297,1
1767131136.15,2,right_wrist,-0.1347,0.0244,-0.9609,0.98,-2.59,-0.42,0.05341310117783022,0.7648409639134822,0.640286813093164,-0.04688429930650529,178.74614633717908,8.054644016515232,79.78050623922432,1
1767131136.169,1,left_wrist,-0.0771,0.12,-0.975,1.4,-5.04,17.78,0.034935953477991305,0.8736407133245881,-0.4805287322395918,-0.06799647541232581,172.71221851445264,4.889453294679771,-57.935807135297,1
1767131136.169,2,right_wrist,-0.1347,0.0244,-0.9609,0.98,-2.59,-0.42,0.05341310117783022,0.7648409639134822,0.640286813093164,-0.04688429930650529,178.74614633717908,8.054644016515232,79.78050623922432,1
1767131136.188,1,left_wrist,-0.0771,0.12,-0.975,1.4,-5.04,17.78,0.034935953477991305,0.8736407133245881,-0.4805287322395918,-0.06799647541232581,172.71221851445264,4.889453294679771,-57.935807135297,1
1767131136.188,2,right_wrist,-0.1347,0.0244,-0.9609,0.98,-2.59,-0.42,0.05341310117783022,0.7648409639134822,0.640286813093164,-0.04688429930650529,178.74614633717908,8.054644016515232,79.78050623922432,1
1767131136.208,1,left_wrist,-0.0771,0.12,-0.975,1.4,-5.04,17.78,0.034935953477991305,0.8736407133245881,-0.4805287322395918,-0.06799647541232581,172.71221851445264,4.889453294679771,-57.935807135297,1
1767131136.208,2,right_wrist,-0.1347,0.0244,-0.9609,0.98,-2.59,-0.42,0.05341310117783022,0.7648409639134822,0.640286813093164,-0.04688429930650529,178.74614633717908,8.054644016515232,79.78050623922432,1
1767131136.221,1,left_wrist,-0.0771,0.12,-0.975,1.4,-5.04,17.78,0.034935953477991305,0.8736407133245881,-0.4805287322395918,-0.06799647541232581,172.71221851445264,4.889453294679771,-57.935807135297,1
1767131136.221,2,right_wrist,-0.1347,0.0244,-0.9609,0.98,-2.59,-0.42,0.05341310117783022,0.7648409639134822,0.640286813093164,-0.04688429930650529,178.74614633717908,8.054644016515232,79.78050623922432,1
1767131136.235,1,left_wrist,-0.0771,0.12,-0.975,1.4,-5.04,17.78,0.034935953477991305,0.8736407133245881,-0.4805287322395918,-0.06799647541232581,172.71221851445264,4.889453294679771,-57.935807135297,1
1767131136.235,2,right_wrist,-0.1347,0.0244,-0.9609,0.98,-2.59,-0.42,0.05341310117783022,0.7648409639134822,0.640286813093164,-0.04688429930650529,178.74614633717908,8.054644016515232,79.78050623922432,1
1767131136.248,1,left_wrist,-0.0771,0.12,-0.975,1.4,-5.04,17.78,0.034935953477991305,0.8736407133245881,-0.4805287322395918,-0.06799647541232581,172.71221851445264,4.889453294679771,-57.935807135297,1
1767131136.248,2,right_wrist,-0.1347,0.0244,-0.9609,0.98,-2.59,-0.42,0.05341310117783022,0.7648409639134822,0.640286813093164,-0.04688429930650529,178.74614633717908,8.054644016515232,79.78050623922432,1
1767131136.263,1,left_wrist,-0.0771,0.12,-0.975,1.4,-5.04,17.78,0.034935953477991305,0.8736407133245881,-0.4805287322395918,-0.06799647541232581,172.71221851445264,4.889453294679771,-57.935807135297,1
1767131136.263,2,right_wrist,-0.1347,0.0244,-0.9609,0.98,-2.59,-0.42,0.05341310117783022,0.7648409639134822,0.640286813093164,-0.04688429930650529,178.74614633717908,8.054644016515232,79.78050623922432,1
1767131136.28,1,left_wrist,-0.0771,0.12,-0.975,1.4,-5.04,17.78,0.034935953477991305,0.8736407133245881,-0.4805287322395918,-0.06799647541232581,172.71221851445264,4.889453294679771,-57.935807135297,1
1767131136.28,2,right_wrist,-0.1347,0.0244,-0.9609,0.98,-2.59,-0.42,0.05341310117783022,0.7648409639134822,0.640286813093164,-0.04688429930650529,178.74614633717908,8.054644016515232,79.78050623922432,1
1767131136.298,1,left_wrist,-0.0771,0.12,-0.975,1.4,-5.04,17.78,0.034935953477991305,0.8736407133245881,-0.4805287322395918,-0.06799647541232581,172.71221851445264,4.889453294679771,-57.935807135297,1
1767131136.298,2,right_wrist,-0.1347,0.0244,-0.9609,0.98,-2.59,-0.42,0.05341310117783022,0.7648409639134822,0.640286813093164,-0.04688429930650529,178.74614633717908,8.054644016515232,79.78050623922432,1
1767131136.316,1,left_wrist,-0.0771,0.12,-0.975,1.4,-5.04,17.78,0.034935953477991305,0.8736407133245881,-0.4805287322395918,-0.06799647541232581,172.71221851445264,4.889453294679771,-57.935807135297,1
1767131136.316,2,right_wrist,-0.1347,0.0244,-0.9609,0.98,-2.59,-0.42,0.05341310117783022,0.7648409639134822,0.640286813093164,-0.04688429930650529,178.74614633717908,8.054644016515232,79.78050623922432,1
1767131136.331,1,left_wrist,-0.0771,0.12,-0.975,1.4,-5.04,17.78,0.034935953477991305,0.8736407133245881,-0.4805287322395918,-0.06799647541232581,172.71221851445264,4.889453294679771,-57.935807135297,1
1767131136.331,2,right_wrist,-0.1347,0.0244,-0.9609,0.98,-2.59,-0.42,0.05341310117783022,0.7648409639134822,0.640286813093164,-0.04688429930650529,178.74614633717908,8.054644016515232,79.78050623922432,1
1767131136.349,1,left_wrist,-0.0771,0.12,-0.975,1.4,-5.04,17.78,0.034935953477991305,0.8736407133245881,-0.4805287322395918,-0.06799647541232581,172.71221851445264,4.889453294679771,-57.935807135297,1
1767131136.349,2,right_wrist,-0.1347,0.0244,-0.9609,0.98,-2.59,-0.42,0.05341310117783022,0.7648409639134822,0.640286813093164,-0.04688429930650529,178.74614633717908,8.054644016515232,79.78050623922432,1
1767131136.37,1,left_wrist,-0.0771,0.12,-0.975,1.4,-5.04,17.78,0.034935953477991305,0.8736407133245881,-0.4805287322395918,-0.06799647541232581,172.71221851445264,4.889453294679771,-57.935807135297,1
1767131136.37,2,right_wrist,-0.1347,0.0244,-0.9609,0.98,-2.59,-0.42,0.05341310117783022,0.7648409639134822,0.640286813093164,-0.04688429930650529,178.74614633717908,8.054644016515232,79.78050623922432,1
1767131136.387,1,left_wrist,-0.0771,0.12,-0.975,1.4,-5.04,17.78,0.034935953477991305,0.8736407133245881,-0.4805287322395918,-0.06799647541232581,172.71221851445264,4.889453294679771,-57.935807135297,1
1767131136.387,2,right_wrist,-0.1347,0.0244,-0.9609,0.98,-2.59,-0.42,0.05341310117783022,0.7648409639134822,0.640286813093164,-0.04688429930650529,178.74614633717908,8.054644016515232,79.78050623922432,1
1767131136.406,1,left_wrist,-0.0771,0.12,-0.975,1.4,-5.04,17.78,0.034935953477991305,0.8736407133245881,-0.4805287322395918,-0.06799647541232581,172.71221851445264,4.889453294679771,-57.935807135297,1
1767131136.406,2,right_wrist,-0.1347,0.0244,-0.9609,0.98,-2.59,-0.42,0.05341310117783022,0.7648409639134822,0.640286813093164,-0.04688429930650529,178.74614633717908,8.054644016515232,79.78050623922432,1
1767131136.427,1,left_wrist,-0.0771,0.12,-0.975,1.4,-5.04,17.78,0.034935953477991305,0.8736407133245881,-0.4805287322395918,-0.06799647541232581,172.71221851445264,4.889453294679771,-57.935807135297,1
1767131136.427,2,right_wrist,-0.1347,0.0244,-0.9609,0.98,-2.59,-0.42,0.05341310117783022,0.7648409639134822,0.640286813093164,-0.04688429930650529,178.74614633717908,8.054644016515232,79.78050623922432,1
1767131136.44,1,left_wrist,-0.0771,0.12,-0.975,1.4,-5.04,17.78,0.034935953477991305,0.8736407133245881,-0.4805287322395918,-0.06799647541232581,172.71221851445264,4.889453294679771,-57.935807135297,1
1767131136.44,2,right_wrist,-0.1347,0.0244,-0.9609,0.98,-2.59,-0.42,0.05341310117783022,0.7648409639134822,0.640286813093164,-0.04688429930650529,178.74614633717908,8.054644016515232,79.78050623922432,1
1767131136.453,1,left_wrist,-0.0771,0.12,-0.975,1.4,-5.04,17.78,0.034935953477991305,0.8736407133245881,-0.4805287322395918,-0.06799647541232581,172.71221851445264,4.889453294679771,-57.935807135297,1
1767131136.453,2,right_wrist,-0.1347,0.0244,-0.9609,0.98,-2.59,-0.42,0.05341310117783022,0.7648409639134822,0.640286813093164,-0.04688429930650529,178.74614633717908,8.054644016515232,79.78050623922432,1
1767131136.467,1,left_wrist,-0.0771,0.12,-0.975,1.4,-5.04,17.78,0.034935953477991305,0.8736407133245881,-0.4805287322395918,-0.06799647541232581,172.71221851445264,4.889453294679771,-57.935807135297,1
1767131136.467,2,right_wrist,-0.1347,0.0244,-0.9609,0.98,-2.59,-0.42,0.05341310117783022,0.7648409639134822,0.640286813093164,-0.04688429930650529,178.74614633717908,8.054644016515232,79.78050623922432,1
1767131136.483,1,left_wrist,-0.0771,0.12,-0.975,1.4,-5.04,17.78,0.034935953477991305,0.8736407133245881,-0.4805287322395918,-0.06799647541232581,172.71221851445264,4.889453294679771,-57.935807135297,1
1767131136.483,2,right_wrist,-0.1347,0.0244,-0.9609,0.98,-2.59,-0.42,0.05341310117783022,0.7648409639134822,0.640286813093164,-0.04688429930650529,178.74614633717908,8.054644016515232,79.78050623922432,1
1767131136.498,1,left_wrist,-0.0771,0.12,-0.975,1.4,-5.04,17.78,0.034935953477991305,0.8736407133245881,-0.4805287322395918,-0.06799647541232581,172.71221851445264,4.889453294679771,-57.935807135297,1
1767131136.498,2,right_wrist,-0.1347,0.0244,-0.9609,0.98,-2.59,-0.42,0.05341310117783022,0.7648409639134822,0.640286813093164,-0.04688429930650529,178.74614633717908,8.054644016515232,79.78050623922432,1
1767131136.514,1,left_wrist,-0.0771,0.12,-0.975,1.4,-5.04,17.78,0.034935953477991305,0.8736407133245881,-0.4805287322395918,-0.06799647541232581,172.71221851445264,4.889453294679771,-57.935807135297,1
1767131136.514,2,right_wrist,-0.1347,0.0244,-0.9609,0.98,-2.59,-0.42,0.05341310117783022,0.7648409639134822,0.640286813093164,-0.04688429930650529,178.74614633717908,8.054644016515232,79.78050623922432,1
1767131136.531,1,left_wrist,-0.0771,0.12,-0.975,1.4,-5.04,17.78,0.034935953477991305,0.8736407133245881,-0.4805287322395918,-0.06799647541232581,172.71221851445264,4.889453294679771,-57.935807135297,1
1767131136.531,2,right_wrist,-0.1347,0.0244,-0.9609,0.98,-2.59,-0.42,0.05341310117783022,0.7648409639134822,0.640286813093164,-0.04688429930650529,178.74614633717908,8.054644016515232,79.78050623922432,1
1767131136.55,1,left_wrist,-0.0771,0.12,-0.975,1.4,-5.04,17.78,0.034935953477991305,0.8736407133245881,-0.4805287322395918,-0.06799647541232581,172.71221851445264,4.889453294679771,-57.935807135297,1
1767131136.55,2,right_wrist,-0.1347,0.0244,-0.9609,0.98,-2.59,-0.42,0.05341310117783022,0.7648409639134822,0.640286813093164,-0.04688429930650529,178.74614633717908,8.054644016515232,79.78050623922432,1
1767131136.566,1,left_wrist,-0.0771,0.12,-0.975,1.4,-5.04,17.78,0.034935953477991305,0.8736407133245881,-0.4805287322395918,-0.06799647541232581,172.71221851445264,4.889453294679771,-57.935807135297,1
1767131136.566,2,right_wrist,-0.1347,0.0244,-0.9609,0.98,-2.59,-0.42,0.05341310117783022,0.7648409639134822,0.640286813093164,-0.04688429930650529,178.74614633717908,8.054644016515232,79.78050623922432,1
1767131136.585,1,left_wrist,-0.0771,0.12,-0.975,1.4,-5.04,17.78,0.034935953477991305,0.8736407133245881,-0.4805287322395918,-0.06799647541232581,172.71221851445264,4.889453294679771,-57.935807135297,1
1767131136.585,2,right_wrist,-0.1347,0.0244,-0.9609,0.98,-2.59,-0.42,0.05341310117783022,0.7648409639134822,0.640286813093164,-0.04688429930650529,178.74614633717908,8.054644016515232,79.78050623922432,1
1767131136.602,1,left_wrist,-0.0771,0.12,-0.975,1.4,-5.04,17.78,0.034935953477991305,0.8736407133245881,-0.4805287322395918,-0.06799647541232581,172.71221851445264,4.889453294679771,-57.935807135297,1
1767131136.602,2,right_wrist,-0.1347,0.0244,-0.9609,0.98,-2.59,-0.42,0.05341310117783022,0.7648409639134822,0.640286813093164,-0.04688429930650529,178.74614633717908,8.054644016515232,79.78050623922432,1
1767131136.622,1,left_wrist,-0.0771,0.12,-0.975,1.4,-5.04,17.78,0.034935953477991305,0.8736407133245881,-0.4805287322395918,-0.06799647541232581,172.71221851445264,4.889453294679771,-57.935807135297,1
1767131136.622,2,right_wrist,-0.1347,0.0244,-0.9609,0.98,-2.59,-0.42,0.05341310117783022,0.7648409639134822,0.640286813093164,-0.04688429930650529,178.74614633717908,8.054644016515232,79.78050623922432,1
1767131136.643,1,left_wrist,-0.0771,0.12,-0.975,1.4,-5.04,17.78,0.034935953477991305,0.8736407133245881,-0.4805287322395918,-0.06799647541232581,172.71221851445264,4.889453294679771,-57.935807135297,1
1767131136.643,2,right_wrist,-0.1347,0.0244,-0.9609,0.98,-2.59,-0.42,0.05341310117783022,0.7648409639134822,0.640286813093164,-0.04688429930650529,178.74614633717908,8.054644016515232,79.78050623922432,1
1767131136.656,1,left_wrist,-0.0771,0.12,-0.975,1.4,-5.04,17.78,0.034935953477991305,0.8736407133245881,-0.4805287322395918,-0.06799647541232581,172.71221851445264,4.889453294679771,-57.935807135297,1
1767131136.656,2,right_wrist,-0.1347,0.0244,-0.9609,0.98,-2.59,-0.42,0.05341310117783022,0.7648409639134822,0.640286813093164,-0.04688429930650529,178.74614633717908,8.054644016515232,79.78050623922432,1
1767131136.67,1,left_wrist,-0.0771,0.12,-0.975,1.4,-5.04,17.78,0.034935953477991305,0.8736407133245881,-0.4805287322395918,-0.06799647541232581,172.71221851445264,4.889453294679771,-57.935807135297,1
1767131136.67,2,right_wrist,-0.1347,0.0244,-0.9609,0.98,-2.59,-0.42,0.05341310117783022,0.7648409639134822,0.640286813093164,-0.04688429930650529,178.74614633717908,8.054644016515232,79.78050623922432,1
1767131136.684,1,left_wrist,-0.0771,0.12,-0.975,1.4,-5.04,17.78,0.034935953477991305,0.8736407133245881,-0.4805287322395918,-0.06799647541232581,172.71221851445264,4.889453294679771,-57.935807135297,1
1767131136.684,2,right_wrist,-0.1347,0.0244,-0.9609,0.98,-2.59,-0.42,0.05341310117783022,0.7648409639134822,0.640286813093164,-0.04688429930650529,178.74614633717908,8.054644016515232,79.78050623922432,1
1767131136.697,1,left_wrist,-0.0771,0.12,-0.975,1.4,-5.04,17.78,0.034935953477991305,0.8736407133245881,-0.4805287322395918,-0.06799647541232581,172.71221851445264,4.889453294679771,-57.935807135297,1
1767131136.697,2,right_wrist,-0.1347,0.0244,-0.9609,0.98,-2.59,-0.42,0.05341310117783022,0.7648409639134822,0.640286813093164,-0.04688429930650529,178.74614633717908,8.054644016515232,79.78050623922432,1
1767131136.714,1,left_wrist,-0.0771,0.12,-0.975,1.4,-5.04,17.78,0.034935953477991305,0.8736407133245881,-0.4805287322395918,-0.06799647541232581,172.71221851445264,4.889453294679771,-57.935807135297,1
1767131136.714,2,right_wrist,-0.1347,0.0244,-0.9609,0.98,-2.59,-0.42,0.05341310117783022,0.7648409639134822,0.640286813093164,-0.04688429930650529,178.74614633717908,8.054644016515232,79.78050623922432,1
1767131136.73,1,left_wrist,-0.0771,0.12,-0.975,1.4,-5.04,17.78,0.034935953477991305,0.8736407133245881,-0.4805287322395918,-0.06799647541232581,172.71221851445264,4.889453294679771,-57.935807135297,1
1767131136.73,2,right_wrist,-0.1347,0.0244,-0.9609,0.98,-2.59,-0.42,0.05341310117783022,0.7648409639134822,0.640286813093164,-0.04688429930650529,178.74614633717908,8.054644016515232,79.78050623922432,1
1767131136.752,1,left_wrist,-0.0771,0.12,-0.975,1.4,-5.04,17.78,0.034935953477991305,0.8736407133245881,-0.4805287322395918,-0.06799647541232581,172.71221851445264,4.889453294679771,-57.935807135297,1
1767131136.752,2,right_wrist,-0.1347,0.0244,-0.9609,0.98,-2.59,-0.42,0.05341310117783022,0.7648409639134822,0.640286813093164,-0.04688429930650529,178.74614633717908,8.054644016515232,79.78050623922432,1
1767131136.771,1,left_wrist,-0.0771,0.12,-0.975,1.4,-5.04,17.78,0.034935953477991305,0.8736407133245881,-0.4805287322395918,-0.06799647541232581,172.71221851445264,4.889453294679771,-57.935807135297,1
1767131136.771,2,right_wrist,-0.1347,0.0244,-0.9609,0.98,-2.59,-0.42,0.05341310117783022,0.7648409639134822,0.640286813093164,-0.04688429930650529,178.74614633717908,8.054644016515232,79.78050623922432,1
1767131136.792,1,left_wrist,-0.0771,0.12,-0.975,1.4,-5.04,17.78,0.034935953477991305,0.8736407133245881,-0.4805287322395918,-0.06799647541232581,172.71221851445264,4.889453294679771,-57.935807135297,1
1767131136.792,2,right_wrist,-0.1347,0.0244,-0.9609,0.98,-2.59,-0.42,0.05341310117783022,0.7648409639134822,0.640286813093164,-0.04688429930650529,178.74614633717908,8.054644016515232,79.78050623922432,1
1767131136.812,1,left_wrist,-0.0771,0.12,-0.975,1.4,-5.04,17.78,0.034935953477991305,0.8736407133245881,-0.4805287322395918,-0.06799647541232581,172.71221851445264,4.889453294679771,-57.935807135297,1
1767131136.812,2,right_wrist,-0.1347,0.0244,-0.9609,0.98,-2.59,-0.42,0.05341310117783022,0.7648409639134822,0.640286813093164,-0.04688429930650529,178.74614633717908,8.054644016515232,79.78050623922432,1
1767131136.837,1,left_wrist,-0.0771,0.12,-0.975,1.4,-5.04,17.78,0.034935953477991305,0.8736407133245881,-0.4805287322395918,-0.06799647541232581,172.71221851445264,4.889453294679771,-57.935807135297,1
1767131136.837,2,right_wrist,-0.1347,0.0244,-0.9609,0.98,-2.59,-0.42,0.05341310117783022,0.7648409639134822,0.640286813093164,-0.04688429930650529,178.74614633717908,8.054644016515232,79.78050623922432,1
1767131136.854,1,left_wrist,-0.0771,0.12,-0.975,1.4,-5.04,17.78,0.034935953477991305,0.8736407133245881,-0.4805287322395918,-0.06799647541232581,172.71221851445264,4.889453294679771,-57.935807135297,1
1767131136.854,2,right_wrist,-0.1347,0.0244,-0.9609,0.98,-2.59,-0.42,0.05341310117783022,0.7648409639134822,0.640286813093164,-0.04688429930650529,178.74614633717908,8.054644016515232,79.78050623922432,1
1767131136.87,1,left_wrist,-0.0771,0.12,-0.975,1.4,-5.04,17.78,0.034935953477991305,0.8736407133245881,-0.4805287322395918,-0.06799647541232581,172.71221851445264,4.889453294679771,-57.935807135297,1
1767131136.87,2,right_wrist,-0.1347,0.0244,-0.9609,0.98,-2.59,-0.42,0.05341310117783022,0.7648409639134822,0.640286813093164,-0.04688429930650529,178.74614633717908,8.054644016515232,79.78050623922432,1
1767131136.888,1,left_wrist,-0.0771,0.12,-0.975,1.4,-5.04,17.78,0.034935953477991305,0.8736407133245881,-0.4805287322395918,-0.06799647541232581,172.71221851445264,4.889453294679771,-57.935807135297,1
1767131136.888,2,right_wrist,-0.1347,0.0244,-0.9609,0.98,-2.59,-0.42,0.05341310117783022,0.7648409639134822,0.640286813093164,-0.04688429930650529,178.74614633717908,8.054644016515232,79.78050623922432,1
1767131136.906,1,left_wrist,-0.0771,0.12,-0.975,1.4,-5.04,17.78,0.034935953477991305,0.8736407133245881,-0.4805287322395918,-0.06799647541232581,172.71221851445264,4.889453294679771,-57.935807135297,1
1767131136.906,2,right_wrist,-0.1347,0.0244,-0.9609,0.98,-2.59,-0.42,0.05341310117783022,0.7648409639134822,0.640286813093164,-0.04688429930650529,178.74614633717908,8.054644016515232,79.78050623922432,1
1767131136.923,1,left_wrist,-0.0771,0.12,-0.975,1.4,-5.04,17.78,0.034935953477991305,0.8736407133245881,-0.4805287322395918,-0.06799647541232581,172.71221851445264,4.889453294679771,-57.935807135297,1
1767131136.923,2,right_wrist,-0.1347,0.0244,-0.9609,0.98,-2.59,-0.42,0.05341310117783022,0.7648409639134822,0.640286813093164,-0.04688429930650529,178.74614633717908,8.054644016515232,79.78050623922432,1
1767131136.941,1,left_wrist,-0.0771,0.12,-0.975,1.4,-5.04,17.78,0.034935953477991305,0.8736407133245881,-0.4805287322395918,-0.06799647541232581,172.71221851445264,4.889453294679771,-57.935807135297,1
1767131136.941,2,right_wrist,-0.1347,0.0244,-0.9609,0.98,-2.59,-0.42,0.05341310117783022,0.7648409639134822,0.640286813093164,-0.04688429930650529,178.74614633717908,8.054644016515232,79.78050623922432,1
1767131136.96,1,left_wrist,-0.0771,0.12,-0.975,1.4,-5.04,17.78,0.034935953477991305,0.8736407133245881,-0.4805287322395918,-0.06799647541232581,172.71221851445264,4.889453294679771,-57.935807135297,1
1767131136.96,2,right_wrist,-0.1347,0.0244,-0.9609,0.98,-2.59,-0.42,0.05341310117783022,0.7648409639134822,0.640286813093164,-0.04688429930650529,178.74614633717908,8.054644016515232,79.78050623922432,1
1767131136.979,1,left_wrist,-0.0771,0.12,-0.975,1.4,-5.04,17.78,0.034935953477991305,0.8736407133245881,-0.4805287322395918,-0.06799647541232581,172.71221851445264,4.889453294679771,-57.935807135297,1
1767131136.979,2,right_wrist,-0.1347,0.0244,-0.9609,0.98,-2.59,-0.42,0.05341310117783022,0.7648409639134822,0.640286813093164,-0.04688429930650529,178.74614633717908,8.054644016515232,79.78050623922432,1
1767131137.002,1,left_wrist,-0.0771,0.12,-0.975,1.4,-5.04,17.78,0.034935953477991305,0.8736407133245881,-0.4805287322395918,-0.06799647541232581,172.71221851445264,4.889453294679771,-57.935807135297,1
1767131137.002,2,right_wrist,-0.1347,0.0244,-0.9609,0.98,-2.59,-0.42,0.05341310117783022,0.7648409639134822,0.640286813093164,-0.04688429930650529,178.74614633717908,8.054644016515232,79.78050623922432,1
1767131137.024,1,left_wrist,-0.0771,0.12,-0.975,1.4,-5.04,17.78,0.034935953477991305,0.8736407133245881,-0.4805287322395918,-0.06799647541232581,172.71221851445264,4.889453294679771,-57.935807135297,1
1767131137.024,2,right_wrist,-0.1347,0.0244,-0.9609,0.98,-2.59,-0.42,0.05341310117783022,0.7648409639134822,0.640286813093164,-0.04688429930650529,178.74614633717908,8.054644016515232,79.78050623922432,1
1767131137.044,1,left_wrist,-0.0771,0.12,-0.975,1.4,-5.04,17.78,0.034935953477991305,0.8736407133245881,-0.4805287322395918,-0.06799647541232581,172.71221851445264,4.889453294679771,-57.935807135297,1
1767131137.044,2,right_wrist,-0.1347,0.0244,-0.9609,0.98,-2.59,-0.42,0.05341310117783022,0.7648409639134822,0.640286813093164,-0.04688429930650529,178.74614633717908,8.054644016515232,79.78050623922432,1
1767131137.057,1,left_wrist,-0.0771,0.12,-0.975,1.4,-5.04,17.78,0.034935953477991305,0.8736407133245881,-0.4805287322395918,-0.06799647541232581,172.71221851445264,4.889453294679771,-57.935807135297,1
1767131137.057,2,right_wrist,-0.1347,0.0244,-0.9609,0.98,-2.59,-0.42,0.05341310117783022,0.7648409639134822,0.640286813093164,-0.04688429930650529,178.74614633717908,8.054644016515232,79.78050623922432,1
1767131137.07,1,left_wrist,-0.0771,0.12,-0.975,1.4,-5.04,17.78,0.034935953477991305,0.8736407133245881,-0.4805287322395918,-0.06799647541232581,172.71221851445264,4.889453294679771,-57.935807135297,1
1767131137.07,2,right_wrist,-0.1347,0.0244,-0.9609,0.98,-2.59,-0.42,0.05341310117783022,0.7648409639134822,0.640286813093164,-0.04688429930650529,178.74614633717908,8.054644016515232,79.78050623922432,1
1767131137.084,1,left_wrist,-0.0771,0.12,-0.975,1.4,-5.04,17.78,0.034935953477991305,0.8736407133245881,-0.4805287322395918,-0.06799647541232581,172.71221851445264,4.889453294679771,-57.935807135297,1
1767131137.084,2,right_wrist,-0.1347,0.0244,-0.9609,0.98,-2.59,-0.42,0.05341310117783022,0.7648409639134822,0.640286813093164,-0.04688429930650529,178.74614633717908,8.054644016515232,79.78050623922432,1
1767131137.097,1,left_wrist,-0.0771,0.12,-0.975,1.4,-5.04,17.78,0.034935953477991305,0.8736407133245881,-0.4805287322395918,-0.06799647541232581,172.71221851445264,4.889453294679771,-57.935807135297,1
1767131137.097,2,right_wrist,-0.1347,0.0244,-0.9609,0.98,-2.59,-0.42,0.05341310117783022,0.7648409639134822,0.640286813093164,-0.04688429930650529,178.74614633717908,8.054644016515232,79.78050623922432,1
1767131137.113,1,left_wrist,-0.0771,0.12,-0.975,1.4,-5.04,17.78,0.034935953477991305,0.8736407133245881,-0.4805287322395918,-0.06799647541232581,172.71221851445264,4.889453294679771,-57.935807135297,1
1767131137.113,2,right_wrist,-0.1347,0.0244,-0.9609,0.98,-2.59,-0.42,0.05341310117783022,0.7648409639134822,0.640286813093164,-0.04688429930650529,178.74614633717908,8.054644016515232,79.78050623922432,1
1767131137.129,1,left_wrist,-0.0771,0.12,-0.975,1.4,-5.04,17.78,0.034935953477991305,0.8736407133245881,-0.4805287322395918,-0.06799647541232581,172.71221851445264,4.889453294679771,-57.935807135297,1
1767131137.129,2,right_wrist,-0.1347,0.0244,-0.9609,0.98,-2.59,-0.42,0.05341310117783022,0.7648409639134822,0.640286813093164,-0.04688429930650529,178.74614633717908,8.054644016515232,79.78050623922432,1
1767131137.147,1,left_wrist,-0.0771,0.12,-0.975,1.4,-5.04,17.78,0.034935953477991305,0.8736407133245881,-0.4805287322395918,-0.06799647541232581,172.71221851445264,4.889453294679771,-57.935807135297,1
1767131137.147,2,right_wrist,-0.1347,0.0244,-0.9609,0.98,-2.59,-0.42,0.05341310117783022,0.7648409639134822,0.640286813093164,-0.04688429930650529,178.74614633717908,8.054644016515232,79.78050623922432,1
1767131137.166,1,left_wrist,-0.0771,0.12,-0.975,1.4,-5.04,17.78,0.034935953477991305,0.8736407133245881,-0.4805287322395918,-0.06799647541232581,172.71221851445264,4.889453294679771,-57.935807135297,1
1767131137.166,2,right_wrist,-0.1347,0.0244,-0.9609,0.98,-2.59,-0.42,0.05341310117783022,0.7648409639134822,0.640286813093164,-0.04688429930650529,178.74614633717908,8.054644016515232,79.78050623922432,1
1767131137.184,1,left_wrist,-0.0771,0.12,-0.975,1.4,-5.04,17.78,0.034935953477991305,0.8736407133245881,-0.4805287322395918,-0.06799647541232581,172.71221851445264,4.889453294679771,-57.935807135297,1
1767131137.184,2,right_wrist,-0.1347,0.0244,-0.9609,0.98,-2.59,-0.42,0.05341310117783022,0.7648409639134822,0.640286813093164,-0.04688429930650529,178.74614633717908,8.054644016515232,79.78050623922432,1
1767131137.203,1,left_wrist,-0.0771,0.12,-0.975,1.4,-5.04,17.78,0.034935953477991305,0.8736407133245881,-0.4805287322395918,-0.06799647541232581,172.71221851445264,4.889453294679771,-57.935807135297,1
1767131137.203,2,right_wrist,-0.1347,0.0244,-0.9609,0.98,-2.59,-0.42,0.05341310117783022,0.7648409639134822,0.640286813093164,-0.04688429930650529,178.74614633717908,8.054644016515232,79.78050623922432,1
1767131137.222,1,left_wrist,-0.0771,0.12,-0.975,1.4,-5.04,17.78,0.034935953477991305,0.8736407133245881,-0.4805287322395918,-0.06799647541232581,172.71221851445264,4.889453294679771,-57.935807135297,1
1767131137.222,2,right_wrist,-0.1347,0.0244,-0.9609,0.98,-2.59,-0.42,0.05341310117783022,0.7648409639134822,0.640286813093164,-0.04688429930650529,178.74614633717908,8.054644016515232,79.78050623922432,1
1767131137.242,1,left_wrist,-0.0771,0.12,-0.975,1.4,-5.04,17.78,0.034935953477991305,0.8736407133245881,-0.4805287322395918,-0.06799647541232581,172.71221851445264,4.889453294679771,-57.935807135297,1
1767131137.242,2,right_wrist,-0.1347,0.0244,-0.9609,0.98,-2.59,-0.42,0.05341310117783022,0.7648409639134822,0.640286813093164,-0.04688429930650529,178.74614633717908,8.054644016515232,79.78050623922432,1
1767131137.263,1,left_wrist,-0.0771,0.12,-0.975,1.4,-5.04,17.78,0.034935953477991305,0.8736407133245881,-0.4805287322395918,-0.06799647541232581,172.71221851445264,4.889453294679771,-57.935807135297,1
1767131137.263,2,right_wrist,-0.1347,0.0244,-0.9609,0.98,-2.59,-0.42,0.05341310117783022,0.7648409639134822,0.640286813093164,-0.04688429930650529,178.74614633717908,8.054644016515232,79.78050623922432,1
1767131137.284,1,left_wrist,-0.0771,0.12,-0.975,1.4,-5.04,17.78,0.034935953477991305,0.8736407133245881,-0.4805287322395918,-0.06799647541232581,172.71221851445264,4.889453294679771,-57.935807135297,1
1767131137.284,2,right_wrist,-0.1347,0.0244,-0.9609,0.98,-2.59,-0.42,0.05341310117783022,0.7648409639134822,0.640286813093164,-0.04688429930650529,178.74614633717908,8.054644016515232,79.78050623922432,1
1767131137.305,1,left_wrist,-0.0771,0.12,-0.975,1.4,-5.04,17.78,0.034935953477991305,0.8736407133245881,-0.4805287322395918,-0.06799647541232581,172.71221851445264,4.889453294679771,-57.935807135297,1
1767131137.305,2,right_wrist,-0.1347,0.0244,-0.9609,0.98,-2.59,-0.42,0.05341310117783022,0.7648409639134822,0.640286813093164,-0.04688429930650529,178.74614633717908,8.054644016515232,79.78050623922432,1
1767131137.327,1,left_wrist,-0.0771,0.12,-0.975,1.4,-5.04,17.78,0.034935953477991305,0.8736407133245881,-0.4805287322395918,-0.06799647541232581,172.71221851445264,4.889453294679771,-57.935807135297,1
1767131137.327,2,right_wrist,-0.1347,0.0244,-0.9609,0.98,-2.59,-0.42,0.05341310117783022,0.7648409639134822,0.640286813093164,-0.04688429930650529,178.74614633717908,8.054644016515232,79.78050623922432,1
1767131137.34,1,left_wrist,-0.0771,0.12,-0.975,1.4,-5.04,17.78,0.034935953477991305,0.8736407133245881,-0.4805287322395918,-0.06799647541232581,172.71221851445264,4.889453294679771,-57.935807135297,1
1767131137.34,2,right_wrist,-0.1347,0.0244,-0.9609,0.98,-2.59,-0.42,0.05341310117783022,0.7648409639134822,0.640286813093164,-0.04688429930650529,178.74614633717908,8.054644016515232,79.78050623922432,1
1767131137.354,1,left_wrist,-0.0771,0.12,-0.975,1.4,-5.04,17.78,0.034935953477991305,0.8736407133245881,-0.4805287322395918,-0.06799647541232581,172.71221851445264,4.889453294679771,-57.935807135297,1
1767131137.354,2,right_wrist,-0.1347,0.0244,-0.9609,0.98,-2.59,-0.42,0.05341310117783022,0.7648409639134822,0.640286813093164,-0.04688429930650529,178.74614633717908,8.054644016515232,79.78050623922432,1
1767131137.368,1,left_wrist,-0.0771,0.12,-0.975,1.4,-5.04,17.78,0.034935953477991305,0.8736407133245881,-0.4805287322395918,-0.06799647541232581,172.71221851445264,4.889453294679771,-57.935807135297,1
1767131137.368,2,right_wrist,-0.1347,0.0244,-0.9609,0.98,-2.59,-0.42,0.05341310117783022,0.7648409639134822,0.640286813093164,-0.04688429930650529,178.74614633717908,8.054644016515232,79.78050623922432,1
1767131137.382,1,left_wrist,-0.0771,0.12,-0.975,1.4,-5.04,17.78,0.034935953477991305,0.8736407133245881,-0.4805287322395918,-0.06799647541232581,172.71221851445264,4.889453294679771,-57.935807135297,1
1767131137.382,2,right_wrist,-0.1347,0.0244,-0.9609,0.98,-2.59,-0.42,0.05341310117783022,0.7648409639134822,0.640286813093164,-0.04688429930650529,178.74614633717908,8.054644016515232,79.78050623922432,1
1767131137.401,1,left_wrist,-0.0771,0.12,-0.975,1.4,-5.04,17.78,0.034935953477991305,0.8736407133245881,-0.4805287322395918,-0.06799647541232581,172.71221851445264,4.889453294679771,-57.935807135297,1
1767131137.401,2,right_wrist,-0.1347,0.0244,-0.9609,0.98,-2.59,-0.42,0.05341310117783022,0.7648409639134822,0.640286813093164,-0.04688429930650529,178.74614633717908,8.054644016515232,79.78050623922432,1
1767131137.415,1,left_wrist,-0.0771,0.12,-0.975,1.4,-5.04,17.78,0.034935953477991305,0.8736407133245881,-0.4805287322395918,-0.06799647541232581,172.71221851445264,4.889453294679771,-57.935807135297,1
1767131137.415,2,right_wrist,-0.1347,0.0244,-0.9609,0.98,-2.59,-0.42,0.05341310117783022,0.7648409639134822,0.640286813093164,-0.04688429930650529,178.74614633717908,8.054644016515232,79.78050623922432,1
1767131137.431,1,left_wrist,-0.0771,0.12,-0.975,1.4,-5.04,17.78,0.034935953477991305,0.8736407133245881,-0.4805287322395918,-0.06799647541232581,172.71221851445264,4.889453294679771,-57.935807135297,1
1767131137.431,2,right_wrist,-0.1347,0.0244,-0.9609,0.98,-2.59,-0.42,0.05341310117783022,0.7648409639134822,0.640286813093164,-0.04688429930650529,178.74614633717908,8.054644016515232,79.78050623922432,1
1767131137.452,1,left_wrist,-0.0771,0.12,-0.975,1.4,-5.04,17.78,0.034935953477991305,0.8736407133245881,-0.4805287322395918,-0.06799647541232581,172.71221851445264,4.889453294679771,-57.935807135297,1
1767131137.452,2,right_wrist,-0.1347,0.0244,-0.9609,0.98,-2.59,-0.42,0.05341310117783022,0.7648409639134822,0.640286813093164,-0.04688429930650529,178.74614633717908,8.054644016515232,79.78050623922432,1
1767131137.466,1,left_wrist,-0.0771,0.12,-0.975,1.4,-5.04,17.78,0.034935953477991305,0.8736407133245881,-0.4805287322395918,-0.06799647541232581,172.71221851445264,4.889453294679771,-57.935807135297,1
1767131137.466,2,right_wrist,-0.1347,0.0244,-0.9609,0.98,-2.59,-0.42,0.05341310117783022,0.7648409639134822,0.640286813093164,-0.04688429930650529,178.74614633717908,8.054644016515232,79.78050623922432,1
1767131137.486,1,left_wrist,-0.0771,0.12,-0.975,1.4,-5.04,17.78,0.034935953477991305,0.8736407133245881,-0.4805287322395918,-0.06799647541232581,172.71221851445264,4.889453294679771,-57.935807135297,1
1767131137.486,2,right_wrist,-0.1347,0.0244,-0.9609,0.98,-2.59,-0.42,0.05341310117783022,0.7648409639134822,0.640286813093164,-0.04688429930650529,178.74614633717908,8.054644016515232,79.78050623922432,1
1767131137.509,1,left_wrist,-0.0771,0.12,-0.975,1.4,-5.04,17.78,0.034935953477991305,0.8736407133245881,-0.4805287322395918,-0.06799647541232581,172.71221851445264,4.889453294679771,-57.935807135297,1
1767131137.509,2,right_wrist,-0.1347,0.0244,-0.9609,0.98,-2.59,-0.42,0.05341310117783022,0.7648409639134822,0.640286813093164,-0.04688429930650529,178.74614633717908,8.054644016515232,79.78050623922432,1
1767131137.529,1,left_wrist,-0.0771,0.12,-0.975,1.4,-5.04,17.78,0.034935953477991305,0.8736407133245881,-0.4805287322395918,-0.06799647541232581,172.71221851445264,4.889453294679771,-57.935807135297,1
1767131137.529,2,right_wrist,-0.1347,0.0244,-0.9609,0.98,-2.59,-0.42,0.05341310117783022,0.7648409639134822,0.640286813093164,-0.04688429930650529,178.74614633717908,8.054644016515232,79.78050623922432,1
1767131137.55,1,left_wrist,-0.0771,0.12,-0.975,1.4,-5.04,17.78,0.034935953477991305,0.8736407133245881,-0.4805287322395918,-0.06799647541232581,172.71221851445264,4.889453294679771,-57.935807135297,1
1767131137.55,2,right_wrist,-0.1347,0.0244,-0.9609,0.98,-2.59,-0.42,0.05341310117783022,0.7648409639134822,0.640286813093164,-0.04688429930650529,178.74614633717908,8.054644016515232,79.78050623922432,1
1767131137.571,1,left_wrist,-0.0771,0.12,-0.975,1.4,-5.04,17.78,0.034935953477991305,0.8736407133245881,-0.4805287322395918,-0.06799647541232581,172.71221851445264,4.889453294679771,-57.935807135297,1
1767131137.571,2,right_wrist,-0.1347,0.0244,-0.9609,0.98,-2.59,-0.42,0.05341310117783022,0.7648409639134822,0.640286813093164,-0.04688429930650529,178.74614633717908,8.054644016515232,79.78050623922432,1
1767131137.592,1,left_wrist,-0.0771,0.12,-0.975,1.4,-5.04,17.78,0.034935953477991305,0.8736407133245881,-0.4805287322395918,-0.06799647541232581,172.71221851445264,4.889453294679771,-57.935807135297,1
1767131137.592,2,right_wrist,-0.1347,0.0244,-0.9609,0.98,-2.59,-0.42,0.05341310117783022,0.7648409639134822,0.640286813093164,-0.04688429930650529,178.74614633717908,8.054644016515232,79.78050623922432,1
1767131137.613,1,left_wrist,-0.0771,0.12,-0.975,1.4,-5.04,17.78,0.034935953477991305,0.8736407133245881,-0.4805287322395918,-0.06799647541232581,172.71221851445264,4.889453294679771,-57.935807135297,1
1767131137.613,2,right_wrist,-0.1347,0.0244,-0.9609,0.98,-2.59,-0.42,0.05341310117783022,0.7648409639134822,0.640286813093164,-0.04688429930650529,178.74614633717908,8.054644016515232,79.78050623922432,1
1767131137.627,1,left_wrist,-0.0771,0.12,-0.975,1.4,-5.04,17.78,0.034935953477991305,0.8736407133245881,-0.4805287322395918,-0.06799647541232581,172.71221851445264,4.889453294679771,-57.935807135297,1
1767131137.627,2,right_wrist,-0.1347,0.0244,-0.9609,0.98,-2.59,-0.42,0.05341310117783022,0.7648409639134822,0.640286813093164,-0.04688429930650529,178.74614633717908,8.054644016515232,79.78050623922432,1
1767131137.641,1,left_wrist,-0.0771,0.12,-0.975,1.4,-5.04,17.78,0.034935953477991305,0.8736407133245881,-0.4805287322395918,-0.06799647541232581,172.71221851445264,4.889453294679771,-57.935807135297,1
1767131137.641,2,right_wrist,-0.1347,0.0244,-0.9609,0.98,-2.59,-0.42,0.05341310117783022,0.7648409639134822,0.640286813093164,-0.04688429930650529,178.74614633717908,8.054644016515232,79.78050623922432,1
1767131137.655,1,left_wrist,-0.0771,0.12,-0.975,1.4,-5.04,17.78,0.034935953477991305,0.8736407133245881,-0.4805287322395918,-0.06799647541232581,172.71221851445264,4.889453294679771,-57.935807135297,1
1767131137.655,2,right_wrist,-0.1347,0.0244,-0.9609,0.98,-2.59,-0.42,0.05341310117783022,0.7648409639134822,0.640286813093164,-0.04688429930650529,178.74614633717908,8.054644016515232,79.78050623922432,1
1767131137.67,1,left_wrist,-0.0771,0.12,-0.975,1.4,-5.04,17.78,0.034935953477991305,0.8736407133245881,-0.4805287322395918,-0.06799647541232581,172.71221851445264,4.889453294679771,-57.935807135297,1
1767131137.67,2,right_wrist,-0.1347,0.0244,-0.9609,0.98,-2.59,-0.42,0.05341310117783022,0.7648409639134822,0.640286813093164,-0.04688429930650529,178.74614633717908,8.054644016515232,79.78050623922432,1
1767131137.685,1,left_wrist,-0.0771,0.12,-0.975,1.4,-5.04,17.78,0.034935953477991305,0.8736407133245881,-0.4805287322395918,-0.06799647541232581,172.71221851445264,4.889453294679771,-57.935807135297,1
1767131137.685,2,right_wrist,-0.1347,0.0244,-0.9609,0.98,-2.59,-0.42,0.05341310117783022,0.7648409639134822,0.640286813093164,-0.04688429930650529,178.74614633717908,8.054644016515232,79.78050623922432,1
1767131137.698,1,left_wrist,-0.0771,0.12,-0.975,1.4,-5.04,17.78,0.034935953477991305,0.8736407133245881,-0.4805287322395918,-0.06799647541232581,172.71221851445264,4.889453294679771,-57.935807135297,1
1767131137.698,2,right_wrist,-0.1347,0.0244,-0.9609,0.98,-2.59,-0.42,0.05341310117783022,0.7648409639134822,0.640286813093164,-0.04688429930650529,178.74614633717908,8.054644016515232,79.78050623922432,1
1767131137.717,1,left_wrist,-0.0771,0.12,-0.975,1.4,-5.04,17.78,0.034935953477991305,0.8736407133245881,-0.4805287322395918,-0.06799647541232581,172.71221851445264,4.889453294679771,-57.935807135297,1
1767131137.717,2,right_wrist,-0.1347,0.0244,-0.9609,0.98,-2.59,-0.42,0.05341310117783022,0.7648409639134822,0.640286813093164,-0.04688429930650529,178.74614633717908,8.054644016515232,79.78050623922432,1
1767131137.733,1,left_wrist,-0.0771,0.12,-0.975,1.4,-5.04,17.78,0.034935953477991305,0.8736407133245881,-0.4805287322395918,-0.06799647541232581,172.71221851445264,4.889453294679771,-57.935807135297,1
1767131137.733,2,right_wrist,-0.1347,0.0244,-0.9609,0.98,-2.59,-0.42,0.05341310117783022,0.7648409639134822,0.640286813093164,-0.04688429930650529,178.74614633717908,8.054644016515232,79.78050623922432,1
1767131137.75,1,left_wrist,-0.0771,0.12,-0.975,1.4,-5.04,17.78,0.034935953477991305,0.8736407133245881,-0.4805287322395918,-0.06799647541232581,172.71221851445264,4.889453294679771,-57.935807135297,1
1767131137.75,2,right_wrist,-0.1347,0.0244,-0.9609,0.98,-2.59,-0.42,0.05341310117783022,0.7648409639134822,0.640286813093164,-0.04688429930650529,178.74614633717908,8.054644016515232,79.78050623922432,1
1767131137.77,1,left_wrist,-0.0771,0.12,-0.975,1.4,-5.04,17.78,0.034935953477991305,0.8736407133245881,-0.4805287322395918,-0.06799647541232581,172.71221851445264,4.889453294679771,-57.935807135297,1
1767131137.77,2,right_wrist,-0.1347,0.0244,-0.9609,0.98,-2.59,-0.42,0.05341310117783022,0.7648409639134822,0.640286813093164,-0.04688429930650529,178.74614633717908,8.054644016515232,79.78050623922432,1
1767131137.794,1,left_wrist,-0.0771,0.12,-0.975,1.4,-5.04,17.78,0.034935953477991305,0.8736407133245881,-0.4805287322395918,-0.06799647541232581,172.71221851445264,4.889453294679771,-57.935807135297,1
1767131137.794,2,right_wrist,-0.1347,0.0244,-0.9609,0.98,-2.59,-0.42,0.05341310117783022,0.7648409639134822,0.640286813093164,-0.04688429930650529,178.74614633717908,8.054644016515232,79.78050623922432,1
1767131137.819,1,left_wrist,-0.0771,0.12,-0.975,1.4,-5.04,17.78,0.034935953477991305,0.8736407133245881,-0.4805287322395918,-0.06799647541232581,172.71221851445264,4.889453294679771,-57.935807135297,1
1767131137.819,2,right_wrist,-0.1347,0.0244,-0.9609,0.98,-2.59,-0.42,0.05341310117783022,0.7648409639134822,0.640286813093164,-0.04688429930650529,178.74614633717908,8.054644016515232,79.78050623922432,1
1767131137.844,1,left_wrist,-0.0771,0.12,-0.975,1.4,-5.04,17.78,0.034935953477991305,0.8736407133245881,-0.4805287322395918,-0.06799647541232581,172.71221851445264,4.889453294679771,-57.935807135297,1
1767131137.844,2,right_wrist,-0.1347,0.0244,-0.9609,0.98,-2.59,-0.42,0.05341310117783022,0.7648409639134822,0.640286813093164,-0.04688429930650529,178.74614633717908,8.054644016515232,79.78050623922432,1
1767131137.861,1,left_wrist,-0.0771,0.12,-0.975,1.4,-5.04,17.78,0.034935953477991305,0.8736407133245881,-0.4805287322395918,-0.06799647541232581,172.71221851445264,4.889453294679771,-57.935807135297,1
1767131137.861,2,right_wrist,-0.1347,0.0244,-0.9609,0.98,-2.59,-0.42,0.05341310117783022,0.7648409639134822,0.640286813093164,-0.04688429930650529,178.74614633717908,8.054644016515232,79.78050623922432,1
1767131137.877,1,left_wrist,-0.0771,0.12,-0.975,1.4,-5.04,17.78,0.034935953477991305,0.8736407133245881,-0.4805287322395918,-0.06799647541232581,172.71221851445264,4.889453294679771,-57.935807135297,1
1767131137.877,2,right_wrist,-0.1347,0.0244,-0.9609,0.98,-2.59,-0.42,0.05341310117783022,0.7648409639134822,0.640286813093164,-0.04688429930650529,178.74614633717908,8.054644016515232,79.78050623922432,1
1767131137.894,1,left_wrist,-0.0771,0.12,-0.975,1.4,-5.04,17.78,0.034935953477991305,0.8736407133245881,-0.4805287322395918,-0.06799647541232581,172.71221851445264,4.889453294679771,-57.935807135297,1
1767131137.894,2,right_wrist,-0.1347,0.0244,-0.9609,0.98,-2.59,-0.42,0.05341310117783022,0.7648409639134822,0.640286813093164,-0.04688429930650529,178.74614633717908,8.054644016515232,79.78050623922432,1
1767131137.912,1,left_wrist,-0.0771,0.12,-0.975,1.4,-5.04,17.78,0.034935953477991305,0.8736407133245881,-0.4805287322395918,-0.06799647541232581,172.71221851445264,4.889453294679771,-57.935807135297,1
1767131137.912,2,right_wrist,-0.1347,0.0244,-0.9609,0.98,-2.59,-0.42,0.05341310117783022,0.7648409639134822,0.640286813093164,-0.04688429930650529,178.74614633717908,8.054644016515232,79.78050623922432,1
1767131137.93,1,left_wrist,-0.0771,0.12,-0.975,1.4,-5.04,17.78,0.034935953477991305,0.8736407133245881,-0.4805287322395918,-0.06799647541232581,172.71221851445264,4.889453294679771,-57.935807135297,1
1767131137.93,2,right_wrist,-0.1347,0.0244,-0.9609,0.98,-2.59,-0.42,0.05341310117783022,0.7648409639134822,0.640286813093164,-0.04688429930650529,178.74614633717908,8.054644016515232,79.78050623922432,1
1767131137.95,1,left_wrist,-0.0771,0.12,-0.975,1.4,-5.04,17.78,0.034935953477991305,0.8736407133245881,-0.4805287322395918,-0.06799647541232581,172.71221851445264,4.889453294679771,-57.935807135297,1
1767131137.95,2,right_wrist,-0.1347,0.0244,-0.9609,0.98,-2.59,-0.42,0.05341310117783022,0.7648409639134822,0.640286813093164,-0.04688429930650529,178.74614633717908,8.054644016515232,79.78050623922432,1
1767131137.971,1,left_wrist,-0.0771,0.12,-0.975,1.4,-5.04,17.78,0.034935953477991305,0.8736407133245881,-0.4805287322395918,-0.06799647541232581,172.71221851445264,4.889453294679771,-57.935807135297,1
1767131137.971,2,right_wrist,-0.1347,0.0244,-0.9609,0.98,-2.59,-0.42,0.05341310117783022,0.7648409639134822,0.640286813093164,-0.04688429930650529,178.74614633717908,8.054644016515232,79.78050623922432,1
1767131137.995,1,left_wrist,-0.0771,0.12,-0.975,1.4,-5.04,17.78,0.034935953477991305,0.8736407133245881,-0.4805287322395918,-0.06799647541232581,172.71221851445264,4.889453294679771,-57.935807135297,1
1767131137.995,2,right_wrist,-0.1347,0.0244,-0.9609,0.98,-2.59,-0.42,0.05341310117783022,0.7648409639134822,0.640286813093164,-0.04688429930650529,178.74614633717908,8.054644016515232,79.78050623922432,1
1767131138.021,1,left_wrist,-0.0771,0.12,-0.975,1.4,-5.04,17.78,0.034935953477991305,0.8736407133245881,-0.4805287322395918,-0.06799647541232581,172.71221851445264,4.889453294679771,-57.935807135297,1
1767131138.021,2,right_wrist,-0.1347,0.0244,-0.9609,0.98,-2.59,-0.42,0.05341310117783022,0.7648409639134822,0.640286813093164,-0.04688429930650529,178.74614633717908,8.054644016515232,79.78050623922432,1
1767131138.046,1,left_wrist,-0.0771,0.12,-0.975,1.4,-5.04,17.78,0.034935953477991305,0.8736407133245881,-0.4805287322395918,-0.06799647541232581,172.71221851445264,4.889453294679771,-57.935807135297,1
1767131138.046,2,right_wrist,-0.1347,0.0244,-0.9609,0.98,-2.59,-0.42,0.05341310117783022,0.7648409639134822,0.640286813093164,-0.04688429930650529,178.74614633717908,8.054644016515232,79.78050623922432,1
1767131138.061,1,left_wrist,-0.0771,0.12,-0.975,1.4,-5.04,17.78,0.034935953477991305,0.8736407133245881,-0.4805287322395918,-0.06799647541232581,172.71221851445264,4.889453294679771,-57.935807135297,1
1767131138.061,2,right_wrist,-0.1347,0.0244,-0.9609,0.98,-2.59,-0.42,0.05341310117783022,0.7648409639134822,0.640286813093164,-0.04688429930650529,178.74614633717908,8.054644016515232,79.78050623922432,1
1767131138.073,1,left_wrist,-0.0771,0.12,-0.975,1.4,-5.04,17.78,0.034935953477991305,0.8736407133245881,-0.4805287322395918,-0.06799647541232581,172.71221851445264,4.889453294679771,-57.935807135297,1
1767131138.073,2,right_wrist,-0.1347,0.0244,-0.9609,0.98,-2.59,-0.42,0.05341310117783022,0.7648409639134822,0.640286813093164,-0.04688429930650529,178.74614633717908,8.054644016515232,79.78050623922432,1
1767131138.087,1,left_wrist,-0.0771,0.12,-0.975,1.4,-5.04,17.78,0.034935953477991305,0.8736407133245881,-0.4805287322395918,-0.06799647541232581,172.71221851445264,4.889453294679771,-57.935807135297,1
1767131138.087,2,right_wrist,-0.1347,0.0244,-0.9609,0.98,-2.59,-0.42,0.05341310117783022,0.7648409639134822,0.640286813093164,-0.04688429930650529,178.74614633717908,8.054644016515232,79.78050623922432,1
1767131138.101,1,left_wrist,-0.0771,0.12,-0.975,1.4,-5.04,17.78,0.034935953477991305,0.8736407133245881,-0.4805287322395918,-0.06799647541232581,172.71221851445264,4.889453294679771,-57.935807135297,1
1767131138.101,2,right_wrist,-0.1347,0.0244,-0.9609,0.98,-2.59,-0.42,0.05341310117783022,0.7648409639134822,0.640286813093164,-0.04688429930650529,178.74614633717908,8.054644016515232,79.78050623922432,1
1767131138.114,1,left_wrist,-0.0771,0.12,-0.975,1.4,-5.04,17.78,0.034935953477991305,0.8736407133245881,-0.4805287322395918,-0.06799647541232581,172.71221851445264,4.889453294679771,-57.935807135297,1
1767131138.114,2,right_wrist,-0.1347,0.0244,-0.9609,0.98,-2.59,-0.42,0.05341310117783022,0.7648409639134822,0.640286813093164,-0.04688429930650529,178.74614633717908,8.054644016515232,79.78050623922432,1
1767131138.132,1,left_wrist,-0.0771,0.12,-0.975,1.4,-5.04,17.78,0.034935953477991305,0.8736407133245881,-0.4805287322395918,-0.06799647541232581,172.71221851445264,4.889453294679771,-57.935807135297,1
1767131138.132,2,right_wrist,-0.1347,0.0244,-0.9609,0.98,-2.59,-0.42,0.05341310117783022,0.7648409639134822,0.640286813093164,-0.04688429930650529,178.74614633717908,8.054644016515232,79.78050623922432,1
1767131138.149,1,left_wrist,-0.0771,0.12,-0.975,1.4,-5.04,17.78,0.034935953477991305,0.8736407133245881,-0.4805287322395918,-0.06799647541232581,172.71221851445264,4.889453294679771,-57.935807135297,1
1767131138.149,2,right_wrist,-0.1347,0.0244,-0.9609,0.98,-2.59,-0.42,0.05341310117783022,0.7648409639134822,0.640286813093164,-0.04688429930650529,178.74614633717908,8.054644016515232,79.78050623922432,1
1767131138.165,1,left_wrist,-0.0771,0.12,-0.975,1.4,-5.04,17.78,0.034935953477991305,0.8736407133245881,-0.4805287322395918,-0.06799647541232581,172.71221851445264,4.889453294679771,-57.935807135297,1
1767131138.165,2,right_wrist,-0.1347,0.0244,-0.9609,0.98,-2.59,-0.42,0.05341310117783022,0.7648409639134822,0.640286813093164,-0.04688429930650529,178.74614633717908,8.054644016515232,79.78050623922432,1
1767131138.182,1,left_wrist,-0.0771,0.12,-0.975,1.4,-5.04,17.78,0.034935953477991305,0.8736407133245881,-0.4805287322395918,-0.06799647541232581,172.71221851445264,4.889453294679771,-57.935807135297,1
1767131138.182,2,right_wrist,-0.1347,0.0244,-0.9609,0.98,-2.59,-0.42,0.05341310117783022,0.7648409639134822,0.640286813093164,-0.04688429930650529,178.74614633717908,8.054644016515232,79.78050623922432,1
1767131138.201,1,left_wrist,-0.0771,0.12,-0.975,1.4,-5.04,17.78,0.034935953477991305,0.8736407133245881,-0.4805287322395918,-0.06799647541232581,172.71221851445264,4.889453294679771,-57.935807135297,1
1767131138.201,2,right_wrist,-0.1347,0.0244,-0.9609,0.98,-2.59,-0.42,0.05341310117783022,0.7648409639134822,0.640286813093164,-0.04688429930650529,178.74614633717908,8.054644016515232,79.78050623922432,1
1767131138.22,1,left_wrist,-0.0771,0.12,-0.975,1.4,-5.04,17.78,0.034935953477991305,0.8736407133245881,-0.4805287322395918,-0.06799647541232581,172.71221851445264,4.889453294679771,-57.935807135297,1
1767131138.22,2,right_wrist,-0.1347,0.0244,-0.9609,0.98,-2.59,-0.42,0.05341310117783022,0.7648409639134822,0.640286813093164,-0.04688429930650529,178.74614633717908,8.054644016515232,79.78050623922432,1
1767131138.239,1,left_wrist,-0.0771,0.12,-0.975,1.4,-5.04,17.78,0.034935953477991305,0.8736407133245881,-0.4805287322395918,-0.06799647541232581,172.71221851445264,4.889453294679771,-57.935807135297,1
1767131138.239,2,right_wrist,-0.1347,0.0244,-0.9609,0.98,-2.59,-0.42,0.05341310117783022,0.7648409639134822,0.640286813093164,-0.04688429930650529,178.74614633717908,8.054644016515232,79.78050623922432,1
1767131138.26,1,left_wrist,-0.0771,0.12,-0.975,1.4,-5.04,17.78,0.034935953477991305,0.8736407133245881,-0.4805287322395918,-0.06799647541232581,172.71221851445264,4.889453294679771,-57.935807135297,1
1767131138.26,2,right_wrist,-0.1347,0.0244,-0.9609,0.98,-2.59,-0.42,0.05341310117783022,0.7648409639134822,0.640286813093164,-0.04688429930650529,178.74614633717908,8.054644016515232,79.78050623922432,1
1767131138.273,1,left_wrist,-0.0771,0.12,-0.975,1.4,-5.04,17.78,0.034935953477991305,0.8736407133245881,-0.4805287322395918,-0.06799647541232581,172.71221851445264,4.889453294679771,-57.935807135297,1
1767131138.273,2,right_wrist,-0.1347,0.0244,-0.9609,0.98,-2.59,-0.42,0.05341310117783022,0.7648409639134822,0.640286813093164,-0.04688429930650529,178.74614633717908,8.054644016515232,79.78050623922432,1
1767131138.286,1,left_wrist,-0.0771,0.12,-0.975,1.4,-5.04,17.78,0.034935953477991305,0.8736407133245881,-0.4805287322395918,-0.06799647541232581,172.71221851445264,4.889453294679771,-57.935807135297,1
1767131138.286,2,right_wrist,-0.1347,0.0244,-0.9609,0.98,-2.59,-0.42,0.05341310117783022,0.7648409639134822,0.640286813093164,-0.04688429930650529,178.74614633717908,8.054644016515232,79.78050623922432,1
1767131138.3,1,left_wrist,-0.0771,0.12,-0.975,1.4,-5.04,17.78,0.034935953477991305,0.8736407133245881,-0.4805287322395918,-0.06799647541232581,172.71221851445264,4.889453294679771,-57.935807135297,1
1767131138.3,2,right_wrist,-0.1347,0.0244,-0.9609,0.98,-2.59,-0.42,0.05341310117783022,0.7648409639134822,0.640286813093164,-0.04688429930650529,178.74614633717908,8.054644016515232,79.78050623922432,1
1767131138.315,1,left_wrist,-0.0771,0.12,-0.975,1.4,-5.04,17.78,0.034935953477991305,0.8736407133245881,-0.4805287322395918,-0.06799647541232581,172.71221851445264,4.889453294679771,-57.935807135297,1
1767131138.315,2,right_wrist,-0.1347,0.0244,-0.9609,0.98,-2.59,-0.42,0.05341310117783022,0.7648409639134822,0.640286813093164,-0.04688429930650529,178.74614633717908,8.054644016515232,79.78050623922432,1
1767131138.331,1,left_wrist,-0.0771,0.12,-0.975,1.4,-5.04,17.78,0.034935953477991305,0.8736407133245881,-0.4805287322395918,-0.06799647541232581,172.71221851445264,4.889453294679771,-57.935807135297,1
1767131138.331,2,right_wrist,-0.1347,0.0244,-0.9609,0.98,-2.59,-0.42,0.05341310117783022,0.7648409639134822,0.640286813093164,-0.04688429930650529,178.74614633717908,8.054644016515232,79.78050623922432,1
1767131138.347,1,left_wrist,-0.0771,0.12,-0.975,1.4,-5.04,17.78,0.034935953477991305,0.8736407133245881,-0.4805287322395918,-0.06799647541232581,172.71221851445264,4.889453294679771,-57.935807135297,1
1767131138.347,2,right_wrist,-0.1347,0.0244,-0.9609,0.98,-2.59,-0.42,0.05341310117783022,0.7648409639134822,0.640286813093164,-0.04688429930650529,178.74614633717908,8.054644016515232,79.78050623922432,1
1767131138.364,1,left_wrist,-0.0771,0.12,-0.975,1.4,-5.04,17.78,0.034935953477991305,0.8736407133245881,-0.4805287322395918,-0.06799647541232581,172.71221851445264,4.889453294679771,-57.935807135297,1
1767131138.364,2,right_wrist,-0.1347,0.0244,-0.9609,0.98,-2.59,-0.42,0.05341310117783022,0.7648409639134822,0.640286813093164,-0.04688429930650529,178.74614633717908,8.054644016515232,79.78050623922432,1
1767131138.383,1,left_wrist,-0.0771,0.12,-0.975,1.4,-5.04,17.78,0.034935953477991305,0.8736407133245881,-0.4805287322395918,-0.06799647541232581,172.71221851445264,4.889453294679771,-57.935807135297,1
1767131138.383,2,right_wrist,-0.1347,0.0244,-0.9609,0.98,-2.59,-0.42,0.05341310117783022,0.7648409639134822,0.640286813093164,-0.04688429930650529,178.74614633717908,8.054644016515232,79.78050623922432,1
1767131138.399,1,left_wrist,-0.0771,0.12,-0.975,1.4,-5.04,17.78,0.034935953477991305,0.8736407133245881,-0.4805287322395918,-0.06799647541232581,172.71221851445264,4.889453294679771,-57.935807135297,1
1767131138.399,2,right_wrist,-0.1347,0.0244,-0.9609,0.98,-2.59,-0.42,0.05341310117783022,0.7648409639134822,0.640286813093164,-0.04688429930650529,178.74614633717908,8.054644016515232,79.78050623922432,1
1767131138.417,1,left_wrist,-0.0771,0.12,-0.975,1.4,-5.04,17.78,0.034935953477991305,0.8736407133245881,-0.4805287322395918,-0.06799647541232581,172.71221851445264,4.889453294679771,-57.935807135297,1
1767131138.417,2,right_wrist,-0.1347,0.0244,-0.9609,0.98,-2.59,-0.42,0.05341310117783022,0.7648409639134822,0.640286813093164,-0.04688429930650529,178.74614633717908,8.054644016515232,79.78050623922432,1
1767131138.437,1,left_wrist,-0.0771,0.12,-0.975,1.4,-5.04,17.78,0.034935953477991305,0.8736407133245881,-0.4805287322395918,-0.06799647541232581,172.71221851445264,4.889453294679771,-57.935807135297,1
1767131138.437,2,right_wrist,-0.1347,0.0244,-0.9609,0.98,-2.59,-0.42,0.05341310117783022,0.7648409639134822,0.640286813093164,-0.04688429930650529,178.74614633717908,8.054644016515232,79.78050623922432,1
1767131138.457,1,left_wrist,-0.0771,0.12,-0.975,1.4,-5.04,17.78,0.034935953477991305,0.8736407133245881,-0.4805287322395918,-0.06799647541232581,172.71221851445264,4.889453294679771,-57.935807135297,1
1767131138.457,2,right_wrist,-0.1347,0.0244,-0.9609,0.98,-2.59,-0.42,0.05341310117783022,0.7648409639134822,0.640286813093164,-0.04688429930650529,178.74614633717908,8.054644016515232,79.78050623922432,1
1767131138.478,1,left_wrist,-0.0771,0.12,-0.975,1.4,-5.04,17.78,0.034935953477991305,0.8736407133245881,-0.4805287322395918,-0.06799647541232581,172.71221851445264,4.889453294679771,-57.935807135297,1
1767131138.478,2,right_wrist,-0.1347,0.0244,-0.9609,0.98,-2.59,-0.42,0.05341310117783022,0.7648409639134822,0.640286813093164,-0.04688429930650529,178.74614633717908,8.054644016515232,79.78050623922432,1
1767131138.492,1,left_wrist,-0.0771,0.12,-0.975,1.4,-5.04,17.78,0.034935953477991305,0.8736407133245881,-0.4805287322395918,-0.06799647541232581,172.71221851445264,4.889453294679771,-57.935807135297,2
1767131138.492,2,right_wrist,-0.1347,0.0244,-0.9609,0.98,-2.59,-0.42,0.05341310117783022,0.7648409639134822,0.640286813093164,-0.04688429930650529,178.74614633717908,8.054644016515232,79.78050623922432,2
1767131138.506,1,left_wrist,-0.0771,0.12,-0.975,1.4,-5.04,17.78,0.034935953477991305,0.8736407133245881,-0.4805287322395918,-0.06799647541232581,172.71221851445264,4.889453294679771,-57.935807135297,2
1767131138.506,2,right_wrist,-0.1347,0.0244,-0.9609,0.98,-2.59,-0.42,0.05341310117783022,0.7648409639134822,0.640286813093164,-0.04688429930650529,178.74614633717908,8.054644016515232,79.78050623922432,2
1767131138.522,1,left_wrist,-0.0771,0.12,-0.975,1.4,-5.04,17.78,0.034935953477991305,0.8736407133245881,-0.4805287322395918,-0.06799647541232581,172.71221851445264,4.889453294679771,-57.935807135297,2
1767131138.522,2,right_wrist,-0.1347,0.0244,-0.9609,0.98,-2.59,-0.42,0.05341310117783022,0.7648409639134822,0.640286813093164,-0.04688429930650529,178.74614633717908,8.054644016515232,79.78050623922432,2
1767131138.538,1,left_wrist,-0.0771,0.12,-0.975,1.4,-5.04,17.78,0.034935953477991305,0.8736407133245881,-0.4805287322395918,-0.06799647541232581,172.71221851445264,4.889453294679771,-57.935807135297,2
1767131138.538,2,right_wrist,-0.1347,0.0244,-0.9609,0.98,-2.59,-0.42,0.05341310117783022,0.7648409639134822,0.640286813093164,-0.04688429930650529,178.74614633717908,8.054644016515232,79.78050623922432,2
1767131138.553,1,left_wrist,-0.0771,0.12,-0.975,1.4,-5.04,17.78,0.034935953477991305,0.8736407133245881,-0.4805287322395918,-0.06799647541232581,172.71221851445264,4.889453294679771,-57.935807135297,2
1767131138.553,2,right_wrist,-0.1347,0.0244,-0.9609,0.98,-2.59,-0.42,0.05341310117783022,0.7648409639134822,0.640286813093164,-0.04688429930650529,178.74614633717908,8.054644016515232,79.78050623922432,2
1767131138.567,1,left_wrist,-0.0771,0.12,-0.975,1.4,-5.04,17.78,0.034935953477991305,0.8736407133245881,-0.4805287322395918,-0.06799647541232581,172.71221851445264,4.889453294679771,-57.935807135297,2
1767131138.567,2,right_wrist,-0.1347,0.0244,-0.9609,0.98,-2.59,-0.42,0.05341310117783022,0.7648409639134822,0.640286813093164,-0.04688429930650529,178.74614633717908,8.054644016515232,79.78050623922432,2
1767131138.583,1,left_wrist,-0.0771,0.12,-0.975,1.4,-5.04,17.78,0.034935953477991305,0.8736407133245881,-0.4805287322395918,-0.06799647541232581,172.71221851445264,4.889453294679771,-57.935807135297,2
1767131138.583,2,right_wrist,-0.1347,0.0244,-0.9609,0.98,-2.59,-0.42,0.05341310117783022,0.7648409639134822,0.640286813093164,-0.04688429930650529,178.74614633717908,8.054644016515232,79.78050623922432,2
1767131138.599,1,left_wrist,-0.0771,0.12,-0.975,1.4,-5.04,17.78,0.034935953477991305,0.8736407133245881,-0.4805287322395918,-0.06799647541232581,172.71221851445264,4.889453294679771,-57.935807135297,2
1767131138.599,2,right_wrist,-0.1347,0.0244,-0.9609,0.98,-2.59,-0.42,0.05341310117783022,0.7648409639134822,0.640286813093164,-0.04688429930650529,178.74614633717908,8.054644016515232,79.78050623922432,2
1767131138.616,1,left_wrist,-0.0771,0.12,-0.975,1.4,-5.04,17.78,0.034935953477991305,0.8736407133245881,-0.4805287322395918,-0.06799647541232581,172.71221851445264,4.889453294679771,-57.935807135297,2
1767131138.616,2,right_wrist,-0.1347,0.0244,-0.9609,0.98,-2.59,-0.42,0.05341310117783022,0.7648409639134822,0.640286813093164,-0.04688429930650529,178.74614633717908,8.054644016515232,79.78050623922432,2
1767131138.635,1,left_wrist,-0.0771,0.12,-0.975,1.4,-5.04,17.78,0.034935953477991305,0.8736407133245881,-0.4805287322395918,-0.06799647541232581,172.71221851445264,4.889453294679771,-57.935807135297,2
1767131138.635,2,right_wrist,-0.1347,0.0244,-0.9609,0.98,-2.59,-0.42,0.05341310117783022,0.7648409639134822,0.640286813093164,-0.04688429930650529,178.74614633717908,8.054644016515232,79.78050623922432,2
1767131138.655,1,left_wrist,-0.0771,0.12,-0.975,1.4,-5.04,17.78,0.034935953477991305,0.8736407133245881,-0.4805287322395918,-0.06799647541232581,172.71221851445264,4.889453294679771,-57.935807135297,2
1767131138.655,2,right_wrist,-0.1347,0.0244,-0.9609,0.98,-2.59,-0.42,0.05341310117783022,0.7648409639134822,0.640286813093164,-0.04688429930650529,178.74614633717908,8.054644016515232,79.78050623922432,2
1767131138.679,1,left_wrist,-0.0771,0.12,-0.975,1.4,-5.04,17.78,0.034935953477991305,0.8736407133245881,-0.4805287322395918,-0.06799647541232581,172.71221851445264,4.889453294679771,-57.935807135297,2
1767131138.679,2,right_wrist,-0.1347,0.0244,-0.9609,0.98,-2.59,-0.42,0.05341310117783022,0.7648409639134822,0.640286813093164,-0.04688429930650529,178.74614633717908,8.054644016515232,79.78050623922432,2
1767131138.694,1,left_wrist,-0.0771,0.12,-0.975,1.4,-5.04,17.78,0.034935953477991305,0.8736407133245881,-0.4805287322395918,-0.06799647541232581,172.71221851445264,4.889453294679771,-57.935807135297,2
1767131138.694,2,right_wrist,-0.1347,0.0244,-0.9609,0.98,-2.59,-0.42,0.05341310117783022,0.7648409639134822,0.640286813093164,-0.04688429930650529,178.74614633717908,8.054644016515232,79.78050623922432,2
1767131138.707,1,left_wrist,-0.0771,0.12,-0.975,1.4,-5.04,17.78,0.034935953477991305,0.8736407133245881,-0.4805287322395918,-0.06799647541232581,172.71221851445264,4.889453294679771,-57.935807135297,2
1767131138.707,2,right_wrist,-0.1347,0.0244,-0.9609,0.98,-2.59,-0.42,0.05341310117783022,0.7648409639134822,0.640286813093164,-0.04688429930650529,178.74614633717908,8.054644016515232,79.78050623922432,2
1767131138.722,1,left_wrist,-0.0771,0.12,-0.975,1.4,-5.04,17.78,0.034935953477991305,0.8736407133245881,-0.4805287322395918,-0.06799647541232581,172.71221851445264,4.889453294679771,-57.935807135297,2
1767131138.722,2,right_wrist,-0.1347,0.0244,-0.9609,0.98,-2.59,-0.42,0.05341310117783022,0.7648409639134822,0.640286813093164,-0.04688429930650529,178.74614633717908,8.054644016515232,79.78050623922432,2
1767131138.736,1,left_wrist,-0.0771,0.12,-0.975,1.4,-5.04,17.78,0.034935953477991305,0.8736407133245881,-0.4805287322395918,-0.06799647541232581,172.71221851445264,4.889453294679771,-57.935807135297,2
1767131138.736,2,right_wrist,-0.1347,0.0244,-0.9609,0.98,-2.59,-0.42,0.05341310117783022,0.7648409639134822,0.640286813093164,-0.04688429930650529,178.74614633717908,8.054644016515232,79.78050623922432,2
1767131138.758,1,left_wrist,-0.0771,0.12,-0.975,1.4,-5.04,17.78,0.034935953477991305,0.8736407133245881,-0.4805287322395918,-0.06799647541232581,172.71221851445264,4.889453294679771,-57.935807135297,2
1767131138.758,2,right_wrist,-0.1347,0.0244,-0.9609,0.98,-2.59,-0.42,0.05341310117783022,0.7648409639134822,0.640286813093164,-0.04688429930650529,178.74614633717908,8.054644016515232,79.78050623922432,2
1767131138.781,1,left_wrist,-0.0771,0.12,-0.975,1.4,-5.04,17.78,0.034935953477991305,0.8736407133245881,-0.4805287322395918,-0.06799647541232581,172.71221851445264,4.889453294679771,-57.935807135297,2
1767131138.781,2,right_wrist,-0.1347,0.0244,-0.9609,0.98,-2.59,-0.42,0.05341310117783022,0.7648409639134822,0.640286813093164,-0.04688429930650529,178.74614633717908,8.054644016515232,79.78050623922432,2
1767131138.808,1,left_wrist,-0.0771,0.12,-0.975,1.4,-5.04,17.78,0.034935953477991305,0.8736407133245881,-0.4805287322395918,-0.06799647541232581,172.71221851445264,4.889453294679771,-57.935807135297,2
1767131138.808,2,right_wrist,-0.1347,0.0244,-0.9609,0.98,-2.59,-0.42,0.05341310117783022,0.7648409639134822,0.640286813093164,-0.04688429930650529,178.74614633717908,8.054644016515232,79.78050623922432,2
1767131138.835,1,left_wrist,-0.0771,0.12,-0.975,1.4,-5.04,17.78,0.034935953477991305,0.8736407133245881,-0.4805287322395918,-0.06799647541232581,172.71221851445264,4.889453294679771,-57.935807135297,2
1767131138.835,2,right_wrist,-0.1347,0.0244,-0.9609,0.98,-2.59,-0.42,0.05341310117783022,0.7648409639134822,0.640286813093164,-0.04688429930650529,178.74614633717908,8.054644016515232,79.78050623922432,2
1767131138.864,1,left_wrist,-0.0771,0.12,-0.975,1.4,-5.04,17.78,0.034935953477991305,0.8736407133245881,-0.4805287322395918,-0.06799647541232581,172.71221851445264,4.889453294679771,-57.935807135297,2
1767131138.864,2,right_wrist,-0.1347,0.0244,-0.9609,0.98,-2.59,-0.42,0.05341310117783022,0.7648409639134822,0.640286813093164,-0.04688429930650529,178.74614633717908,8.054644016515232,79.78050623922432,2
1767131138.886,1,left_wrist,-0.0771,0.12,-0.975,1.4,-5.04,17.78,0.034935953477991305,0.8736407133245881,-0.4805287322395918,-0.06799647541232581,172.71221851445264,4.889453294679771,-57.935807135297,2
1767131138.886,2,right_wrist,-0.1347,0.0244,-0.9609,0.98,-2.59,-0.42,0.05341310117783022,0.7648409639134822,0.640286813093164,-0.04688429930650529,178.74614633717908,8.054644016515232,79.78050623922432,2
1767131138.907,1,left_wrist,-0.0771,0.12,-0.975,1.4,-5.04,17.78,0.034935953477991305,0.8736407133245881,-0.4805287322395918,-0.06799647541232581,172.71221851445264,4.889453294679771,-57.935807135297,2
1767131138.907,2,right_wrist,-0.1347,0.0244,-0.9609,0.98,-2.59,-0.42,0.05341310117783022,0.7648409639134822,0.640286813093164,-0.04688429930650529,178.74614633717908,8.054644016515232,79.78050623922432,2
1767131138.929,1,left_wrist,-0.0771,0.12,-0.975,1.4,-5.04,17.78,0.034935953477991305,0.8736407133245881,-0.4805287322395918,-0.06799647541232581,172.71221851445264,4.889453294679771,-57.935807135297,2
1767131138.929,2,right_wrist,-0.1347,0.0244,-0.9609,0.98,-2.59,-0.42,0.05341310117783022,0.7648409639134822,0.640286813093164,-0.04688429930650529,178.74614633717908,8.054644016515232,79.78050623922432,2
1767131138.954,1,left_wrist,-0.0771,0.12,-0.975,1.4,-5.04,17.78,0.034935953477991305,0.8736407133245881,-0.4805287322395918,-0.06799647541232581,172.71221851445264,4.889453294679771,-57.935807135297,2
1767131138.954,2,right_wrist,-0.1347,0.0244,-0.9609,0.98,-2.59,-0.42,0.05341310117783022,0.7648409639134822,0.640286813093164,-0.04688429930650529,178.74614633717908,8.054644016515232,79.78050623922432,2
1767131138.979,1,left_wrist,-0.0771,0.12,-0.975,1.4,-5.04,17.78,0.034935953477991305,0.8736407133245881,-0.4805287322395918,-0.06799647541232581,172.71221851445264,4.889453294679771,-57.935807135297,2
1767131138.979,2,right_wrist,-0.1347,0.0244,-0.9609,0.98,-2.59,-0.42,0.05341310117783022,0.7648409639134822,0.640286813093164,-0.04688429930650529,178.74614633717908,8.054644016515232,79.78050623922432,2
1767131139.008,1,left_wrist,-0.0771,0.12,-0.975,1.4,-5.04,17.78,0.034935953477991305,0.8736407133245881,-0.4805287322395918,-0.06799647541232581,172.71221851445264,4.889453294679771,-57.935807135297,2
1767131139.008,2,right_wrist,-0.1347,0.0244,-0.9609,0.98,-2.59,-0.42,0.05341310117783022,0.7648409639134822,0.640286813093164,-0.04688429930650529,178.74614633717908,8.054644016515232,79.78050623922432,2
1767131139.03,1,left_wrist,-0.0771,0.12,-0.975,1.4,-5.04,17.78,0.034935953477991305,0.8736407133245881,-0.4805287322395918,-0.06799647541232581,172.71221851445264,4.889453294679771,-57.935807135297,2
1767131139.03,2,right_wrist,-0.1347,0.0244,-0.9609,0.98,-2.59,-0.42,0.05341310117783022,0.7648409639134822,0.640286813093164,-0.04688429930650529,178.74614633717908,8.054644016515232,79.78050623922432,2
1767131139.053,1,left_wrist,-0.0771,0.12,-0.975,1.4,-5.04,17.78,0.034935953477991305,0.8736407133245881,-0.4805287322395918,-0.06799647541232581,172.71221851445264,4.889453294679771,-57.935807135297,2
1767131139.053,2,right_wrist,-0.1347,0.0244,-0.9609,0.98,-2.59,-0.42,0.05341310117783022,0.7648409639134822,0.640286813093164,-0.04688429930650529,178.74614633717908,8.054644016515232,79.78050623922432,2
1767131139.075,1,left_wrist,-0.0771,0.12,-0.975,1.4,-5.04,17.78,0.034935953477991305,0.8736407133245881,-0.4805287322395918,-0.06799647541232581,172.71221851445264,4.889453294679771,-57.935807135297,2
1767131139.075,2,right_wrist,-0.1347,0.0244,-0.9609,0.98,-2.59,-0.42,0.05341310117783022,0.7648409639134822,0.640286813093164,-0.04688429930650529,178.74614633717908,8.054644016515232,79.78050623922432,2
1767131139.098,1,left_wrist,-0.0771,0.12,-0.975,1.4,-5.04,17.78,0.034935953477991305,0.8736407133245881,-0.4805287322395918,-0.06799647541232581,172.71221851445264,4.889453294679771,-57.935807135297,2
1767131139.098,2,right_wrist,-0.1347,0.0244,-0.9609,0.98,-2.59,-0.42,0.05341310117783022,0.7648409639134822,0.640286813093164,-0.04688429930650529,178.74614633717908,8.054644016515232,79.78050623922432,2
1767131139.113,1,left_wrist,-0.0771,0.12,-0.975,1.4,-5.04,17.78,0.034935953477991305,0.8736407133245881,-0.4805287322395918,-0.06799647541232581,172.71221851445264,4.889453294679771,-57.935807135297,2
1767131139.113,2,right_wrist,-0.1347,0.0244,-0.9609,0.98,-2.59,-0.42,0.05341310117783022,0.7648409639134822,0.640286813093164,-0.04688429930650529,178.74614633717908,8.054644016515232,79.78050623922432,2
1767131139.13,1,left_wrist,-0.0771,0.12,-0.975,1.4,-5.04,17.78,0.034935953477991305,0.8736407133245881,-0.4805287322395918,-0.06799647541232581,172.71221851445264,4.889453294679771,-57.935807135297,2
1767131139.13,2,right_wrist,-0.1347,0.0244,-0.9609,0.98,-2.59,-0.42,0.05341310117783022,0.7648409639134822,0.640286813093164,-0.04688429930650529,178.74614633717908,8.054644016515232,79.78050623922432,2
1767131139.147,1,left_wrist,-0.0771,0.12,-0.975,1.4,-5.04,17.78,0.034935953477991305,0.8736407133245881,-0.4805287322395918,-0.06799647541232581,172.71221851445264,4.889453294679771,-57.935807135297,2
1767131139.147,2,right_wrist,-0.1347,0.0244,-0.9609,0.98,-2.59,-0.42,0.05341310117783022,0.7648409639134822,0.640286813093164,-0.04688429930650529,178.74614633717908,8.054644016515232,79.78050623922432,2
1767131139.167,1,left_wrist,-0.0771,0.12,-0.975,1.4,-5.04,17.78,0.034935953477991305,0.8736407133245881,-0.4805287322395918,-0.06799647541232581,172.71221851445264,4.889453294679771,-57.935807135297,2
1767131139.167,2,right_wrist,-0.1347,0.0244,-0.9609,0.98,-2.59,-0.42,0.05341310117783022,0.7648409639134822,0.640286813093164,-0.04688429930650529,178.74614633717908,8.054644016515232,79.78050623922432,2
1767131139.187,1,left_wrist,-0.0771,0.12,-0.975,1.4,-5.04,17.78,0.034935953477991305,0.8736407133245881,-0.4805287322395918,-0.06799647541232581,172.71221851445264,4.889453294679771,-57.935807135297,2
1767131139.187,2,right_wrist,-0.1347,0.0244,-0.9609,0.98,-2.59,-0.42,0.05341310117783022,0.7648409639134822,0.640286813093164,-0.04688429930650529,178.74614633717908,8.054644016515232,79.78050623922432,2
1767131139.207,1,left_wrist,-0.0771,0.12,-0.975,1.4,-5.04,17.78,0.034935953477991305,0.8736407133245881,-0.4805287322395918,-0.06799647541232581,172.71221851445264,4.889453294679771,-57.935807135297,2
1767131139.207,2,right_wrist,-0.1347,0.0244,-0.9609,0.98,-2.59,-0.42,0.05341310117783022,0.7648409639134822,0.640286813093164,-0.04688429930650529,178.74614633717908,8.054644016515232,79.78050623922432,2
1767131139.228,1,left_wrist,-0.0771,0.12,-0.975,1.4,-5.04,17.78,0.034935953477991305,0.8736407133245881,-0.4805287322395918,-0.06799647541232581,172.71221851445264,4.889453294679771,-57.935807135297,2
1767131139.228,2,right_wrist,-0.1347,0.0244,-0.9609,0.98,-2.59,-0.42,0.05341310117783022,0.7648409639134822,0.640286813093164,-0.04688429930650529,178.74614633717908,8.054644016515232,79.78050623922432,2
1767131139.24,1,left_wrist,-0.0771,0.12,-0.975,1.4,-5.04,17.78,0.034935953477991305,0.8736407133245881,-0.4805287322395918,-0.06799647541232581,172.71221851445264,4.889453294679771,-57.935807135297,2
1767131139.24,2,right_wrist,-0.1347,0.0244,-0.9609,0.98,-2.59,-0.42,0.05341310117783022,0.7648409639134822,0.640286813093164,-0.04688429930650529,178.74614633717908,8.054644016515232,79.78050623922432,2
1767131139.254,1,left_wrist,-0.0771,0.12,-0.975,1.4,-5.04,17.78,0.034935953477991305,0.8736407133245881,-0.4805287322395918,-0.06799647541232581,172.71221851445264,4.889453294679771,-57.935807135297,2
1767131139.254,2,right_wrist,-0.1347,0.0244,-0.9609,0.98,-2.59,-0.42,0.05341310117783022,0.7648409639134822,0.640286813093164,-0.04688429930650529,178.74614633717908,8.054644016515232,79.78050623922432,2
1767131139.267,1,left_wrist,-0.0771,0.12,-0.975,1.4,-5.04,17.78,0.034935953477991305,0.8736407133245881,-0.4805287322395918,-0.06799647541232581,172.71221851445264,4.889453294679771,-57.935807135297,2
1767131139.267,2,right_wrist,-0.1347,0.0244,-0.9609,0.98,-2.59,-0.42,0.05341310117783022,0.7648409639134822,0.640286813093164,-0.04688429930650529,178.74614633717908,8.054644016515232,79.78050623922432,2
1767131139.281,1,left_wrist,-0.0771,0.12,-0.975,1.4,-5.04,17.78,0.034935953477991305,0.8736407133245881,-0.4805287322395918,-0.06799647541232581,172.71221851445264,4.889453294679771,-57.935807135297,2
1767131139.281,2,right_wrist,-0.1347,0.0244,-0.9609,0.98,-2.59,-0.42,0.05341310117783022,0.7648409639134822,0.640286813093164,-0.04688429930650529,178.74614633717908,8.054644016515232,79.78050623922432,2
1767131139.298,1,left_wrist,-0.0771,0.12,-0.975,1.4,-5.04,17.78,0.034935953477991305,0.8736407133245881,-0.4805287322395918,-0.06799647541232581,172.71221851445264,4.889453294679771,-57.935807135297,2
1767131139.298,2,right_wrist,-0.1347,0.0244,-0.9609,0.98,-2.59,-0.42,0.05341310117783022,0.7648409639134822,0.640286813093164,-0.04688429930650529,178.74614633717908,8.054644016515232,79.78050623922432,2
1767131139.318,1,left_wrist,-0.0771,0.12,-0.975,1.4,-5.04,17.78,0.034935953477991305,0.8736407133245881,-0.4805287322395918,-0.06799647541232581,172.71221851445264,4.889453294679771,-57.935807135297,2
1767131139.318,2,right_wrist,-0.1347,0.0244,-0.9609,0.98,-2.59,-0.42,0.05341310117783022,0.7648409639134822,0.640286813093164,-0.04688429930650529,178.74614633717908,8.054644016515232,79.78050623922432,2
1767131139.332,1,left_wrist,-0.0771,0.12,-0.975,1.4,-5.04,17.78,0.034935953477991305,0.8736407133245881,-0.4805287322395918,-0.06799647541232581,172.71221851445264,4.889453294679771,-57.935807135297,2
1767131139.332,2,right_wrist,-0.1347,0.0244,-0.9609,0.98,-2.59,-0.42,0.05341310117783022,0.7648409639134822,0.640286813093164,-0.04688429930650529,178.74614633717908,8.054644016515232,79.78050623922432,2
1767131139.349,1,left_wrist,-0.0771,0.12,-0.975,1.4,-5.04,17.78,0.034935953477991305,0.8736407133245881,-0.4805287322395918,-0.06799647541232581,172.71221851445264,4.889453294679771,-57.935807135297,2
1767131139.349,2,right_wrist,-0.1347,0.0244,-0.9609,0.98,-2.59,-0.42,0.05341310117783022,0.7648409639134822,0.640286813093164,-0.04688429930650529,178.74614633717908,8.054644016515232,79.78050623922432,2
1767131139.365,1,left_wrist,-0.0771,0.12,-0.975,1.4,-5.04,17.78,0.034935953477991305,0.8736407133245881,-0.4805287322395918,-0.06799647541232581,172.71221851445264,4.889453294679771,-57.935807135297,2
1767131139.365,2,right_wrist,-0.1347,0.0244,-0.9609,0.98,-2.59,-0.42,0.05341310117783022,0.7648409639134822,0.640286813093164,-0.04688429930650529,178.74614633717908,8.054644016515232,79.78050623922432,2
1767131139.385,1,left_wrist,-0.0771,0.12,-0.975,1.4,-5.04,17.78,0.034935953477991305,0.8736407133245881,-0.4805287322395918,-0.06799647541232581,172.71221851445264,4.889453294679771,-57.935807135297,2
1767131139.385,2,right_wrist,-0.1347,0.0244,-0.9609,0.98,-2.59,-0.42,0.05341310117783022,0.7648409639134822,0.640286813093164,-0.04688429930650529,178.74614633717908,8.054644016515232,79.78050623922432,2
1767131139.403,1,left_wrist,-0.0771,0.12,-0.975,1.4,-5.04,17.78,0.034935953477991305,0.8736407133245881,-0.4805287322395918,-0.06799647541232581,172.71221851445264,4.889453294679771,-57.935807135297,2
1767131139.403,2,right_wrist,-0.1347,0.0244,-0.9609,0.98,-2.59,-0.42,0.05341310117783022,0.7648409639134822,0.640286813093164,-0.04688429930650529,178.74614633717908,8.054644016515232,79.78050623922432,2
1767131139.423,1,left_wrist,-0.0771,0.12,-0.975,1.4,-5.04,17.78,0.034935953477991305,0.8736407133245881,-0.4805287322395918,-0.06799647541232581,172.71221851445264,4.889453294679771,-57.935807135297,2
1767131139.423,2,right_wrist,-0.1347,0.0244,-0.9609,0.98,-2.59,-0.42,0.05341310117783022,0.7648409639134822,0.640286813093164,-0.04688429930650529,178.74614633717908,8.054644016515232,79.78050623922432,2
1767131139.444,1,left_wrist,-0.0771,0.12,-0.975,1.4,-5.04,17.78,0.034935953477991305,0.8736407133245881,-0.4805287322395918,-0.06799647541232581,172.71221851445264,4.889453294679771,-57.935807135297,2
1767131139.444,2,right_wrist,-0.1347,0.0244,-0.9609,0.98,-2.59,-0.42,0.05341310117783022,0.7648409639134822,0.640286813093164,-0.04688429930650529,178.74614633717908,8.054644016515232,79.78050623922432,2
1767131139.457,1,left_wrist,-0.0771,0.12,-0.975,1.4,-5.04,17.78,0.034935953477991305,0.8736407133245881,-0.4805287322395918,-0.06799647541232581,172.71221851445264,4.889453294679771,-57.935807135297,2
1767131139.457,2,right_wrist,-0.1347,0.0244,-0.9609,0.98,-2.59,-0.42,0.05341310117783022,0.7648409639134822,0.640286813093164,-0.04688429930650529,178.74614633717908,8.054644016515232,79.78050623922432,2
1767131139.47,1,left_wrist,-0.0771,0.12,-0.975,1.4,-5.04,17.78,0.034935953477991305,0.8736407133245881,-0.4805287322395918,-0.06799647541232581,172.71221851445264,4.889453294679771,-57.935807135297,2
1767131139.47,2,right_wrist,-0.1347,0.0244,-0.9609,0.98,-2.59,-0.42,0.05341310117783022,0.7648409639134822,0.640286813093164,-0.04688429930650529,178.74614633717908,8.054644016515232,79.78050623922432,2
1767131139.484,1,left_wrist,-0.0771,0.12,-0.975,1.4,-5.04,17.78,0.034935953477991305,0.8736407133245881,-0.4805287322395918,-0.06799647541232581,172.71221851445264,4.889453294679771,-57.935807135297,2
1767131139.484,2,right_wrist,-0.1347,0.0244,-0.9609,0.98,-2.59,-0.42,0.05341310117783022,0.7648409639134822,0.640286813093164,-0.04688429930650529,178.74614633717908,8.054644016515232,79.78050623922432,2
1767131139.497,1,left_wrist,-0.0771,0.12,-0.975,1.4,-5.04,17.78,0.034935953477991305,0.8736407133245881,-0.4805287322395918,-0.06799647541232581,172.71221851445264,4.889453294679771,-57.935807135297,2
1767131139.497,2,right_wrist,-0.1347,0.0244,-0.9609,0.98,-2.59,-0.42,0.05341310117783022,0.7648409639134822,0.640286813093164,-0.04688429930650529,178.74614633717908,8.054644016515232,79.78050623922432,2
1767131139.512,1,left_wrist,-0.0771,0.12,-0.975,1.4,-5.04,17.78,0.034935953477991305,0.8736407133245881,-0.4805287322395918,-0.06799647541232581,172.71221851445264,4.889453294679771,-57.935807135297,2
1767131139.512,2,right_wrist,-0.1347,0.0244,-0.9609,0.98,-2.59,-0.42,0.05341310117783022,0.7648409639134822,0.640286813093164,-0.04688429930650529,178.74614633717908,8.054644016515232,79.78050623922432,2
1767131139.53,1,left_wrist,-0.0771,0.12,-0.975,1.4,-5.04,17.78,0.034935953477991305,0.8736407133245881,-0.4805287322395918,-0.06799647541232581,172.71221851445264,4.889453294679771,-57.935807135297,2
1767131139.53,2,right_wrist,-0.1347,0.0244,-0.9609,0.98,-2.59,-0.42,0.05341310117783022,0.7648409639134822,0.640286813093164,-0.04688429930650529,178.74614633717908,8.054644016515232,79.78050623922432,2
1767131139.549,1,left_wrist,-0.0771,0.12,-0.975,1.4,-5.04,17.78,0.034935953477991305,0.8736407133245881,-0.4805287322395918,-0.06799647541232581,172.71221851445264,4.889453294679771,-57.935807135297,2
1767131139.549,2,right_wrist,-0.1347,0.0244,-0.9609,0.98,-2.59,-0.42,0.05341310117783022,0.7648409639134822,0.640286813093164,-0.04688429930650529,178.74614633717908,8.054644016515232,79.78050623922432,2
1767131139.565,1,left_wrist,-0.0771,0.12,-0.975,1.4,-5.04,17.78,0.034935953477991305,0.8736407133245881,-0.4805287322395918,-0.06799647541232581,172.71221851445264,4.889453294679771,-57.935807135297,2
1767131139.565,2,right_wrist,-0.1347,0.0244,-0.9609,0.98,-2.59,-0.42,0.05341310117783022,0.7648409639134822,0.640286813093164,-0.04688429930650529,178.74614633717908,8.054644016515232,79.78050623922432,2
1767131139.583,1,left_wrist,-0.0771,0.12,-0.975,1.4,-5.04,17.78,0.034935953477991305,0.8736407133245881,-0.4805287322395918,-0.06799647541232581,172.71221851445264,4.889453294679771,-57.935807135297,2
1767131139.583,2,right_wrist,-0.1347,0.0244,-0.9609,0.98,-2.59,-0.42,0.05341310117783022,0.7648409639134822,0.640286813093164,-0.04688429930650529,178.74614633717908,8.054644016515232,79.78050623922432,2
1767131139.603,1,left_wrist,-0.0771,0.12,-0.975,1.4,-5.04,17.78,0.034935953477991305,0.8736407133245881,-0.4805287322395918,-0.06799647541232581,172.71221851445264,4.889453294679771,-57.935807135297,2
1767131139.603,2,right_wrist,-0.1347,0.0244,-0.9609,0.98,-2.59,-0.42,0.05341310117783022,0.7648409639134822,0.640286813093164,-0.04688429930650529,178.74614633717908,8.054644016515232,79.78050623922432,2
1767131139.621,1,left_wrist,-0.0771,0.12,-0.975,1.4,-5.04,17.78,0.034935953477991305,0.8736407133245881,-0.4805287322395918,-0.06799647541232581,172.71221851445264,4.889453294679771,-57.935807135297,2
1767131139.621,2,right_wrist,-0.1347,0.0244,-0.9609,0.98,-2.59,-0.42,0.05341310117783022,0.7648409639134822,0.640286813093164,-0.04688429930650529,178.74614633717908,8.054644016515232,79.78050623922432,2
1767131139.642,1,left_wrist,-0.0771,0.12,-0.975,1.4,-5.04,17.78,0.034935953477991305,0.8736407133245881,-0.4805287322395918,-0.06799647541232581,172.71221851445264,4.889453294679771,-57.935807135297,2
1767131139.642,2,right_wrist,-0.1347,0.0244,-0.9609,0.98,-2.59,-0.42,0.05341310117783022,0.7648409639134822,0.640286813093164,-0.04688429930650529,178.74614633717908,8.054644016515232,79.78050623922432,2
1767131139.662,1,left_wrist,-0.0771,0.12,-0.975,1.4,-5.04,17.78,0.034935953477991305,0.8736407133245881,-0.4805287322395918,-0.06799647541232581,172.71221851445264,4.889453294679771,-57.935807135297,2
1767131139.662,2,right_wrist,-0.1347,0.0244,-0.9609,0.98,-2.59,-0.42,0.05341310117783022,0.7648409639134822,0.640286813093164,-0.04688429930650529,178.74614633717908,8.054644016515232,79.78050623922432,2
1767131139.675,1,left_wrist,-0.0771,0.12,-0.975,1.4,-5.04,17.78,0.034935953477991305,0.8736407133245881,-0.4805287322395918,-0.06799647541232581,172.71221851445264,4.889453294679771,-57.935807135297,2
1767131139.675,2,right_wrist,-0.1347,0.0244,-0.9609,0.98,-2.59,-0.42,0.05341310117783022,0.7648409639134822,0.640286813093164,-0.04688429930650529,178.74614633717908,8.054644016515232,79.78050623922432,2
1767131139.688,1,left_wrist,-0.0771,0.12,-0.975,1.4,-5.04,17.78,0.034935953477991305,0.8736407133245881,-0.4805287322395918,-0.06799647541232581,172.71221851445264,4.889453294679771,-57.935807135297,2
1767131139.688,2,right_wrist,-0.1347,0.0244,-0.9609,0.98,-2.59,-0.42,0.05341310117783022,0.7648409639134822,0.640286813093164,-0.04688429930650529,178.74614633717908,8.054644016515232,79.78050623922432,2
1767131139.701,1,left_wrist,-0.0771,0.12,-0.975,1.4,-5.04,17.78,0.034935953477991305,0.8736407133245881,-0.4805287322395918,-0.06799647541232581,172.71221851445264,4.889453294679771,-57.935807135297,2
1767131139.701,2,right_wrist,-0.1347,0.0244,-0.9609,0.98,-2.59,-0.42,0.05341310117783022,0.7648409639134822,0.640286813093164,-0.04688429930650529,178.74614633717908,8.054644016515232,79.78050623922432,2
1767131139.715,1,left_wrist,-0.0771,0.12,-0.975,1.4,-5.04,17.78,0.034935953477991305,0.8736407133245881,-0.4805287322395918,-0.06799647541232581,172.71221851445264,4.889453294679771,-57.935807135297,2
1767131139.715,2,right_wrist,-0.1347,0.0244,-0.9609,0.98,-2.59,-0.42,0.05341310117783022,0.7648409639134822,0.640286813093164,-0.04688429930650529,178.74614633717908,8.054644016515232,79.78050623922432,2
1767131139.73,1,left_wrist,-0.0771,0.12,-0.975,1.4,-5.04,17.78,0.034935953477991305,0.8736407133245881,-0.4805287322395918,-0.06799647541232581,172.71221851445264,4.889453294679771,-57.935807135297,2
1767131139.73,2,right_wrist,-0.1347,0.0244,-0.9609,0.98,-2.59,-0.42,0.05341310117783022,0.7648409639134822,0.640286813093164,-0.04688429930650529,178.74614633717908,8.054644016515232,79.78050623922432,2
1767131139.747,1,left_wrist,-0.0771,0.12,-0.975,1.4,-5.04,17.78,0.034935953477991305,0.8736407133245881,-0.4805287322395918,-0.06799647541232581,172.71221851445264,4.889453294679771,-57.935807135297,2
1767131139.747,2,right_wrist,-0.1347,0.0244,-0.9609,0.98,-2.59,-0.42,0.05341310117783022,0.7648409639134822,0.640286813093164,-0.04688429930650529,178.74614633717908,8.054644016515232,79.78050623922432,2
1767131139.77,1,left_wrist,-0.0771,0.12,-0.975,1.4,-5.04,17.78,0.034935953477991305,0.8736407133245881,-0.4805287322395918,-0.06799647541232581,172.71221851445264,4.889453294679771,-57.935807135297,2
1767131139.77,2,right_wrist,-0.1347,0.0244,-0.9609,0.98,-2.59,-0.42,0.05341310117783022,0.7648409639134822,0.640286813093164,-0.04688429930650529,178.74614633717908,8.054644016515232,79.78050623922432,2
1767131139.796,1,left_wrist,-0.0771,0.12,-0.975,1.4,-5.04,17.78,0.034935953477991305,0.8736407133245881,-0.4805287322395918,-0.06799647541232581,172.71221851445264,4.889453294679771,-57.935807135297,2
1767131139.796,2,right_wrist,-0.1347,0.0244,-0.9609,0.98,-2.59,-0.42,0.05341310117783022,0.7648409639134822,0.640286813093164,-0.04688429930650529,178.74614633717908,8.054644016515232,79.78050623922432,2
1767131139.824,1,left_wrist,-0.0771,0.12,-0.975,1.4,-5.04,17.78,0.034935953477991305,0.8736407133245881,-0.4805287322395918,-0.06799647541232581,172.71221851445264,4.889453294679771,-57.935807135297,2
1767131139.824,2,right_wrist,-0.1347,0.0244,-0.9609,0.98,-2.59,-0.42,0.05341310117783022,0.7648409639134822,0.640286813093164,-0.04688429930650529,178.74614633717908,8.054644016515232,79.78050623922432,2
1767131139.853,1,left_wrist,-0.0771,0.12,-0.975,1.4,-5.04,17.78,0.034935953477991305,0.8736407133245881,-0.4805287322395918,-0.06799647541232581,172.71221851445264,4.889453294679771,-57.935807135297,2
1767131139.853,2,right_wrist,-0.1347,0.0244,-0.9609,0.98,-2.59,-0.42,0.05341310117783022,0.7648409639134822,0.640286813093164,-0.04688429930650529,178.74614633717908,8.054644016515232,79.78050623922432,2
1767131139.881,1,left_wrist,-0.0771,0.12,-0.975,1.4,-5.04,17.78,0.034935953477991305,0.8736407133245881,-0.4805287322395918,-0.06799647541232581,172.71221851445264,4.889453294679771,-57.935807135297,2
1767131139.881,2,right_wrist,-0.1347,0.0244,-0.9609,0.98,-2.59,-0.42,0.05341310117783022,0.7648409639134822,0.640286813093164,-0.04688429930650529,178.74614633717908,8.054644016515232,79.78050623922432,2
1767131139.911,1,left_wrist,-0.0771,0.12,-0.975,1.4,-5.04,17.78,0.034935953477991305,0.8736407133245881,-0.4805287322395918,-0.06799647541232581,172.71221851445264,4.889453294679771,-57.935807135297,2
1767131139.911,2,right_wrist,-0.1347,0.0244,-0.9609,0.98,-2.59,-0.42,0.05341310117783022,0.7648409639134822,0.640286813093164,-0.04688429930650529,178.74614633717908,8.054644016515232,79.78050623922432,2
1767131139.934,1,left_wrist,-0.0771,0.12,-0.975,1.4,-5.04,17.78,0.034935953477991305,0.8736407133245881,-0.4805287322395918,-0.06799647541232581,172.71221851445264,4.889453294679771,-57.935807135297,2
1767131139.934,2,right_wrist,-0.1347,0.0244,-0.9609,0.98,-2.59,-0.42,0.05341310117783022,0.7648409639134822,0.640286813093164,-0.04688429930650529,178.74614633717908,8.054644016515232,79.78050623922432,2
1767131139.956,1,left_wrist,-0.0771,0.12,-0.975,1.4,-5.04,17.78,0.034935953477991305,0.8736407133245881,-0.4805287322395918,-0.06799647541232581,172.71221851445264,4.889453294679771,-57.935807135297,2
1767131139.956,2,right_wrist,-0.1347,0.0244,-0.9609,0.98,-2.59,-0.42,0.05341310117783022,0.7648409639134822,0.640286813093164,-0.04688429930650529,178.74614633717908,8.054644016515232,79.78050623922432,2
1767131139.978,1,left_wrist,-0.0771,0.12,-0.975,1.4,-5.04,17.78,0.034935953477991305,0.8736407133245881,-0.4805287322395918,-0.06799647541232581,172.71221851445264,4.889453294679771,-57.935807135297,2
1767131139.978,2,right_wrist,-0.1347,0.0244,-0.9609,0.98,-2.59,-0.42,0.05341310117783022,0.7648409639134822,0.640286813093164,-0.04688429930650529,178.74614633717908,8.054644016515232,79.78050623922432,2
1767131140.003,1,left_wrist,-0.0771,0.12,-0.975,1.4,-5.04,17.78,0.034935953477991305,0.8736407133245881,-0.4805287322395918,-0.06799647541232581,172.71221851445264,4.889453294679771,-57.935807135297,2
1767131140.003,2,right_wrist,-0.1347,0.0244,-0.9609,0.98,-2.59,-0.42,0.05341310117783022,0.7648409639134822,0.640286813093164,-0.04688429930650529,178.74614633717908,8.054644016515232,79.78050623922432,2
1767131140.028,1,left_wrist,-0.0771,0.12,-0.975,1.4,-5.04,17.78,0.034935953477991305,0.8736407133245881,-0.4805287322395918,-0.06799647541232581,172.71221851445264,4.889453294679771,-57.935807135297,2
1767131140.028,2,right_wrist,-0.1347,0.0244,-0.9609,0.98,-2.59,-0.42,0.05341310117783022,0.7648409639134822,0.640286813093164,-0.04688429930650529,178.74614633717908,8.054644016515232,79.78050623922432,2
1767131140.055,1,left_wrist,-0.0771,0.12,-0.975,1.4,-5.04,17.78,0.034935953477991305,0.8736407133245881,-0.4805287322395918,-0.06799647541232581,172.71221851445264,4.889453294679771,-57.935807135297,2
1767131140.055,2,right_wrist,-0.1347,0.0244,-0.9609,0.98,-2.59,-0.42,0.05341310117783022,0.7648409639134822,0.640286813093164,-0.04688429930650529,178.74614633717908,8.054644016515232,79.78050623922432,2
1767131140.084,1,left_wrist,-0.0771,0.12,-0.975,1.4,-5.04,17.78,0.034935953477991305,0.8736407133245881,-0.4805287322395918,-0.06799647541232581,172.71221851445264,4.889453294679771,-57.935807135297,2
1767131140.084,2,right_wrist,-0.1347,0.0244,-0.9609,0.98,-2.59,-0.42,0.05341310117783022,0.7648409639134822,0.640286813093164,-0.04688429930650529,178.74614633717908,8.054644016515232,79.78050623922432,2
1767131140.113,1,left_wrist,-0.0771,0.12,-0.975,1.4,-5.04,17.78,0.034935953477991305,0.8736407133245881,-0.4805287322395918,-0.06799647541232581,172.71221851445264,4.889453294679771,-57.935807135297,2
1767131140.113,2,right_wrist,-0.1347,0.0244,-0.9609,0.98,-2.59,-0.42,0.05341310117783022,0.7648409639134822,0.640286813093164,-0.04688429930650529,178.74614633717908,8.054644016515232,79.78050623922432,2
1767131140.137,1,left_wrist,-0.0771,0.12,-0.975,1.4,-5.04,17.78,0.034935953477991305,0.8736407133245881,-0.4805287322395918,-0.06799647541232581,172.71221851445264,4.889453294679771,-57.935807135297,2
1767131140.137,2,right_wrist,-0.1347,0.0244,-0.9609,0.98,-2.59,-0.42,0.05341310117783022,0.7648409639134822,0.640286813093164,-0.04688429930650529,178.74614633717908,8.054644016515232,79.78050623922432,2
1767131140.15,1,left_wrist,-0.0771,0.12,-0.975,1.4,-5.04,17.78,0.034935953477991305,0.8736407133245881,-0.4805287322395918,-0.06799647541232581,172.71221851445264,4.889453294679771,-57.935807135297,2
1767131140.15,2,right_wrist,-0.1347,0.0244,-0.9609,0.98,-2.59,-0.42,0.05341310117783022,0.7648409639134822,0.640286813093164,-0.04688429930650529,178.74614633717908,8.054644016515232,79.78050623922432,2
1767131140.163,1,left_wrist,-0.0771,0.12,-0.975,1.4,-5.04,17.78,0.034935953477991305,0.8736407133245881,-0.4805287322395918,-0.06799647541232581,172.71221851445264,4.889453294679771,-57.935807135297,2
1767131140.163,2,right_wrist,-0.1347,0.0244,-0.9609,0.98,-2.59,-0.42,0.05341310117783022,0.7648409639134822,0.640286813093164,-0.04688429930650529,178.74614633717908,8.054644016515232,79.78050623922432,2
1767131140.18,1,left_wrist,-0.0771,0.12,-0.975,1.4,-5.04,17.78,0.034935953477991305,0.8736407133245881,-0.4805287322395918,-0.06799647541232581,172.71221851445264,4.889453294679771,-57.935807135297,2
1767131140.18,2,right_wrist,-0.1347,0.0244,-0.9609,0.98,-2.59,-0.42,0.05341310117783022,0.7648409639134822,0.640286813093164,-0.04688429930650529,178.74614633717908,8.054644016515232,79.78050623922432,2
1767131140.197,1,left_wrist,-0.0771,0.12,-0.975,1.4,-5.04,17.78,0.034935953477991305,0.8736407133245881,-0.4805287322395918,-0.06799647541232581,172.71221851445264,4.889453294679771,-57.935807135297,2
1767131140.197,2,right_wrist,-0.1347,0.0244,-0.9609,0.98,-2.59,-0.42,0.05341310117783022,0.7648409639134822,0.640286813093164,-0.04688429930650529,178.74614633717908,8.054644016515232,79.78050623922432,2
1767131140.215,1,left_wrist,-0.0771,0.12,-0.975,1.4,-5.04,17.78,0.034935953477991305,0.8736407133245881,-0.4805287322395918,-0.06799647541232581,172.71221851445264,4.889453294679771,-57.935807135297,2
1767131140.215,2,right_wrist,-0.1347,0.0244,-0.9609,0.98,-2.59,-0.42,0.05341310117783022,0.7648409639134822,0.640286813093164,-0.04688429930650529,178.74614633717908,8.054644016515232,79.78050623922432,2
1767131140.232,1,left_wrist,-0.0771,0.12,-0.975,1.4,-5.04,17.78,0.034935953477991305,0.8736407133245881,-0.4805287322395918,-0.06799647541232581,172.71221851445264,4.889453294679771,-57.935807135297,2
1767131140.232,2,right_wrist,-0.1347,0.0244,-0.9609,0.98,-2.59,-0.42,0.05341310117783022,0.7648409639134822,0.640286813093164,-0.04688429930650529,178.74614633717908,8.054644016515232,79.78050623922432,2
1767131140.249,1,left_wrist,-0.0771,0.12,-0.975,1.4,-5.04,17.78,0.034935953477991305,0.8736407133245881,-0.4805287322395918,-0.06799647541232581,172.71221851445264,4.889453294679771,-57.935807135297,2
1767131140.249,2,right_wrist,-0.1347,0.0244,-0.9609,0.98,-2.59,-0.42,0.05341310117783022,0.7648409639134822,0.640286813093164,-0.04688429930650529,178.74614633717908,8.054644016515232,79.78050623922432,2
1767131140.269,1,left_wrist,-0.0771,0.12,-0.975,1.4,-5.04,17.78,0.034935953477991305,0.8736407133245881,-0.4805287322395918,-0.06799647541232581,172.71221851445264,4.889453294679771,-57.935807135297,2
1767131140.269,2,right_wrist,-0.1347,0.0244,-0.9609,0.98,-2.59,-0.42,0.05341310117783022,0.7648409639134822,0.640286813093164,-0.04688429930650529,178.74614633717908,8.054644016515232,79.78050623922432,2
1767131140.287,1,left_wrist,-0.0771,0.12,-0.975,1.4,-5.04,17.78,0.034935953477991305,0.8736407133245881,-0.4805287322395918,-0.06799647541232581,172.71221851445264,4.889453294679771,-57.935807135297,2
1767131140.287,2,right_wrist,-0.1347,0.0244,-0.9609,0.98,-2.59,-0.42,0.05341310117783022,0.7648409639134822,0.640286813093164,-0.04688429930650529,178.74614633717908,8.054644016515232,79.78050623922432,2
1767131140.306,1,left_wrist,-0.0771,0.12,-0.975,1.4,-5.04,17.78,0.034935953477991305,0.8736407133245881,-0.4805287322395918,-0.06799647541232581,172.71221851445264,4.889453294679771,-57.935807135297,2
