timestamp,node_id,node_name,ax,ay,az,gx,gy,gz,qw,qx,qy,qz,roll,pitch,yaw,rep_number
1767649944.767623,1,left_wrist,-0.4563,-0.7544,-0.325,15.96,2.45,-0.07,-0.4742952226414766,0.3095363297941472,-0.7337710350320646,0.37524841167553713,-107.63899036294463,27.628847180538077,-113.8659969486935,1
1767649944.767623,2,right_wrist,-0.4817,0.8369,-0.2791,2.87,-5.18,-2.17,0.5867909679044372,0.7617812283073101,0.24210529826039695,-0.1294246681997835,108.4806261174661,28.771450777254767,14.331432437812127,1
1767649944.823453,1,left_wrist,-0.4641,-0.7754,-0.3411,10.99,0.14,1.19,-0.47438209279251087,0.30693099019133163,-0.7344741444611984,0.3759025517550484,-107.58640935756227,27.78081880782692,-114.1173756455434,1
1767649944.823453,2,right_wrist,-0.4802,0.8403,-0.2747,-3.71,-5.81,-1.68,0.5912858597270355,0.75924239836167,0.23909643743408723,-0.12947936601330468,107.72792410100821,28.643684974885804,13.840639973856923,1
1767649944.908876,1,left_wrist,-0.4577,-0.8028,-0.3211,-0.42,2.52,1.33,-0.4718240367056471,0.30662529203835154,-0.7374245541053336,0.3735880561149325,-108.15943294641589,27.82458529917475,-114.498525390156,1
1767649944.908876,2,right_wrist,-0.5026,0.8516,-0.2752,0.98,-3.15,-4.62,0.5904513754704549,0.7590029940250135,0.239683231873951,-0.1335424150769003,107.79046077407119,29.062328255336844,13.640749570111902,1
1767649944.9604852,1,left_wrist,-0.4494,-0.7706,-0.3421,21.84,1.33,2.38,-0.47280819081444514,0.3015443717369977,-0.7366663925389827,0.3779497753354431,-107.60726162095229,27.947774399924477,-114.83667789137553,1
1767649944.9604852,2,right_wrist,-0.4807,0.8281,-0.2806,3.5,-5.11,-5.39,0.5868237454042079,0.7612027476151384,0.24027938127617987,-0.13591941651757294,108.32936032300952,29.27013065796147,13.6784689778686,1
1767649945.024545,1,left_wrist,-0.4597,-0.8198,-0.3538,6.23,3.01,4.41,-0.47043150181211807,0.2977503995805532,-0.7406179149017753,0.3761967647109193,-108.1397355929049,28.21584844184392,-115.55210876621295,1
1767649945.024545,2,right_wrist,-0.4939,0.8447,-0.2533,2.24,-4.2,-6.3,0.5890154040825772,0.7589197826838979,0.24017432944710843,-0.13934815635341316,107.9088710194556,29.632889703402906,13.328982238366265,1
1767649945.075853,1,left_wrist,-0.4792,-0.7749,-0.3489,8.12,3.5,6.65,-0.46997686054154775,0.2933281298146558,-0.7431723694990189,0.3752001972656202,-108.36660474133662,28.583179803423786,-116.08836157775522,1
1767649945.075853,2,right_wrist,-0.5061,0.8374,-0.2586,2.66,-0.7,-7.63,0.5901744758797048,0.7565055584392806,0.24249562058125979,-0.14348972809751118,107.66496032428662,30.220623322552402,13.214580364238406,1
1767649945.125952,1,left_wrist,-0.4875,-0.6837,-0.3065,-6.3,6.37,0.91,-0.46731265172333036,0.2919013889494994,-0.7478916882382651,0.3702303166041108,-109.27681973074066,28.872164610602926,-116.6528911719387,1
1767649945.125952,2,right_wrist,-0.4963,0.7896,-0.2791,2.45,-2.17,-5.46,0.5862988409869866,0.7580964172672818,0.2451413423922974,-0.14645549984186423,108.25995178483356,30.63099346182406,13.43675040904024,1
1767649945.203512,1,left_wrist,-0.4719,-0.4636,-0.2865,-18.13,14.63,-19.39,-0.45781528045476677,0.29762442646115084,-0.753428162968786,0.36629342473114995,-110.75647333770873,28.152898755393977,-117.24606334058126,1
1767649945.203512,2,right_wrist,-0.4519,0.5754,-0.2425,-4.13,4.27,29.89,0.581127789232147,0.7647329136719372,0.2392025771751313,-0.1423242439001945,109.09168342870188,29.715563293698395,13.343222128649456,1
1767649945.255834,1,left_wrist,-0.4211,-0.3572,-0.1737,13.86,36.4,-54.6,-0.4412043601975577,0.3042466428039203,-0.7522581225636623,0.38324980094215516,-110.55683663386914,25.505275269636662,-118.13135726185182,1
1767649945.255834,2,right_wrist,-0.2791,0.368,-0.2552,28.42,19.67,86.94,0.5713466655324703,0.7833644859542804,0.21487542640123916,-0.1171819997243569,110.72638113064035,25.412306548934236,12.971550080743983,1
1767649945.3293939,1,left_wrist,-0.0142,-0.4402,-0.1684,7.56,84.63,-154.21,-0.3454331978410037,0.3585046569727676,-0.739526959332128,0.4530454648036479,-110.92145965797495,10.723901567191561,-120.8815333947484,1
1767649945.3293939,2,right_wrist,-0.1981,0.4529,-0.2865,-43.61,28.28,135.38,0.5864104581484664,0.7873271524087716,0.17768848509974214,-0.06830469908402542,108.6187290233071,18.41835876030122,12.149904354737775,1
1767649945.404516,1,left_wrist,0.285,-0.5592,-0.3704,93.87,91.14,-176.12,-0.29045443945308236,0.3841294764655128,-0.703596220927976,0.5225257140162552,-106.5716272395364,0.4177033383089646,-122.42368484469227,1
1767649945.404516,2,right_wrist,0.1742,0.9321,-0.2791,-8.33,45.99,202.65,0.5830184972945444,0.8074113993791767,0.05746003610273677,0.06981839453928382,108.1047328127674,-2.6218420151134905,10.042646808348973,1
1767649947.016989,1,left_wrist,-0.2186,-0.6695,-0.3909,26.67,-37.73,70.42,-0.3650066048141477,0.44380734655506154,-0.7156738148906848,0.3970090783163758,-115.1184635985428,9.791321987605526,-110.15923789661413,2
1767649947.016989,2,right_wrist,-0.3689,0.5036,-0.2874,-6.86,-12.74,-76.44,0.575044759452968,0.7927864253492303,0.1629807188641886,-0.11937543166908392,109.56115367515486,22.130712494001884,7.513441762240312,2
1767649947.06942,1,left_wrist,-0.3279,-0.7037,-0.4016,-4.83,-17.36,53.9,-0.4062133432035107,0.40851115419380224,-0.7304635441049862,0.36678654205989797,-114.79822715929615,17.084112891631538,-110.59374069811463,2
1767649947.06942,2,right_wrist,-0.3914,0.7891,-0.3231,38.15,-11.41,-65.31,0.5562382696611797,0.7976324903776723,0.18290975041220905,-0.14465621612081744,112.13067461521274,25.737440005569464,8.353210820569462,2
1767649947.155133,1,left_wrist,-0.3875,-0.6144,-0.3719,35.56,-15.61,47.32,-0.42654608915117825,0.3876541693387332,-0.732134115837971,0.36299079223898306,-113.37066813491104,20.06878980632768,-110.93186914640006,2
1767649947.155133,2,right_wrist,-0.4875,0.6876,-0.3436,0.84,0.14,-47.18,0.5485301213719276,0.7873006870001118,0.22092056627937867,-0.1745463766213702,113.20994949976121,31.144896532466188,10.527607249561807,2
1767649947.209997,1,left_wrist,-0.4231,-0.7139,-0.3806,-23.87,-11.55,38.01,-0.4334656862067931,0.37984868525614973,-0.7419904259355685,0.3424509935894507,-114.95165487301125,22.52556721353456,-111.30709964332895,2
1767649947.209997,2,right_wrist,-0.5139,0.7096,-0.3274,5.46,-3.29,-43.54,0.5411967360197517,0.784064099988918,0.2373660981552916,-0.18975488261614737,114.2802306552411,33.67514674910929,11.564511497592834,2
1767649947.262157,1,left_wrist,-0.4519,-0.7784,-0.3699,33.67,-8.05,32.06,-0.44917849286416417,0.36164619080893373,-0.7415406714038565,0.3428821180458148,-113.44009261505434,24.71874107833542,-111.63443897875301,2
1767649947.262157,2,right_wrist,-0.5373,0.7935,-0.3411,-10.29,-4.9,-42.56,0.5437083688862954,0.7769659671561691,0.24881123422246285,-0.1969722447675754,113.9128204091561,35.21477120188661,12.18516516747273,2
1767649947.321771,1,left_wrist,-0.5368,-0.7422,-0.364,-5.53,-7.28,30.87,-0.4657870875666713,0.33902793277667365,-0.7523301204968795,0.31953378482796446,-114.43092012298403,28.95938785556735,-112.59720977628987,2
1767649947.321771,2,right_wrist,-0.5695,0.6403,-0.3543,7.21,-1.89,-32.62,0.5354924243056959,0.7758295972577791,0.2610514586359728,-0.20781827512052845,115.21192006990601,37.016521927409805,13.212028535127606,2
1767649947.409347,1,left_wrist,-0.5148,-0.5534,-0.4011,18.34,-4.83,29.05,-0.4740276682192567,0.32505944488348254,-0.7552359316420061,0.3150441470833693,-114.18349215720168,30.7430812085191,-113.24988996149611,2
1767649947.409347,2,right_wrist,-0.6071,0.6808,-0.3631,-7.49,-7.14,-32.48,0.531263205815896,0.7682228079231223,0.2778041699455552,-0.22453945464837957,115.82673914046269,39.80426806396711,14.184458247991225,2
1767649947.466599,1,left_wrist,-0.63,0.4782,-0.3689,-8.96,-5.46,14.49,-0.46260633074010665,0.34276979618939885,-0.774697547842982,0.2614344257084818,-121.07881346816384,32.51608314906295,-113.55684842284231,2
1767649947.466599,2,right_wrist,-0.6071,0.6808,-0.3631,-7.49,-7.14,-32.48,0.5293008889362265,0.764014869662159,0.28752888833800216,-0.23119036804665313,116.2156149251202,41.12046403774811,14.971528074074396,2
1767649947.522114,1,left_wrist,-0.5958,-0.2865,-0.4075,28.98,-0.77,-2.31,-0.46760504023513694,0.335855823341127,-0.7726900109905503,0.26738836771627345,-119.98723454907473,32.889434096095776,-113.66790153028033,2
1767649947.522114,2,right_wrist,-0.6007,0.5095,-0.3216,5.46,-3.85,2.73,0.5252070522575376,0.7656237067408761,0.28782833469576047,-0.23480362365511864,116.80581843920034,41.4435161407898,15.006518579862513,2
1767649947.603797,1,left_wrist,-0.5568,-0.4719,-0.326,-16.38,5.53,-28.77,-0.4620696021768148,0.34578202003277597,-0.7724818476025404,0.26494956593808316,-120.68864761048656,32.04946217523323,-113.19644105483552,2
1767649947.603797,2,right_wrist,-0.5183,0.4992,-0.2811,-9.03,7.91,58.38,0.5280195357813581,0.7763727316345724,0.26496815684647795,-0.21961927799009703,116.18443728904276,38.37673896199997,13.236555195284758,2
1767649947.662603,1,left_wrist,-0.4597,-0.3055,-0.3104,7.35,23.45,-69.23,-0.4480949419389113,0.3627561755514667,-0.7673495030878845,0.2807020132076254,-120.25066192534388,28.949469529902036,-112.52635257679255,2
1767649947.662603,2,right_wrist,-0.4821,0.4202,-0.1913,-19.74,26.53,86.31,0.5397690549254248,0.782052806653362,0.24535806820042178,-0.19194320336878343,114.61308582113503,34.408737630230604,12.356871808129018,2
1767649947.71677,1,left_wrist,-0.2284,-0.3884,-0.3113,79.31,58.1,-133.98,-0.39395193982084253,0.4239614065122422,-0.7373244422162166,0.3484411884523723,-117.78680408644502,16.588113909814624,-110.14838911990542,2
1767649947.71677,2,right_wrist,-0.3597,0.3284,-0.3265,-13.3,41.02,124.25,0.5460316107088583,0.7959856729478105,0.2153538311024682,-0.1479155705056115,114.07612790955832,28.076974903799673,11.857975212566707,2
1767649947.806274,1,left_wrist,-0.1132,-0.7496,-0.2738,7.35,73.43,-156.59,-0.3462006477405875,0.461555184409396,-0.7155927057619299,0.39374992407507364,-117.01261352266421,7.585334830841963,-109.70481267169231,2
1767649947.806274,2,right_wrist,0.0063,0.8628,-0.1615,-10.5,33.18,189.84,0.5667243217416118,0.8172283191843448,0.10028855740461907,-0.030060318084494313,111.1402129330417,9.369700581859847,7.56213185868152,2
1767649947.8734028,1,left_wrist,0.2664,-0.6037,-0.4729,18.27,104.23,-163.17,-0.2319791900976968,0.5120395727473073,-0.6542472298089371,0.5059265693652624,-112.9246349232191,-12.390029414406337,-112.13421899488272,2
1767649947.8734028,2,right_wrist,0.1625,0.8642,-0.2913,-26.25,42.77,205.8,0.5746811314363387,0.8166035863007334,0.03485042035277435,0.04105640282666129,109.64762463571859,-1.5470510416321348,5.977885447782144,2
1767649949.755274,1,left_wrist,-0.3314,-0.5924,-0.3362,8.89,-18.13,57.4,-0.42705563042632927,0.4573776726097552,-0.699760939801812,0.3446212127059779,-114.49403723967605,16.405264621226753,-103.06531925624863,3
1767649949.755274,2,right_wrist,-0.4358,0.9789,-0.2567,-7.56,5.11,-64.96,0.5981772018778063,0.7634407572095158,0.19242816208725008,-0.1493775345248488,105.64850777076836,27.27708196838145,7.441145660815179,3
1767649949.8091662,1,left_wrist,-0.4372,-0.6276,-0.3601,-14.49,-7.0,49.21,-0.43555500803663477,0.44393558273167205,-0.7120657320578326,0.3258457097889132,-115.63367981382781,19.32818214184251,-103.88359338064804,3
1767649949.8091662,2,right_wrist,-0.4729,0.6188,-0.2069,-3.5,2.73,-57.68,0.5936409257372935,0.7571695963982448,0.21554346803861693,-0.16681027236286783,106.15177290635081,30.56517683979499,8.572914571670275,3
1767649949.867161,1,left_wrist,-0.4719,-0.6891,-0.4016,2.31,-11.76,37.59,-0.4597083420951786,0.4120761925762948,-0.7225747725868148,0.31104203854308754,-114.86156016248223,24.079338998021285,-105.09266423861786,3
1767649949.867161,2,right_wrist,-0.4846,0.895,-0.2455,24.29,1.05,-48.93,0.5832344442108955,0.759366905268116,0.22717057762992168,-0.17774424021278357,107.67248213073711,32.33940833344127,9.378373792470528,3
1767649949.928465,1,left_wrist,-0.4748,-0.3431,-0.3797,88.06,-4.48,37.8,-0.4820319002374106,0.38136680215269597,-0.7182722545059131,0.32602082414522254,-111.10737995082886,26.346156504041282,-105.82730752816846,3
1767649949.928465,2,right_wrist,-0.527,0.7042,-0.2338,-11.9,0.14,-45.57,0.5822338686100087,0.7507647023232084,0.24608513470949073,-0.19182854444523997,107.6690477053167,35.07123273467726,10.28486836246166,3
1767649950.004085,1,left_wrist,-0.4602,-0.8306,-0.386,3.22,-10.08,22.61,-0.486930611926147,0.3754834102632569,-0.721547370907203,0.3182454702320299,-111.39707410631831,27.62581135847516,-105.97365155167721,3
1767649950.004085,2,right_wrist,-0.5485,0.6881,-0.2186,-15.89,1.75,-23.59,0.5767328755343393,0.7432722447059701,0.2683998347305887,-0.2070919825686973,108.45292497366229,38.129536287699814,11.744550973786897,3
1767649950.058472,1,left_wrist,-0.5485,-0.7379,-0.2918,43.82,-5.39,15.26,-0.5004797700243365,0.35931929160421927,-0.7175261891998753,0.3249089323021664,-109.21798412516297,28.99429883066147,-105.98147437601608,3
1767649950.058472,2,right_wrist,-0.6051,0.6266,-0.2406,17.92,-7.07,-9.38,0.5686951826359962,0.7456752233560205,0.27101294393449527,-0.21703970774841608,109.51962580913289,39.192641877697284,11.711403722562657,3
1767649950.116122,1,left_wrist,-0.5246,-0.5339,-0.2601,1.68,10.08,-26.74,-0.49136937097257344,0.3663650173777728,-0.7233653405612719,0.31792357475732574,-111.01196427274435,28.550097951243256,-106.44467837789195,3
1767649950.116122,2,right_wrist,-0.5939,0.5807,-0.202,-14.91,1.05,7.98,0.5738181403977798,0.741306981017324,0.2724502725686012,-0.21671998205682302,108.66762522304839,39.344810249834254,11.578848987562777,3
1767649950.168978,1,left_wrist,-0.4265,-0.3689,-0.3582,64.54,20.79,-54.39,-0.48663477190754095,0.3656791217861528,-0.7123522499694498,0.3493131125847785,-108.30253173978546,25.966000661095133,-106.7384697326547,3
1767649950.168978,2,right_wrist,-0.5622,0.4524,-0.2259,20.93,3.85,37.73,0.5676397305978569,0.751196832931175,0.26221514741940566,-0.21149863097614624,109.731997883397,37.98402017889816,11.255452182255867,3
1767649950.219281,1,left_wrist,-0.429,-0.3845,-0.2582,-0.07,13.72,-83.65,-0.4701067498549623,0.38756135319711454,-0.703889014847284,0.3651521546234467,-108.34758932160561,22.257404700696483,-106.1605344157923,3
1767649950.219281,2,right_wrist,-0.3377,0.5178,-0.2528,-33.81,5.11,81.13,0.583509000467196,0.7543353483101695,0.23890611968888248,-0.182809448986507,107.64263674318155,33.683650250509515,10.181414078500582,3
1767649950.3123899,1,left_wrist,-0.3611,-0.9174,-0.2338,-14.14,28.91,-98.49,-0.4438734035305783,0.4156652082860736,-0.6924289997504757,0.3882536755308714,-108.56246378487978,16.97380989193669,-105.79865622797809,3
1767649950.3123899,2,right_wrist,-0.2342,0.936,-0.2147,-40.46,3.43,120.96,0.6020434373862673,0.7713871244839741,0.16677208398320054,-0.12121334779789573,105.45989695810988,22.818480490630936,6.937918880564144,3
1767649950.3654559,1,left_wrist,-0.0756,-0.5085,-0.2811,-24.36,61.46,-136.43,-0.36552425409051575,0.4686467057024044,-0.6665355419520477,0.4499918401710705,-109.17800364029436,3.7552996135528565,-107.10694402687162,3
1767649950.3654559,2,right_wrist,-0.2264,0.6564,-0.1884,-3.5,24.57,149.24,0.6077011645919779,0.7819416695654691,0.12017298649120405,-0.0694620275294743,105.08986150616798,14.755159815681212,6.144836335060471,3
1767649950.418835,1,left_wrist,0.1645,-1.0882,-0.3157,27.72,63.0,-140.77,-0.32191975898238273,0.49335772180491944,-0.6385787564022194,0.4951595692137832,-107.65471869094885,-4.441394858017141,-107.86968650005244,3
1767649950.418835,2,right_wrist,-0.0117,1.0058,-0.1928,-36.61,9.45,147.84,0.6238582045093785,0.7780790342034666,0.07022882661279455,-0.021491140312359935,102.84495050166561,6.953817237432751,4.76582554892195,3
1767649950.4731278,1,left_wrist,0.2826,-0.8535,-0.3157,100.52,67.06,-131.18,-0.2918615605852219,0.502251803153166,-0.5947004720187166,0.5557799063144224,-102.5174726672542,-12.189314325405924,-109.427797444261,3
1767649950.4731278,2,right_wrist,0.1103,0.8325,-0.1508,4.76,34.09,165.41,0.6215209707146963,0.7821851231978578,0.0201903122593703,0.03860657069311775,102.978321860747,-2.0228217270223072,4.566972460400316,3
1767649952.474175,1,left_wrist,-0.3567,-0.8081,-0.3367,-28.77,-5.74,47.18,-0.46943826732756744,0.41786389360440696,-0.6943620045324053,0.3505408481931828,-109.62628822527125,21.03655251848208,-103.00482158643341,4
1767649952.474175,2,right_wrist,-0.4441,0.8311,-0.2674,38.5,-1.89,-57.12,0.5598103305718289,0.7883124199322865,0.16348756805090256,-0.19608094618897454,109.90231679561477,29.484635668933567,2.5166119489936003,4
1767649952.5535731,1,left_wrist,-0.4416,-0.7198,-0.3577,26.11,-9.87,41.65,-0.4838534000686942,0.39997822081726775,-0.6981395988728648,0.34424469581890765,-108.76246617775251,23.591537034502412,-103.36322551369554,4
1767649952.5535731,2,right_wrist,-0.5402,0.6432,-0.2025,16.52,5.39,-44.38,0.5534532302908541,0.7762730314088647,0.20103499112440015,-0.22511027282539314,110.40874929549312,34.89127668695735,4.400849926010865,4
1767649952.608039,1,left_wrist,-0.4753,-0.6861,-0.3421,-20.02,-7.14,37.59,-0.4883712882314892,0.39234407748330885,-0.7084094981060506,0.3251393434944786,-110.26380352800274,25.899932386393655,-103.83571252607922,4
1767649952.608039,2,right_wrist,-0.5226,0.9223,-0.2269,77.0,-3.99,-29.68,0.5272507622774074,0.7907018576477061,0.20002172636376764,-0.23830340948634723,114.10679191393686,35.9994235316673,4.610019914596908,4
1767649952.670301,1,left_wrist,-0.548,-0.5573,-0.3523,7.07,-3.64,33.46,-0.5068684667622365,0.36405094087924655,-0.7187604912471312,0.3064875626664441,-110.22568088145164,30.363213395181134,-104.84768005848834,4
1767649952.670301,2,right_wrist,-0.5885,0.6876,-0.2704,-25.06,1.75,-24.5,0.5346866477427733,0.7807242371813325,0.2123417315315193,-0.2439074481302652,112.92157415922497,37.43936442253274,5.110921156524856,4
1767649952.723941,1,left_wrist,-0.5558,-0.631,-0.325,-11.13,-6.72,23.8,-0.5107608564955435,0.3581312825259339,-0.7246615329784739,0.2927985562969131,-111.21807837776551,32.04173449569437,-105.16378333536709,4
1767649952.723941,2,right_wrist,-0.608,0.6905,-0.2567,6.72,-3.15,-21.49,0.53202656639296,0.7777468997919607,0.21890730669514752,-0.2532530031245194,113.09518021272436,38.81901959071027,5.2309961258508455,4
1767649952.806271,1,left_wrist,-0.5563,-0.548,-0.3543,37.73,-2.45,12.95,-0.5187750224600419,0.34452174043034234,-0.7235953095956744,0.297635808285178,-109.85168288776806,33.0713041942714,-105.52915246795736,4
1767649952.806271,2,right_wrist,-0.6159,0.6183,-0.2591,-0.56,-0.7,-9.73,0.5340876181775646,0.7720304672662504,0.22680792166891406,-0.2593791440927717,112.64473253972935,39.99851903417224,5.47889952411781,4
1767649952.857198,1,left_wrist,-0.5841,-0.547,-0.3113,-22.96,0.98,2.94,-0.5157356502910803,0.34675134410343106,-0.7293762756108612,0.2859903721409684,-111.45067396297173,33.641562294966,-105.86308359973596,4
1767649952.857198,2,right_wrist,-0.5719,0.7213,-0.2176,46.69,-2.66,10.99,0.5227965447914643,0.7824233981369465,0.21504121781553906,-0.26125595388880535,114.178947063757,39.32149596100575,4.69638120171138,4
1767649952.918993,1,left_wrist,-0.5309,-0.5666,-0.3299,9.59,2.24,-37.24,-0.5114601694916014,0.35270013018043767,-0.7203455615560429,0.3084045802851083,-109.59412918098653,31.28580839125243,-105.47520864853549,4
1767649952.918993,2,right_wrist,-0.5866,0.6725,-0.3309,-11.69,-6.72,11.9,0.5267217033119216,0.7822936672422399,0.2105158687874287,-0.2574178207536336,113.5939359093769,38.646907880134655,4.273240920425065,4
1767649953.006204,1,left_wrist,-0.5246,-0.6085,-0.2167,12.67,8.47,-60.27,-0.5050731333374232,0.3648167877155138,-0.7118439186303203,0.3241729120248655,-108.61779386269788,28.85136217717002,-104.79196658651678,4
1767649953.006204,2,right_wrist,-0.4929,0.5202,-0.2172,-13.09,6.72,61.18,0.5273198457372689,0.7933052827052067,0.1792207493502671,-0.24592769613437937,113.33559716657304,35.39463170097801,1.7566083168130893,4
1767649953.0696099,1,left_wrist,-0.3182,-0.6437,-0.2918,-32.41,33.95,-101.85,-0.4579729280440741,0.4085107071069039,-0.6994134579050691,0.3663340200677915,-109.39397117578707,19.9574452029494,-105.21995056877013,4
1767649953.0696099,2,right_wrist,-0.4792,0.4392,-0.2098,7.56,13.3,91.56,0.5317362329482915,0.8022866093420739,0.15239354951494977,-0.22443034800711203,113.03987011733163,31.478680819264167,0.3930969970571868,4
1767649953.1584482,1,left_wrist,-0.162,-0.7369,-0.2957,40.67,38.99,-120.05,-0.42990828123090047,0.4327357938084742,-0.6776759252682194,0.41069933381721635,-107.5104917755034,13.133949612966221,-105.23088254003905,4
1767649953.1584482,2,right_wrist,-0.3035,0.6486,-0.163,-34.58,19.39,134.61,0.5722599532049786,0.8047670226316883,0.06858198530131476,-0.1420038609844591,108.67343416341234,17.881749898331645,-3.1406871308725415,4
1767649953.219248,1,left_wrist,0.0039,-0.6256,-0.4246,-33.25,73.36,-138.11,-0.3284269609802106,0.4951170792565699,-0.6501436770631265,0.47361166402928034,-109.63037794306426,-2.4035193190137143,-107.11247851743886,4
1767649953.219248,2,right_wrist,-0.1327,0.9618,-0.2689,-0.49,21.21,134.05,0.5805359441595752,0.8080482248188635,0.02391268020440697,-0.09728446757461215,108.20509931869357,10.66028255230226,-4.336505889771539,4
1767649953.270179,1,left_wrist,0.1576,-1.1473,-0.4104,-76.79,67.55,-116.69,-0.2645146382510075,0.526190390244107,-0.6470522917725693,0.4842303285395898,-113.37179165628376,-9.630005530146821,-108.10078293521221,4
1767649953.270179,2,right_wrist,-0.059,0.7066,-0.2767,9.03,34.37,143.78,0.5803775323101421,0.8128228530808607,-0.020631594499566856,-0.04533505054022804,108.82101008219072,2.8516710124015443,-4.9490232513377626,4
1767649955.226914,1,left_wrist,-0.3636,-0.7178,-0.3826,-14.49,-17.15,35.49,-0.4400642358328118,0.5107310462514696,-0.6670914214305361,0.3169957447499093,-115.26317597813554,15.267567514023433,-95.41238602568,5
1767649955.226914,2,right_wrist,-0.3714,0.9292,-0.2255,3.99,-3.22,-50.19,0.5770915818552224,0.7852361576292635,0.07465291493586813,-0.21165166003375804,105.60702374358601,24.743468508695045,-8.041329582357854,5
1767649955.314968,1,left_wrist,-0.3616,-0.7813,-0.4338,13.44,-8.33,32.62,-0.45099837440090756,0.49831071822234274,-0.6730065060690504,0.3087865560240614,-114.9508781933786,17.415947434370814,-95.80906635808385,5
1767649955.314968,2,right_wrist,-0.4597,0.8335,-0.2342,5.04,-1.05,-39.76,0.5660786811865275,0.7812177575746657,0.10699541011280954,-0.2404282100148078,106.29421144649685,29.787802584762257,-6.950930946546929,5
1767649955.3746371,1,left_wrist,-0.426,-0.7061,-0.3845,13.3,-7.07,20.23,-0.46964097607533833,0.47908924459265106,-0.6816933323348942,0.2918990406918017,-114.61301985619038,21.137715893543785,-96.14370782795694,5
1767649955.3746371,2,right_wrist,-0.4763,0.7593,-0.2308,3.43,-3.71,-33.81,0.5590448601130366,0.7803567386392418,0.12016169766246751,-0.25312718395382794,106.91194057574394,31.965637820091306,-6.46215314843998,5
1767649955.457123,1,left_wrist,-0.427,-0.5388,-0.3924,19.25,-9.87,12.18,-0.4782562524847304,0.471621209554943,-0.6821334332085688,0.2890300519950916,-113.94666444456794,22.324004726724162,-96.06195008785033,5
1767649955.457123,2,right_wrist,-0.5119,0.6876,-0.2625,6.93,-3.36,-16.45,0.5489700939913088,0.7820768315794817,0.13083086677717828,-0.26433113647110323,108.06528876222933,33.85540947563354,-5.915019505311273,5
1767649955.50996,1,left_wrist,-0.4685,-0.6378,-0.3123,-6.58,-5.53,-10.29,-0.4793903056439332,0.474463547534787,-0.6812394113363959,0.284573613248597,-114.18369228095298,22.52704771550894,-95.60008406592233,5
1767649955.50996,2,right_wrist,-0.5002,0.5797,-0.225,4.34,-1.4,7.07,0.5458045309313854,0.78368179146169,0.1305486684325674,-0.2662654857781051,108.4622314814531,34.04493636682333,-5.960261246494504,5
1767649955.567465,1,left_wrist,-0.4436,-0.5661,-0.2616,-5.88,18.55,-50.96,-0.4708784544356075,0.4829060288966947,-0.6696634666396762,0.31084737388578576,-112.63857002330649,19.29548717612523,-95.48101454332496,5
1767649955.567465,2,right_wrist,-0.4743,0.5168,-0.1693,-0.21,1.12,38.08,0.5493143529525514,0.784779996726821,0.12050055058368868,-0.26048745783012023,108.0685574573677,32.76782227308672,-6.627360761446137,5
1767649955.6589959,1,left_wrist,-0.2816,-0.4216,-0.3553,31.78,40.74,-80.08,-0.45328705353671833,0.4938101249250678,-0.6588774580098414,0.34141309720627133,-111.630956770377,15.078058165569002,-96.02595656811775,5
1767649955.6589959,2,right_wrist,-0.367,0.4753,-0.2006,2.87,17.08,110.32,0.56762151718656,0.7940817530123175,0.0646467754721341,-0.2075109085825804,107.12476249647689,23.762793195560103,-8.349841521199648,5
1767649955.723267,1,left_wrist,0.0522,-0.487,-0.3201,108.43,80.08,-132.65,-0.39090311380136433,0.5316862650699239,-0.6166392657782193,0.429255736195675,-109.02469501377107,1.4688614163945108,-97.41477680209344,5
1767649955.723267,2,right_wrist,-0.0956,0.8506,-0.2513,-13.02,29.75,151.48,0.5845189787958236,0.7962292832515072,0.01767475721008192,-0.15506158414592403,106.18575578263375,15.52100374329314,-9.144334370637594,5
1767649955.809047,1,left_wrist,0.1249,-0.6046,-0.3855,-133.56,88.62,-138.95,-0.3052410635949302,0.5750105756040568,-0.6220321419908972,0.43504798053679505,-115.99675079720554,-6.92528135190908,-98.8298910752814,5
1767649955.809047,2,right_wrist,0.1923,0.7169,-0.2059,49.63,60.76,172.13,0.5797870010983515,0.8099728362376526,-0.08369921676283786,-0.028026398766172335,109.06005663822317,-2.960884897081795,-9.689663965775708,5
1767649957.6725829,1,left_wrist,-0.3211,-0.9043,-0.3845,24.99,-2.59,34.58,-0.45546387576946,0.5071839606761683,-0.6578684105325462,0.32019719287538745,-113.28042939151337,15.930600807624778,-94.21246892486984,6
1767649957.6725829,2,right_wrist,-0.4246,0.832,-0.2435,-1.19,2.45,-32.27,0.5701757844053527,0.7853772429483624,0.11320806928253539,-0.21275829992244827,107.01114804167446,27.599483960052225,-4.193058396844275,6
1767649957.755082,1,left_wrist,-0.4065,-0.5319,-0.4246,10.64,-10.99,27.3,-0.4648070992840922,0.4978518675412778,-0.6626915778757315,0.31134827934861475,-113.13406481446076,17.820554481877156,-94.34916142294209,6
1767649957.755082,2,right_wrist,-0.4504,0.9916,-0.3328,-14.49,-5.88,-25.27,0.5580985608879102,0.7880588103447299,0.12584389015796044,-0.22727213441775893,108.41013448715164,29.912324720356693,-3.6602442657060523,6
1767649957.808203,1,left_wrist,-0.4177,-0.7252,-0.4197,-6.79,-6.93,14.49,-0.46768270797012657,0.4948030683748058,-0.6677191121759838,0.30098836427264564,-113.79708356984624,19.06868768413537,-94.42288272362399,6
1767649957.808203,2,right_wrist,-0.5163,0.7115,-0.2157,-1.75,-4.69,-23.03,0.556729954307138,0.7843082695523439,0.1351021587330555,-0.23803298719851446,108.25147442377299,31.588390701228306,-3.5750417421813396,6
1767649957.874392,1,left_wrist,-0.4524,-0.6461,-0.3445,-22.54,0.77,-6.93,-0.4707212796313691,0.4914476008931261,-0.6713592511484902,0.29356002516680574,-114.16714824530887,20.090710433623308,-94.5071360967668,6
1767649957.874392,2,right_wrist,-0.4836,0.7213,-0.2728,15.12,-1.82,-8.61,0.5477428996387174,0.7891323004374596,0.1372975964980603,-0.24165532954501248,109.53377887229108,32.1273993170882,-3.2518130289492317,6
1767649957.954116,1,left_wrist,-0.4246,-0.6198,-0.3514,23.73,9.73,-22.89,-0.47123960719795,0.49025816902090236,-0.667513873998868,0.30332390003957443,-113.2143642754715,19.372228674701443,-94.56965568012008,6
1767649957.954116,2,right_wrist,-0.4631,0.669,-0.1962,18.62,-3.99,36.19,0.5453434220998256,0.7944947161397475,0.12084844935137096,-0.2382736877790805,109.82574735408961,30.69195541267521,-4.525812939390106,6
1767649958.010017,1,left_wrist,-0.3109,-0.6329,-0.3533,-6.86,19.81,-38.22,-0.4580809340008717,0.49976000432490064,-0.6666127683814037,0.30988580640769114,-114.02564446187304,17.516962474850132,-94.8606618835395,6
1767649958.010017,2,right_wrist,-0.3958,0.7515,-0.1996,8.54,0.7,52.43,0.550605417650123,0.7978180877417458,0.09976397118610156,-0.22442620831715746,109.3578347733524,27.902199655116657,-5.711726303579518,6
1767649958.0637069,1,left_wrist,-0.3875,-0.6612,-0.2874,-8.96,28.49,-56.07,-0.4429095064779538,0.5115184391539881,-0.662303597016171,0.3217669977738,-114.49253480720994,14.921868226363017,-95.00853820416701,6
1767649958.0637069,2,right_wrist,-0.3806,0.4626,-0.2572,0.21,14.42,87.99,0.5550533575957435,0.8038659675833253,0.07500929223937047,-0.20022208284993193,109.3985773195049,23.901890685539822,-6.3850934420019385,6
1767649958.1229088,1,left_wrist,-0.1825,-0.6134,-0.346,-20.72,56.91,-97.51,-0.3917948570442419,0.5398096046242585,-0.641690069737316,0.3785977220607677,-114.0875019938617,5.398391540988315,-96.35542351473566,6
1767649958.1229088,2,right_wrist,-0.2015,0.8989,-0.243,-28.14,3.71,100.24,0.5748715521682788,0.7993302404600844,0.040321016619566136,-0.17020011989544137,107.2503681609721,18.569274756902114,-7.957224473204283,6
1767649958.2099688,1,left_wrist,0.0478,-0.9282,-0.4436,28.0,67.55,-105.14,-0.3579847566432983,0.5546892075835516,-0.6214767825867575,0.4218215330053486,-112.82573730622916,-1.3179921695795038,-97.37526976392411,6
1767649958.2099688,2,right_wrist,0.0142,0.6188,-0.2645,-14.7,22.47,151.83,0.5880452473260592,0.8033929760718745,-0.05252798023260473,-0.07748112278673633,107.27652084277202,3.5958322186655,-10.12942303308405,6
1767649958.270575,1,left_wrist,0.222,-0.7178,-0.4538,-39.2,88.55,-116.9,-0.2628442285415193,0.5811355257845794,-0.5897423072843759,0.4953770515399305,-112.63549336373511,-15.411028373289017,-101.14779788724084,6
1767649958.270575,2,right_wrist,0.2186,0.9194,-0.1728,-6.65,37.94,163.52,0.5966536932985664,0.7957509988347512,-0.10208893558451769,-0.01904120158750355,106.7678352751726,-5.25102139431244,-10.7181131091847,6
1767649960.4248068,1,left_wrist,-0.3797,-0.6456,-0.3802,22.89,-3.22,31.29,-0.5102900169053636,0.5531872454753266,-0.5973442808694974,0.27706999152316597,-109.98342590533926,17.643559659495438,-81.98800316547072,7
1767649960.4248068,2,right_wrist,-0.4197,0.8662,-0.2972,-11.55,-7.77,-34.86,0.5476856195350951,0.7988753919113543,0.07581156104079255,-0.23683576074042864,108.93613965431732,27.480475715316214,-8.9680547592478,7
1767649960.484531,1,left_wrist,-0.4089,-0.7642,-0.4353,-7.56,-5.67,23.8,-0.5118453757953314,0.5491137018354035,-0.6052314642948371,0.26492136259856935,-110.81801511121603,19.185397600533655,-82.27070788379275,7
1767649960.484531,2,right_wrist,-0.4851,0.7408,-0.2865,1.89,-10.78,-37.38,0.5408900958898611,0.7973524965781059,0.08889254981193799,-0.25251735575372003,109.36258764534593,29.924136633327773,-8.7210768715678,7
1767649960.5576808,1,left_wrist,-0.4226,-0.8276,-0.4153,30.1,-7.28,28.14,-0.5234861647310942,0.5352570997780903,-0.6093033861588684,0.26117323003633836,-109.75161314374763,20.9979246996658,-82.54843700128694,7
1767649960.5576808,2,right_wrist,-0.53,0.7954,-0.3084,-9.52,-3.57,-32.9,0.5308887569541988,0.7956005010941672,0.10863890931861549,-0.27087738514020915,110.2264545377472,33.11838354270441,-7.87440505522549,7
1767649960.609236,1,left_wrist,-0.4314,-0.61,-0.4602,-4.41,-10.78,26.04,-0.526746210110121,0.5306093631845049,-0.6159181100918572,0.24826803156353647,-110.41045899306734,22.668474168342172,-82.65199411462639,7
1767649960.609236,2,right_wrist,-0.5319,0.49,-0.264,25.62,-3.5,-14.7,0.5175888404984553,0.8007800524886926,0.11279499052106788,-0.2795181386619188,111.90358927508669,34.36257699377104,-7.566926717153066,7
1767649960.666332,1,left_wrist,-0.3797,-0.0654,-0.2084,-43.96,15.54,-35.0,-0.5139878265750094,0.5417410575980681,-0.6214596449059554,0.23689881890500977,-112.8868450807198,22.468146942021875,-82.8303551450464,7
1767649960.666332,2,right_wrist,-0.4724,0.5563,-0.2338,33.18,3.71,28.49,0.5074200342539629,0.8095023484138322,0.10250047045742132,-0.276991895741022,113.44237987301523,33.53682090071181,-7.940908125238672,7
1767649960.716369,1,left_wrist,-0.3484,-0.488,-0.245,-7.77,40.18,-81.69,-0.49366715951676593,0.5592921054409047,-0.6137315091235264,0.2584931548708532,-113.54869918409058,18.470226415646756,-83.15588894506489,7
1767649960.716369,2,right_wrist,-0.3577,0.3899,-0.2084,-39.41,20.93,71.33,0.5257640969108889,0.8067063346504258,0.08941175262293319,-0.2545634351733335,111.5819149873537,30.31375271116141,-8.219759449755216,7
1767649960.770187,1,left_wrist,-0.181,-0.2908,-0.3445,55.51,60.34,-118.93,-0.47438699114472965,0.5722068553093717,-0.592651718419805,0.3103227964936862,-111.4221153940803,11.955672135689253,-83.84295868764151,7
1767649960.770187,2,right_wrist,-0.367,0.6227,-0.2137,8.12,13.51,98.42,0.5359178142057672,0.811427421460636,0.05520001250865107,-0.22656256252457277,110.92141418536575,25.26740634552963,-9.757016378871125,7
1767649960.854301,1,left_wrist,-0.1401,-0.6666,-0.3338,-37.87,58.52,-129.99,-0.4285530258759324,0.6060244177043901,-0.5775076110032653,0.33994362531446076,-113.76273905820157,4.758554221841745,-84.13419595646634,7
1767649960.854301,2,right_wrist,-0.0752,0.8198,-0.3099,-11.34,26.32,165.48,0.5688315356704154,0.8121517043168129,-0.04285200455278549,-0.12249081152454291,109.06002426248172,8.639160281651574,-12.201828342898962,7
1767649960.912608,1,left_wrist,0.0503,-1.0394,-0.2494,25.13,72.31,-131.25,-0.397202905741823,0.6219384219903341,-0.5491601179367367,0.3922315843862336,-112.1647863441957,-2.9595999750909505,-84.87814781828693,7
1767649960.912608,2,right_wrist,0.1776,1.0443,-0.388,-13.72,35.49,171.92,0.5819565533735351,0.8049558650378088,-0.0968241000617645,-0.06322751753831687,108.34128007534181,-0.6247722625578435,-13.266649489349225,7
1767649962.9042969,1,left_wrist,-0.3616,-0.6525,-0.3967,3.5,-14.63,36.12,-0.5379019145102315,0.5948231603624284,-0.5362695858011759,0.26317649896469775,-107.04888403497779,15.297675655385703,-72.7331078761987,8
1767649962.9042969,2,right_wrist,-0.429,0.8799,-0.2728,3.01,-8.82,-42.91,0.5272639419230645,0.8038850393595806,0.0488009451726402,-0.2708875168623575,109.89544456606485,29.14272445650869,-13.72303222408848,8
1767649962.957794,1,left_wrist,-0.3899,-0.875,-0.3938,10.01,-17.22,43.54,-0.5485373866375617,0.5839925005912044,-0.5448842221469916,0.24730685224905166,-106.86282459920476,17.994641104602273,-72.63360335040319,8
1767649962.957794,2,right_wrist,-0.5388,0.8359,-0.2938,15.54,-9.59,-41.44,0.5166014718469722,0.8040320156961639,0.061803775563574505,-0.28781197047237783,110.70701632903337,31.78113405662561,-13.468098583688635,8
1767649963.011111,1,left_wrist,-0.4309,-0.7174,-0.385,1.12,-13.16,39.06,-0.5550902178715106,0.5755579681979949,-0.5541628872324122,0.23132524652832787,-107.17475135492005,20.42240998186513,-72.69355149865052,8
1767649963.011111,2,right_wrist,-0.5388,0.8359,-0.2938,15.54,-9.59,-41.44,0.5092297389037811,0.8032768767049725,0.07083264209023342,-0.30068932335819354,111.18345449403155,33.72543769688288,-13.378538177921323,8
1767649963.062069,1,left_wrist,-0.4851,-0.7115,-0.3709,31.15,-12.53,38.64,-0.5689995240437615,0.559250791063867,-0.5602915890750851,0.22260150391254768,-105.96156372970567,22.869353002800743,-72.76221748369348,8
1767649963.062069,2,right_wrist,-0.5534,0.7017,-0.2747,-13.23,-3.57,-34.86,0.5078074267125193,0.7979249048012811,0.0868196558447701,-0.31290543464834786,110.88250709492492,35.98159975598284,-12.797238323001425,8
1767649963.1271281,1,left_wrist,-0.5026,-0.5451,-0.3372,27.09,-5.6,9.24,-0.5785026869738112,0.5455497808087314,-0.569981274377387,0.20695754318882761,-105.77760541239175,25.700065383465986,-72.92481224209898,8
1767649963.1271281,2,right_wrist,-0.5319,0.5963,-0.2611,22.4,-2.73,-14.91,0.4949924483980572,0.8025393030930292,0.09110869796180032,-0.3203316221910616,112.48833848856319,37.18234668923162,-12.38554928335143,8
1767649963.206078,1,left_wrist,-0.5129,-0.4324,-0.2601,-15.96,3.43,-15.68,-0.5723298207232791,0.5518296816847911,-0.57129440035251,0.20382660976523018,-106.84641539365056,25.403004170815873,-72.99656829930588,8
1767649963.206078,2,right_wrist,-0.4831,0.5788,-0.2503,-4.48,2.03,37.94,0.49809565909676573,0.8049622642963753,0.07965660535239423,-0.31239605098583456,112.30970469514443,35.61157932725604,-13.006054492495146,8
1767649963.266592,1,left_wrist,-0.3948,-0.3343,-0.2069,14.14,31.71,-73.08,-0.5581678657617116,0.5636748884735245,-0.5572538620026203,0.24533117824390005,-105.86412594615952,20.212830337297003,-74.00641016542698,8
1767649963.266592,2,right_wrist,-0.4929,0.448,-0.2176,-4.41,0.21,62.65,0.5057744266643452,0.8058296088182928,0.06120361771211198,-0.3018028960481652,111.479349196893,33.25141404246625,-14.306397835264354,8
1767649963.359068,1,left_wrist,-0.3353,-0.7647,-0.2157,-34.23,54.74,-105.84,-0.5264887458081003,0.5888000055729936,-0.5493740737402739,0.2726027899282627,-107.89996603743357,14.919488837532684,-75.14373044721383,8
1767649963.359068,2,right_wrist,-0.3157,0.466,-0.1893,-47.88,12.46,131.25,0.5474975399071119,0.8017049967573306,-0.009909619256727351,-0.23961915911749473,107.93422106745808,21.92278754998025,-17.455313257541537,8
1767649963.417849,1,left_wrist,-0.0317,-0.5524,-0.4133,-60.48,67.34,-139.58,-0.45056501440380436,0.6333234907187463,-0.5161822888096134,0.35978933922281575,-109.57864761937454,0.5398075848884606,-77.98169428596097,8
1767649963.417849,2,right_wrist,-0.0454,0.9067,-0.1986,13.65,22.4,162.05,0.560221326373575,0.8037840886101679,-0.06532448375179178,-0.1892509344651068,108.00099664775027,13.35839352952335,-19.01861268744219,8
1767649963.502717,1,left_wrist,0.243,-1.3776,-0.4309,-8.75,70.63,-145.25,-0.40648078898204476,0.6561045656794706,-0.4874375558195335,0.4082949868168438,-109.84375503348105,-8.018937904256351,-78.85517304173348,8
1767649963.502717,2,right_wrist,0.1786,0.8418,-0.181,10.08,27.23,169.89,0.5955066717753281,0.7804807293388043,-0.17385143957367943,-0.07744231375675002,106.24765945244,-4.943590596699767,-21.405607108576373,8
1767649965.326283,1,left_wrist,-0.367,-0.6403,-0.3328,-10.29,-17.57,52.64,-0.5474583964901466,0.6292131413808498,-0.5017149637927399,0.2294825089904017,-107.80731825679351,15.102659242622806,-66.0940584193696,9
1767649965.326283,2,right_wrist,-0.3958,0.9687,-0.1498,10.64,6.65,-65.8,0.5970248383414414,0.731887445967651,0.0061593772427863845,-0.328426812106298,94.69205014613219,29.215613855927668,-26.039186686160928,9
1767649965.407238,1,left_wrist,-0.3899,-0.8174,-0.304,16.94,-13.02,49.28,-0.5605592908816157,0.6140338101142515,-0.5128393733990757,0.21384933606284368,-107.14753133277492,18.19984241630884,-66.25461035838333,9
1767649965.407238,2,right_wrist,-0.5144,0.8452,-0.124,24.22,7.56,-51.45,0.5659204254901777,0.7434327147376948,0.04446346167577791,-0.35364512049025093,97.68765193207697,35.18008570275914,-24.13163278248968,9
1767649965.466519,1,left_wrist,-0.4699,-0.63,-0.3553,14.0,-13.58,48.23,-0.5711096610649233,0.6003365847358298,-0.5237943792717036,0.19765927326942928,-106.79896793407592,21.159402668880077,-66.4145413734713,9
1767649965.466519,2,right_wrist,-0.5724,0.7154,-0.1176,25.2,1.68,-35.91,0.5492863344653004,0.7498098780707502,0.05572029309537556,-0.3646435498600883,99.47122899067693,37.4478779381567,-23.536094118008116,9
1767649965.522903,1,left_wrist,-0.5065,-0.6276,-0.3475,4.62,-3.99,26.53,-0.5806759743510214,0.5831124572304418,-0.5414133302189876,0.172240764325271,-107.13553620308963,25.334359686187714,-66.91344376196096,9
1767649965.522903,2,right_wrist,-0.5724,0.7154,-0.1176,25.2,1.68,-35.91,0.5338430568186899,0.7540971740239149,0.0669238444500012,-0.3766566631026915,100.9692088095458,39.75641724517282,-23.067580508754332,9
1767649965.581286,1,left_wrist,-0.5632,-0.4338,-0.2533,-0.91,2.59,-8.89,-0.5793823866754865,0.5837574713691415,-0.5425054407978522,0.17097108333180522,-107.40322547710507,25.40569372698543,-67.00214238984853,9
1767649965.581286,2,right_wrist,-0.5646,0.4382,-0.1308,27.23,-0.56,9.17,0.5236646129901757,0.7608522566768792,0.0625437690302283,-0.3781104250970124,102.45926603244492,39.85719089738805,-23.072223054468605,9
1767649965.666309,1,left_wrist,-0.5632,-0.4338,-0.2533,-0.91,2.59,-8.89,-0.5781186389705658,0.5843901682632007,-0.5435724161785324,0.16969383866823534,-107.66666457940299,25.477960127511786,-67.0873157152746,9
1767649965.666309,2,right_wrist,-0.5261,0.5534,-0.1562,-3.92,-2.87,46.55,0.5195651362502871,0.767747514986889,0.04547932544908956,-0.37221963056960433,103.4719945563034,38.2285815283457,-23.795781747664716,9
1767649965.720549,1,left_wrist,-0.4519,-0.5422,-0.3187,-29.54,19.95,-53.62,-0.5522340470269347,0.6116076208482423,-0.5351772824713901,0.18590038125604813,-110.15445882000958,21.326988565156874,-67.39507887118067,9
1767649965.720549,2,right_wrist,-0.5168,0.568,-0.1308,-23.66,-3.29,65.94,0.5367905220902089,0.7619159007056243,0.02937055176157725,-0.36121664736730885,101.54516993405795,35.588875067024766,-24.950301242529708,9
1767649965.77679,1,left_wrist,-0.3909,-0.3543,-0.3265,45.15,40.04,-94.01,-0.5456787903216707,0.6185013640688782,-0.518405422021765,0.2257133998158973,-108.41037243929122,16.651976091299634,-67.88889721773613,9
1767649965.77679,2,right_wrist,-0.3797,0.6183,-0.1874,21.07,-6.37,100.87,0.5442889030930245,0.7683291315345807,-0.01052455913622021,-0.3366142737022559,102.10365144459576,30.38475839748111,-26.328815496675894,9
1767649965.8573172,1,left_wrist,-0.2664,-0.6364,-0.406,-1.26,37.87,-100.66,-0.5239506546101128,0.6383130305122641,-0.5019331843746094,0.25708999403992344,-108.97670391783535,11.406506270725448,-68.2061200744627,9
1767649965.8573172,2,right_wrist,-0.0976,0.7442,-0.0786,22.33,14.49,160.23,0.5796645734792634,0.7659757125468352,-0.11237678068790077,-0.25424722064104344,101.87202157208324,15.023352557581278,-28.910033851793603,9
1767649965.915968,1,left_wrist,-0.0322,-0.4504,-0.3509,41.79,60.2,-125.58,-0.4867619549646733,0.6603371648789265,-0.44544481468676095,0.3586036042028973,-105.61353528984176,-2.2894264339292643,-69.74242327240775,9
1767649965.915968,2,right_wrist,-0.0273,1.1556,-0.162,39.34,10.15,172.69,0.5863987657472132,0.7649609081359712,-0.17418500237957496,-0.2015710333851641,103.43094703062768,5.975557042171516,-30.373772237838587,9
1767649965.971453,1,left_wrist,0.0986,-0.9941,-0.3323,-61.32,78.96,-146.16,-0.4262879302193998,0.6895947788938421,-0.4277197379954839,0.3997417506349416,-108.8226910346174,-10.757703409442557,-71.3279263240731,9
1767649965.971453,2,right_wrist,0.0815,0.7379,-0.0503,-20.86,22.61,176.12,0.6112032201605186,0.7438067424465671,-0.22637171059813282,-0.1481148277429166,102.08239975655083,-3.2320855699348567,-31.240740943732987,9
1767649967.767565,1,left_wrist,-0.3382,-0.7515,-0.3787,-15.61,-20.23,52.64,-0.5289588572913235,0.6369413524324539,-0.5207878986853097,0.20805817801161583,-111.6688770205646,16.613193272940048,-67.22308247787413,10
1767649967.767565,2,right_wrist,-0.469,0.7505,-0.2118,-20.86,-4.41,-52.43,0.48040720387807334,0.7942576171071821,-0.04046677367544371,-0.36976505561987916,108.4747280119731,33.26391834393722,-30.117268080880113,10
1767649967.84926,1,left_wrist,-0.448,-0.5929,-0.3645,-12.53,-13.02,42.35,-0.5349266933910806,0.6233216130208298,-0.5453037701438267,0.16723455894558464,-113.64212847123447,22.018951584238238,-67.86194822454986,10
1767649967.84926,2,right_wrist,-0.5222,0.7706,-0.2367,15.19,-4.34,-49.91,0.4697942610837814,0.7953578442979008,-0.027361078946248767,-0.3820348454335512,109.14442228031669,35.5913822405758,-29.665780344018053,10
1767649967.909514,1,left_wrist,-0.4597,-0.7632,-0.4041,-1.33,-10.22,33.6,-0.5389795242876065,0.6154077587427575,-0.5545969842853662,0.15230412962063247,-114.11690122012774,24.22836570521571,-68.21389801440742,10
1767649967.909514,2,right_wrist,-0.5963,0.6876,-0.2279,6.93,1.26,-36.89,0.45940008895009604,0.7906615070657113,0.00525622015216875,-0.40469533190652707,109.11844342800644,40.14944184111506,-28.397590671006633,10
1767649967.959837,1,left_wrist,-0.5051,-0.5427,-0.3889,5.04,-8.33,28.56,-0.5435574750482213,0.6069464527630031,-0.5625046597217446,0.14053391970956475,-114.31656932914471,26.162218670226178,-68.58748364162759,10
1767649967.959837,2,right_wrist,-0.6061,0.7013,-0.2235,0.28,0.98,-28.63,0.4574306706675636,0.7889894754156327,0.013571576644256345,-0.4099617073866494,109.04809950469658,41.248570411174924,-28.05761092568388,10
1767649968.0107882,1,left_wrist,-0.5358,-0.5353,-0.3767,-8.47,-6.37,16.45,-0.5433998494741531,0.6042047871729628,-0.5683901144762633,0.1287860882021134,-115.10496660498728,27.522691064393797,-68.80035438407906,10
1767649968.0107882,2,right_wrist,-0.6237,0.6129,-0.2206,5.32,-0.84,-16.94,0.44994030857223777,0.7896477708741088,0.021351473233401867,-0.4165984052612705,109.69568312106534,42.62100491732691,-27.622202278198905,10
1767649968.06883,1,left_wrist,-0.4934,-0.5475,-0.3592,0.35,-0.07,-24.64,-0.5420681406152056,0.6081436373880299,-0.5658543554612507,0.12701297429775582,-115.32673833183053,27.32124205453931,-68.37961327978293,10
1767649968.06883,2,right_wrist,-0.5939,0.5856,-0.2533,8.68,-1.19,1.33,0.44442914241801795,0.7932422370952883,0.020000964877439655,-0.4157516711471152,110.63613000045223,42.63781119784848,-27.335716949448834,10
1767649968.157876,1,left_wrist,-0.4997,-0.5505,-0.3401,29.47,0.77,-34.86,-0.5476740801278152,0.6083035731727215,-0.5575091271525346,0.13857646973086687,-113.78099366577474,26.23625190889203,-67.72788081474961,10
1767649968.157876,2,right_wrist,-0.4929,0.5529,-0.2069,-4.69,-0.56,59.36,0.46015100636467976,0.7937622810673449,-0.009029256029877792,-0.39764426945686576,109.4346377131515,38.532642489442914,-29.08738469682367,10
1767649968.2179022,1,left_wrist,-0.385,-0.5168,-0.3572,20.44,18.62,-60.83,-0.5451662680146087,0.6188403691897434,-0.5363819821975362,0.1792336655150692,-111.48918168346052,21.284592296686213,-67.24957648240594,10
1767649968.2179022,2,right_wrist,-0.4475,0.53,-0.2001,-21.91,9.8,97.65,0.48202380794808936,0.792131611758843,-0.036984167609085426,-0.3725758037900804,108.03932207657803,33.68341919453624,-30.136540706747013,10
1767649968.269734,1,left_wrist,-0.3065,-0.649,-0.2362,-0.21,33.88,-98.98,-0.5317887420736448,0.6364783276021142,-0.5178203372267475,0.20966203912707643,-111.18300354097519,16.490201291154904,-66.92544752972162,10
1767649968.269734,2,right_wrist,-0.3884,0.4904,-0.2313,9.1,1.89,130.83,0.4962469879164576,0.7931575995999132,-0.08190064533076388,-0.34341262859008453,107.84983216248627,27.611556705217,-32.09065386330406,10
1767649968.360339,1,left_wrist,-0.1401,-0.7359,-0.2889,74.13,46.27,-123.48,-0.527278324011409,0.6434605242880274,-0.48437464032199357,0.27077173139682775,-107.5367477319927,9.34266636200873,-67.0895678383057,10
1767649968.360339,2,right_wrist,-0.0913,0.7828,-0.2489,27.72,24.78,188.79,0.541089621037776,0.7788766139860869,-0.19998598400907092,-0.24612770748269594,107.30528389115301,9.612598587225154,-35.88162288233828,10
1767649968.413973,1,left_wrist,-0.0693,-0.6085,-0.2074,8.33,63.56,-145.18,-0.49476961653451074,0.6653423547143148,-0.45475711024374127,0.3251438885482333,-107.39838484531167,0.9933294647461319,-67.97499484411414,10
1767649968.413973,2,right_wrist,0.1484,0.7481,-0.0766,-67.48,27.86,184.17,0.586509672667917,0.7451300790330376,-0.24973047787552943,-0.19601596263379056,103.60154795124606,-0.04720612469671992,-37.02002433320241,10
1767649970.154476,1,left_wrist,-0.3977,-0.6559,-0.4285,56.42,-10.92,34.16,-0.5526139655844633,0.6380243626829476,-0.5041136844466206,0.18278979954495522,-109.92464574312615,18.899661805119624,-63.312229869107966,11
1767649970.154476,2,right_wrist,-0.4773,0.8906,-0.2259,5.39,-0.84,-40.67,0.4869201026209943,0.7868888520358641,-0.040163059474121174,-0.37696376067059634,106.87323133572848,33.6518281398519,-31.127121956883293,11
1767649970.2156658,1,left_wrist,-0.4499,-0.6666,-0.4246,-11.13,-13.65,32.13,-0.5537120021703841,0.634577340432665,-0.513239123673009,0.16522778093659676,-110.84770157335484,21.018766579104025,-63.35851508112437,11
1767649970.2156658,2,right_wrist,-0.5392,0.6808,-0.2411,23.73,-1.12,-23.87,0.47148755559509986,0.7933402636364537,-0.03354302578551533,-0.38364772439485684,108.64007619674653,35.24655837037735,-30.54054203276647,11
1767649970.276302,1,left_wrist,-0.4865,-0.4953,-0.3655,-30.45,-3.01,14.0,-0.5550147508511069,0.62740650396969,-0.527374342010515,0.1421126613050064,-112.09215928150988,24.02130200109839,-63.79358783883415,11
1767649970.276302,2,right_wrist,-0.5392,0.6808,-0.2411,23.73,-1.12,-23.87,0.4560969595683059,0.7990552738054923,-0.02662752783223252,-0.39086725065899386,110.37195973626207,36.8956569455032,-29.93676507835015,11
1767649970.355467,1,left_wrist,-0.4651,-0.6422,-0.3572,24.5,-2.1,-6.51,-0.5610063785190613,0.6223982497851982,-0.5262158290550765,0.14487637204571496,-111.11550906133341,24.209814663994397,-63.69211998336051,11
1767649970.355467,2,right_wrist,-0.5246,0.486,-0.2025,54.88,-6.93,31.85,0.4419741424328217,0.8058501814546902,-0.0388067914262424,-0.39212035832052233,112.11297002313086,36.703728939264565,-30.68653830865455,11
1767649970.409503,1,left_wrist,-0.489,-0.2835,-0.3192,15.12,7.98,-32.62,-0.560441412680076,0.6248815938612016,-0.5211174545281007,0.15448305794745915,-110.61700460829488,23.019498511117938,-63.60601351443051,11
1767649970.409503,2,right_wrist,-0.449,0.5392,-0.245,-9.38,0.21,66.08,0.4533387519596391,0.8047290454943705,-0.05932172391926502,-0.3786503299624111,111.31475320418376,33.75454340572739,-31.853940676745587,11
1767649970.470836,1,left_wrist,-0.3806,-0.6056,-0.2708,48.16,20.72,-60.2,-0.5645453176676222,0.6239272405144617,-0.5089143468218388,0.18168536111220993,-108.44034272662428,20.35852808103885,-63.6591654304263,11
1767649970.470836,2,right_wrist,-0.3826,0.4172,-0.2006,-5.74,-2.38,97.86,0.4677775810628172,0.801155428913647,-0.09042264525072256,-0.36215722911888976,110.21137685117696,29.715463727890164,-33.84460882171112,11
1767649970.558934,1,left_wrist,-0.2933,-0.5095,-0.3026,-79.24,44.17,-97.02,-0.5166043642534428,0.6657651596541511,-0.4892114372710211,0.224830720027759,-111.91017176795263,11.893232466564415,-64.56633462965036,11
1767649970.558934,2,right_wrist,-0.2084,0.5412,-0.2489,3.64,5.39,158.06,0.5116857778265043,0.7867873539979292,-0.1915218406833141,-0.287163209517337,108.79326721315873,14.825424935292611,-38.00620665732785,11
1767649970.629707,1,left_wrist,0.0732,-0.5846,-0.4563,37.31,78.26,-133.98,-0.4533017288510054,0.7055806120460375,-0.4425865797686566,0.3174754509156748,-112.82252750002408,-2.6800431840451027,-65.97732249067188,11
1767649970.629707,2,right_wrist,0.1118,0.7808,-0.2259,-34.44,9.8,161.28,0.5449863317337458,0.763814574410314,-0.24245584661998124,-0.24656106055412463,106.63108459808707,6.452739031240964,-40.0310151712825,11
1767649970.710828,1,left_wrist,0.1981,-0.8545,-0.427,1.68,81.27,-135.52,-0.41489929492489486,0.720371395137925,-0.4139935715488989,0.3708543526157563,-112.81600780111097,-10.99798382558286,-67.08888059610484,11
1767649970.710828,2,right_wrist,0.3226,0.896,-0.1874,1.89,18.9,173.04,0.5767205028723973,0.7235033868963421,-0.3533159315060538,-0.13821781093672617,107.64864272334913,-11.97746588630888,-43.28302379497752,11
1767649972.473611,1,left_wrist,-0.284,-0.9106,-0.4729,17.92,-14.63,45.57,-0.5295041070139191,0.6882948095977497,-0.46529606356040487,0.17139203298689534,-113.18523719265994,14.88121005927229,-58.27204235915135,12
1767649972.473611,2,right_wrist,-0.446,0.8189,-0.2196,9.73,-0.91,-53.69,0.48559068708276226,0.7804883959509117,-0.09433385615658973,-0.38228349688038016,105.87803793633987,30.339343947502627,-36.92719786732814,12
1767649972.56436,1,left_wrist,-0.4041,-0.5778,-0.4329,20.58,-14.14,41.16,-0.5404442159801978,0.6760072812574972,-0.475393724375403,0.15790823893920097,-112.5621650980318,17.47882669531585,-58.51705998472749,12
1767649972.56436,2,right_wrist,-0.5324,0.8457,-0.2162,0.63,-1.05,-39.83,0.471919861360552,0.7828131448092778,-0.06746549993524448,-0.3999295326501076,106.49030648931486,34.22634193079463,-35.752102491774735,12
1767649972.617823,1,left_wrist,-0.4124,-0.649,-0.4299,34.65,-13.79,41.44,-0.557983626523151,0.652898052168176,-0.49590048410518406,0.12830088024373903,-111.9191359203614,22.698004471059946,-58.99318725989064,12
1767649972.617823,2,right_wrist,-0.5324,0.8457,-0.2162,0.63,-1.05,-39.83,0.4679185460201158,0.7825037696081694,-0.056663372954108414,-0.4068529795944593,106.53194749325687,35.71122473197531,-35.31938059507404,12
1767649972.671248,1,left_wrist,-0.4768,-0.7579,-0.3528,-8.12,-11.27,33.32,-0.5599335209805137,0.6469398982348891,-0.5055624966590688,0.11112957358887261,-112.59423669744174,24.984588569612438,-59.200961538979634,12
1767649972.671248,2,right_wrist,-0.5788,0.6861,-0.2279,16.24,0.14,-30.38,0.4537078252620439,0.7874708945070262,-0.046310418311708346,-0.41460118759608644,107.99017469392118,37.65822138743058,-34.56548802720969,12
1767649972.759048,1,left_wrist,-0.4729,-0.5866,-0.3411,-3.15,-4.69,18.62,-0.5601945886045623,0.6429981090300688,-0.5124573171686868,0.10061288566676045,-113.15023896192142,26.40823040378602,-59.50345738174851,12
1767649972.759048,2,right_wrist,-0.569,0.5929,-0.2118,-6.65,-3.71,8.89,0.44444390554181656,0.7893935483783852,-0.04336969127094655,-0.4212440034996129,108.71199529749495,38.792648232811814,-34.628790864926984,12
1767649972.822666,1,left_wrist,-0.4421,-0.4856,-0.3021,35.56,19.18,-53.41,-0.5563876911473405,0.6500027556637794,-0.5041900584342893,0.1171389762002912,-112.78372367976168,24.127526875496933,-59.431270287803265,12
1767649972.822666,2,right_wrist,-0.5627,0.5944,-0.2347,13.44,-2.24,32.34,0.44222698613908595,0.7923391268637153,-0.0549409626339496,-0.41667192297542766,109.31324301573399,37.71239417119769,-35.16281233722607,12
1767649972.9121878,1,left_wrist,-0.4324,-0.3333,-0.2923,3.36,26.25,-60.2,-0.5475719377236637,0.6601386018541241,-0.4959086247076712,0.13585519975393154,-112.96312696652446,21.329123919119205,-59.609820837011,12
1767649972.9121878,2,right_wrist,-0.3431,0.5163,-0.1864,5.88,-0.49,110.95,0.4673588427206916,0.788930573569669,-0.11661246349208156,-0.3815308579605544,108.21939964983979,29.538150921662385,-38.417328752756134,12
1767649972.9688058,1,left_wrist,-0.1537,-0.3094,-0.3694,32.83,59.5,-137.9,-0.5154264476112836,0.6939256949827132,-0.44932508889757306,0.2256317163715227,-111.78053744451087,8.629521494081114,-59.99632049626305,12
1767649972.9688058,2,right_wrist,-0.2796,0.4753,-0.1791,-4.13,8.26,152.32,0.49140782005301276,0.7820922481327953,-0.16677677018527653,-0.34501533114907146,107.51918864718115,22.071096271675074,-40.3457508395084,12
1767649973.020936,1,left_wrist,0.041,-0.7603,-0.3582,6.09,63.7,-160.93,-0.48458563910527674,0.7177282938934642,-0.41138054316851463,0.2842690683491354,-111.63866157871536,-0.5361645418580527,-60.00422218841553,12
1767649973.020936,2,right_wrist,-0.0332,0.7144,-0.1932,18.62,34.09,190.26,0.5163978915858936,0.7736394027318534,-0.2292086937888411,-0.28684258191202766,107.98716994536812,11.952439718107156,-41.70717784752387,12
1767649973.108462,1,left_wrist,0.3099,-0.9155,-0.3382,97.23,73.99,-163.59,-0.4776361570207897,0.715379910326339,-0.3596459759428958,0.3615937740005661,-106.65382936028341,-10.00848397904032,-60.84171481683676,12
1767649973.108462,2,right_wrist,0.3187,0.8115,-0.1762,-16.1,60.27,200.69,0.5779278238209667,0.7241098985954859,-0.34225173735904674,-0.1566142825042178,106.68209162132344,-9.716992027229635,-43.35593828512836,12
1767649974.916235,1,left_wrist,-0.3592,-0.6988,-0.4392,15.82,-13.79,39.55,-0.5217611337706888,0.7074900102826902,-0.4631830730132246,0.11262613156168513,-117.04466688129544,18.903676479734585,-54.784330835383734,13
1767649974.916235,2,right_wrist,-0.468,0.6539,-0.2865,2.45,-6.02,-49.14,0.43868655749201685,0.8057034984312392,-0.11878028194030574,-0.3798515782692587,112.27554996183646,30.522778037611417,-37.52274129948537,13
1767649974.9744298,1,left_wrist,-0.4119,-0.632,-0.4416,-6.37,-11.48,34.93,-0.5226533542217875,0.7020346289886139,-0.47411397529671234,0.09589989285647056,-117.82272027460829,21.15820787944748,-55.21510767882986,13
1767649974.9744298,2,right_wrist,-0.4636,0.7569,-0.305,-41.65,-5.11,-41.58,0.44898306906748053,0.7981209071919851,-0.1010032534191571,-0.388864454524368,110.31454684520808,32.00709000814344,-37.00711647271159,13
1767649975.025363,1,left_wrist,-0.4065,-0.7042,-0.468,14.63,-14.77,32.2,-0.5296667291688248,0.692705846764704,-0.48230049069570985,0.08365406472055241,-117.55027711649595,23.267329143737175,-55.46707033815601,13
1767649975.025363,2,right_wrist,-0.5197,0.7686,-0.2943,-7.84,-6.51,-36.47,0.44197947128165493,0.7990040269479657,-0.08708634113633255,-0.3983248436565432,110.62782425464938,34.024375889417584,-36.35210185604228,13
1767649975.120984,1,left_wrist,-0.4509,-0.6061,-0.4202,-6.79,-9.8,22.33,-0.52931531609161,0.6893961290316033,-0.48952482563846006,0.07016921341097691,-118.29149550805982,24.927884947623888,-55.71100836225006,13
1767649975.120984,2,right_wrist,-0.5461,0.651,-0.243,-3.92,-6.65,-24.57,0.43297457462292854,0.7960029342227306,-0.06926744101288,-0.4172701379854835,110.33203271590641,37.17952466898397,-36.29329063022995,13
1767649975.176009,1,left_wrist,-0.5095,-0.407,-0.3445,-19.6,3.36,-12.25,-0.529341728756799,0.6864438993362316,-0.4947925197065359,0.061420433923003746,-118.75046394950597,26.072321032720357,-55.959492500996575,13
1767649975.176009,2,right_wrist,-0.5495,0.5461,-0.2557,22.26,-4.34,-3.64,0.42093448154614815,0.8007284540131738,-0.07026784075878109,-0.42036952284180457,111.729499843342,37.88273248813327,-36.225203666627905,13
1767649975.2607691,1,left_wrist,-0.4275,-0.3797,-0.3631,32.2,18.83,-36.4,-0.5324333383676745,0.6858299568161345,-0.4898914987055812,0.07847502802950909,-117.52836226700438,24.45812508056571,-56.09995263907588,13
1767649975.2607691,2,right_wrist,-0.4734,0.7208,-0.2367,-0.07,-5.67,68.6,0.45220527650857933,0.7903641234538135,-0.0978947331846991,-0.40156140435751675,108.69706319928005,33.108239518849665,-38.192830418039996,13
1767649975.313302,1,left_wrist,-0.3997,-0.2948,-0.3475,-31.64,34.37,-73.43,-0.5112463285594598,0.7069776898686413,-0.4793375671219334,0.09510643673326129,-119.4249480608071,20.832850442225755,-56.01873736275557,13
1767649975.313302,2,right_wrist,-0.4255,0.6056,-0.2245,-21.07,-1.75,97.09,0.4731151102872939,0.7833011335145654,-0.1272398746397847,-0.38263747980861834,107.19530133055576,28.622886709801012,-39.75876018783063,13
1767649975.37072,1,left_wrist,-0.1352,-0.386,-0.4202,34.65,61.46,-109.41,-0.4953437838464289,0.728413824214871,-0.43288448403782753,0.19146503591171152,-116.16354376267093,8.622390063544826,-56.06767279383924,13
1767649975.37072,2,right_wrist,-0.2728,0.5671,-0.2074,17.85,9.73,129.57,0.48818060010560715,0.7813364219723161,-0.17432996409637078,-0.3475660527125545,107.67759164657257,21.896000777826213,-41.24906319562019,13
1767649975.4259388,1,left_wrist,-0.0268,-0.9809,-0.2918,-23.8,67.27,-128.03,-0.4648223618585902,0.7499044432538136,-0.405825818152978,0.23851394765265976,-117.01278631829668,1.120117456091401,-56.155597948810694,13
1767649975.4259388,2,right_wrist,-0.0869,0.7579,-0.1493,1.61,12.32,169.12,0.5155558314801433,0.7669880771769377,-0.23140058794158055,-0.3039494069669044,106.93473280366169,13.158833134691246,-43.34514211326409,13
1767649975.507257,1,left_wrist,0.1713,-0.4709,-0.2786,107.1,97.02,-139.93,-0.4635447827321607,0.741429634301593,-0.36502730769654834,0.3196300931029637,-111.67458749502899,-7.790623734994126,-57.716210459449265,13
1767649975.507257,2,right_wrist,0.3353,0.9618,-0.144,37.87,63.07,216.02,0.5680122716610739,0.7273332810106472,-0.3473101395851608,-0.1665053287977581,107.6264912572838,-8.76273762396738,-44.63398593817683,13
1767649977.106344,1,left_wrist,-0.2586,-0.753,-0.3914,-8.54,-23.52,59.36,-0.5194656697150161,0.7213849172526863,-0.43633685325305965,0.13917388275492817,-115.82940558014403,14.627165752198346,-53.13544386509359,14
1767649977.106344,2,right_wrist,-0.405,0.8125,-0.1591,34.23,1.05,-68.25,0.4862587983686519,0.7564181687648788,-0.13833461668796876,-0.41502706995719574,102.11855067434982,29.560030249447102,-44.79816571717754,14
1767649977.161516,1,left_wrist,-0.3509,-0.5744,-0.4026,21.42,-17.36,54.18,-0.5316821356879285,0.7067969973335454,-0.4505543165246555,0.12146159480102203,-115.1973364681385,17.902972228625952,-53.61412604821153,14
1767649977.161516,2,right_wrist,-0.4494,0.7735,-0.2074,1.82,2.94,-56.35,0.4733868194374531,0.7627536291293551,-0.11984951945794,-0.4239668773838248,103.14053906795706,32.22830090451601,-43.68069646308155,14
1767649977.223548,1,left_wrist,-0.4153,-0.6769,-0.3704,12.25,-10.57,34.44,-0.5426202077963227,0.6890824946991574,-0.47236004957553135,0.08720441018241443,-115.4960889515891,23.10654279281276,-54.16064226113613,14
1767649977.223548,2,right_wrist,-0.4919,0.6905,-0.184,31.08,-1.05,-49.28,0.45039798075162296,0.7728489970793125,-0.10693646417948399,-0.4340629899878028,105.40886936703937,35.07178983064632,-42.82067605318378,14
1767649977.282945,1,left_wrist,-0.4343,-0.7169,-0.3865,-6.58,-9.66,28.84,-0.5431426132356083,0.6841010224835035,-0.4814686708572727,0.07204034777505418,-116.18940658302584,25.11563705241958,-54.484687537429906,14
1767649977.282945,2,right_wrist,-0.5109,0.793,-0.2269,-5.46,1.33,-36.96,0.4469751274694964,0.7741865951281426,-0.09617554193572751,-0.4377197921968918,105.63340246984339,36.28324250520338,-42.079265394697465,14
1767649977.3671622,1,left_wrist,-0.4817,-0.6666,-0.3723,20.37,-5.04,22.89,-0.5509110211227114,0.6732703298247591,-0.48882803386337154,0.06520171080931948,-115.51476735800271,26.7953274699953,-54.8741758207402,14
1767649977.3671622,2,right_wrist,-0.5588,0.7906,-0.2401,-5.46,-3.22,-16.66,0.43525150090390397,0.7767535612662937,-0.08220238231265105,-0.4477195599514877,106.3673846035344,38.6072223027074,-41.4651763963926,14
1767649977.4206898,1,left_wrist,-0.5119,-0.4412,-0.346,2.31,0.98,-0.77,-0.5508247700174587,0.6676262004395233,-0.49824364192198983,0.05119182069639057,-116.25486519149251,28.720406863520033,-55.377730625788374,14
1767649977.4206898,2,right_wrist,-0.5836,0.5324,-0.2054,16.87,-3.15,-1.96,0.42567043417143663,0.780449375036074,-0.08254169397925842,-0.45043348369447017,107.42165876241177,39.25774073589561,-41.42497721563636,14
1767649977.471667,1,left_wrist,-0.4992,-0.3904,-0.3314,0.14,9.45,-29.05,-0.5471779602985092,0.6728112260835954,-0.49465421785709285,0.05690815913065384,-116.47349786796988,27.694100321117915,-55.29263065758006,14
1767649977.471667,2,right_wrist,-0.5422,0.53,-0.2216,28.91,-4.76,32.13,0.4184068534782581,0.7852994134927963,-0.09774369086599283,-0.4457428709762917,108.73942446888333,38.19136627728757,-42.06051747693814,14
1767649977.523605,1,left_wrist,-0.4153,-0.446,-0.304,19.39,18.13,-61.74,-0.546358221265183,0.6800176321041134,-0.48283148935871106,0.07708739823803222,-115.56674652098214,25.008728666617984,-54.84064109345656,14
1767649977.523605,2,right_wrist,-0.4553,0.4948,-0.161,-11.69,-0.28,66.08,0.4335986605299318,0.7792969277539562,-0.11541313771781248,-0.4374566351331563,107.25342899878491,35.572402576089395,-43.43680031431642,14
1767649977.605131,1,left_wrist,-0.3177,-0.5666,-0.3157,14.21,29.19,-85.05,-0.5386060824229172,0.6939173891298435,-0.46581717938140244,0.10675439304034905,-115.11511653332082,20.709287536733072,-54.49594627380672,14
1767649977.605131,2,right_wrist,-0.2225,0.4968,-0.1972,-0.28,9.59,149.17,0.4711250986973683,0.7693962753272783,-0.20775380420051218,-0.37803289503708737,107.03552112468508,22.703235637573854,-47.1099291117095,14
1767649977.665091,1,left_wrist,-0.3074,-0.5949,-0.2518,25.55,42.21,-110.74,-0.5344456209910298,0.7054248582242247,-0.4414084076693495,0.14799413921387047,-113.51437504711143,15.249339457247775,-54.042332066607955,14
1767649977.665091,2,right_wrist,-0.0703,0.814,-0.1586,37.66,9.94,178.22,0.4899609966166642,0.7586683779008554,-0.2734031837416476,-0.33107584219876396,108.01543931759669,13.558600356700444,-49.50537755241942,14
1767649977.721129,1,left_wrist,0.0586,-1.4279,-0.2811,-131.88,58.1,-139.44,-0.46878404520870826,0.7550362292178663,-0.3874050870520017,0.24511040380297314,-116.12527962906755,-0.3962505925969298,-54.57124127979799,14
1767649977.721129,2,right_wrist,0.001,0.8247,-0.2245,28.77,19.81,183.82,0.5100573691278187,0.7416814684945707,-0.3355482117028384,-0.27777234763952313,109.0359974135916,3.999026782185105,-51.53662102502731,14
1767649977.8102138,1,left_wrist,0.2518,-1.0243,-0.3631,82.32,65.73,-137.69,-0.46854833821570663,0.7520244884535627,-0.3431975276684259,0.3116682218702083,-111.75794602775049,-8.462090897621,-54.800014186020476,14
1767649977.8102138,2,right_wrist,0.2679,0.9755,-0.3533,16.66,14.56,167.23,0.556636549049036,0.6858632099922185,-0.4361060492608788,-0.17192708698753112,109.37187303419623,-14.457879144127565,-54.63127947567615,14
1767649979.365045,1,left_wrist,-0.2899,-0.6539,-0.4275,6.02,-24.43,56.91,-0.5109178484635701,0.7355181039304425,-0.42487124659689457,0.13213816529346806,-117.1496147882881,13.872882220763975,-51.52322821595504,15
1767649979.365045,2,right_wrist,-0.4534,0.8672,-0.2464,-1.96,1.19,-60.34,0.4470609752262262,0.7676989291924218,-0.17571476669609276,-0.42414521017161344,106.05742353512848,29.61181910072476,-48.29084644358293,15
1767649979.4249501,1,left_wrist,-0.3894,-0.6612,-0.4294,14.49,-16.73,48.09,-0.529870976087269,0.7116083946167214,-0.45121686700788666,0.0961955318033229,-116.53782696050322,19.9540455941381,-52.33970290511524,15
1767649979.4249501,2,right_wrist,-0.469,0.7784,-0.2494,1.75,0.42,-55.58,0.43350506456738436,0.7743743128724955,-0.15716606863645344,-0.4332627487184188,107.11748676289086,32.326993416209234,-47.1047668866302,15
1767649979.47512,1,left_wrist,-0.405,-0.7061,-0.4368,-0.35,-15.89,37.24,-0.5331235717004059,0.7046618960137669,-0.46154749390482747,0.07877042893026828,-116.95976166452792,22.402496306522554,-52.599889075059025,15
1767649979.47512,2,right_wrist,-0.508,0.754,-0.2425,10.85,-0.07,-46.34,0.417834576739073,0.7815185780940517,-0.14240953716709995,-0.4408656283937135,108.60371393050424,34.755951082845236,-46.00084837975714,15
1767649979.530835,1,left_wrist,-0.4446,-0.5431,-0.3963,8.68,-11.76,26.67,-0.5379440596815355,0.6971187257499186,-0.46924769049606113,0.06669539584012583,-116.90407471825249,24.322283857135037,-52.81737612428194,15
1767649979.530835,2,right_wrist,-0.5544,0.7344,-0.2303,1.26,-0.28,-36.82,0.410640446271537,0.7821989415922322,-0.12838080316268977,-0.45061913967030665,108.7019430750946,36.834878440705786,-45.506305088655225,15
1767649979.612375,1,left_wrist,-0.4431,-0.6622,-0.4006,-0.77,-6.16,14.49,-0.5383070786764794,0.693930240071155,-0.4747611781455297,0.05734225917639156,-117.30945824927308,25.56606579080191,-53.020905209223464,15
1767649979.612375,2,right_wrist,-0.5651,0.6198,-0.2225,9.24,-1.47,-13.3,0.39575089074569675,0.7882715848803485,-0.11738646514066141,-0.45632177106291066,110.29169951444685,38.792322413231744,-44.4938451656366,15
1767649979.665845,1,left_wrist,-0.4656,-0.4782,-0.3558,0.42,7.35,-30.31,-0.5350192483765905,0.6984434269446695,-0.47169787707990024,0.05858580017930543,-117.65821229254988,25.01763247723663,-52.77908804735372,15
1767649979.665845,2,right_wrist,-0.55,0.5885,-0.2225,12.18,-4.13,8.75,0.3903506852015649,0.7892451230962103,-0.12053829653516095,-0.4584637360794398,110.71942361237045,39.0188565308541,-44.876348693697764,15
1767649979.7209659,1,left_wrist,-0.4455,-0.3967,-0.3577,27.3,14.84,-52.57,-0.5375947207292189,0.7018394980104163,-0.4609657021411943,0.07696659487099451,-116.41783943994635,22.80456681464186,-52.34333571248914,15
1767649979.7209659,2,right_wrist,-0.5329,0.3445,-0.1879,8.54,-1.54,50.33,0.39412932745230933,0.7882876282140251,-0.1369088239633876,-0.45223960725223905,110.61201765211854,37.2338942556935,-45.95966974773989,15
1767649979.78075,1,left_wrist,-0.2806,-0.7081,-0.3382,13.72,25.27,-78.4,-0.5333254784752487,0.7142541479707452,-0.439678828042839,0.10994305019694348,-115.36124442061981,18.175536596354704,-51.6742720940926,15
1767649979.78075,2,right_wrist,-0.406,0.4787,-0.2001,-5.6,14.28,100.94,0.4131959565607894,0.7855347894982629,-0.16661915683256795,-0.4294674056853882,110.0822914964928,32.48171675914532,-46.97370058002273,15
1767649979.8568351,1,left_wrist,-0.3026,-0.4031,-0.3079,32.27,44.24,-105.56,-0.5279582622264418,0.7239774702807639,-0.41772447976216526,0.15040929120280322,-114.05196359737234,12.902714944430812,-51.57731322757936,15
1767649979.8568351,2,right_wrist,-0.0859,0.7462,-0.2201,7.98,0.91,158.41,0.46596313614517515,0.7626022082846927,-0.26759613925324693,-0.36015071002265125,108.73085968017816,17.45301328228417,-51.23000732341894,15
1767649979.9110851,1,left_wrist,-0.0542,-0.7886,-0.367,95.48,62.93,-136.15,-0.5340366784849481,0.7220756767249733,-0.3796373313843833,0.22200684614281566,-109.40444071226258,4.8684937212483055,-52.01921307983711,15
1767649979.9110851,2,right_wrist,-0.0737,0.9565,-0.2367,-6.37,18.55,184.45,0.5004412545409632,0.7384278517530739,-0.3253924592677494,-0.3136918965489755,107.77110223020095,7.9088792343211125,-53.33652271381534,15
1767649979.962754,1,left_wrist,0.0444,-0.4939,-0.4265,34.51,65.59,-134.96,-0.5163540691616522,0.7307737953810803,-0.3486578268136548,0.2789011564087076,-108.15193378670902,-2.726333281631647,-52.98779700226712,15
1767649979.962754,2,right_wrist,0.1322,0.6217,-0.1835,-9.94,26.74,181.86,0.5326021853322437,0.7102728274790437,-0.3780778569430107,-0.2624967748632789,107.15706291820922,-1.7100477461230925,-54.790911293921916,15
1767649981.62411,1,left_wrist,-0.3109,-0.7271,-0.4416,-10.85,-17.92,47.32,-0.5312145789357527,0.7418164313536757,-0.3927968347551695,0.11502217136764646,-114.97407721791234,14.280436892530094,-46.67281821371535,16
1767649981.62411,2,right_wrist,-0.4114,0.7154,-0.3377,-4.34,-9.94,-59.5,0.3855388320595423,0.7914220584213766,-0.22434671597152464,-0.41794674953997113,113.89004448704928,29.24570340993084,-50.92598082956724,16
1767649981.721567,1,left_wrist,-0.3362,-0.6534,-0.4177,1.12,-18.27,42.0,-0.5354038821209525,0.7351920219844227,-0.4045532963521967,0.09577058123892374,-115.27733696729605,17.000453638841503,-46.82504766677446,16
1767649981.721567,2,right_wrist,-0.5139,0.7979,-0.3182,-20.3,-7.98,-41.44,0.37510726928396027,0.7917011640138943,-0.1986364666592832,-0.43937154839895004,113.39600469197691,33.139678503588016,-50.28876325692076,16
1767649981.807103,1,left_wrist,-0.4099,-0.629,-0.4372,7.28,-12.81,32.41,-0.5425996277409538,0.7225673449344251,-0.4229783996490056,0.06761175519212578,-115.54085203226882,21.180531258485047,-47.24243640391515,16
1767649981.807103,2,right_wrist,-0.5461,0.6564,-0.3314,4.34,-1.82,-25.27,0.35173045410688164,0.7995350024076774,-0.180111703246637,-0.45231542305377737,115.33286093355483,36.62552615519971,-49.054867898560495,16
1767649981.858881,1,left_wrist,-0.4436,-0.6808,-0.4172,6.37,-9.03,20.09,-0.545671543268176,0.7172358700120798,-0.42957321890477823,0.057289817901000774,-115.56118881134829,22.745040686737894,-47.38893226352522,16
1767649981.858881,2,right_wrist,-0.5407,0.4851,-0.265,-1.33,-1.26,3.43,0.3494917850560631,0.7994930444778057,-0.17846424565065885,-0.4547712359354729,115.3772045176364,37.04408259986035,-49.09322573809533,16
1767649981.924615,1,left_wrist,-0.4509,-0.5368,-0.366,8.89,17.99,-31.92,-0.5444874741357212,0.7175243159457717,-0.42953078110973036,0.06477310101515582,-115.46889356112068,22.01168704236229,-47.811814871343124,16
1767649981.924615,2,right_wrist,-0.5051,0.5705,-0.2596,2.73,1.33,32.62,0.3541766453644527,0.7965478197423758,-0.18794991183816817,-0.452487906337921,114.82059130850696,35.995490193927424,-50.01818962531745,16
1767649982.005624,1,left_wrist,-0.365,-0.304,-0.3396,6.16,27.09,-48.09,-0.5379885566313088,0.7242955457626257,-0.42333796896154696,0.08215375437369615,-115.6505659588194,19.663459737410594,-48.16672434204205,16
1767649982.005624,2,right_wrist,-0.406,0.5217,-0.3201,-1.19,11.2,96.32,0.3823277946758813,0.788649345037505,-0.2330682893320975,-0.4213512080177311,113.79860438583529,29.102908717673895,-52.137013935505934,16
1767649982.057408,1,left_wrist,-0.2679,-0.7003,-0.3445,24.92,34.65,-75.25,-0.5334930244999565,0.7327046300780748,-0.40592117866670463,0.11729072675140823,-114.6934163732823,15.143255426195369,-48.23548798561678,16
1767649982.057408,2,right_wrist,-0.2718,0.2074,-0.2806,-47.6,26.04,133.7,0.42134946821887537,0.7729893841852444,-0.26441966218221385,-0.3937439267087575,111.28304954636833,22.69922618075924,-53.395926059989876,16
1767649982.114194,1,left_wrist,-0.2611,-0.3723,-0.3113,43.19,49.35,-95.97,-0.5313807099684945,0.7367141301094248,-0.3867010824378404,0.1592140207767363,-112.99782519932204,10.15900782287441,-48.65565508699719,16
1767649982.114194,2,right_wrist,-0.1596,0.6583,-0.2308,-2.8,26.18,154.98,0.453626186148813,0.7560005269531932,-0.3132422383224929,-0.35293878593502764,110.51129745168548,14.445208185488724,-55.05896992364419,16
1767649982.1811242,1,left_wrist,0.0727,-0.447,-0.3079,95.69,83.09,-147.49,-0.5136460729225024,0.7415727737548483,-0.3184220849171584,0.2912814941492879,-107.71753752048927,-6.021424996669233,-50.87559089375527,16
1767649982.1811242,2,right_wrist,0.0527,1.1878,-0.3821,-6.3,34.23,170.38,0.48771125080732597,0.733092924741865,-0.3630733953807293,-0.3047789512024744,109.87439376106943,5.319681817107189,-56.42991207462448,16
1767649983.75981,1,left_wrist,-0.2303,-0.5895,-0.4338,23.8,-20.44,64.33,-0.5409640451351316,0.7599507439002872,-0.3401673762553142,0.11882308213478968,-113.16941788906698,10.803263280556509,-41.08874824737277,17
1767649983.75981,2,right_wrist,-0.3958,0.7505,-0.2821,1.19,2.8,-80.85,0.4156054685381107,0.7528112275883532,-0.23774124089373141,-0.45169287410412273,106.34438276280834,28.846572463243255,-56.85575348403834,17
1767649983.816297,1,left_wrist,-0.3855,-0.528,-0.5031,60.69,-13.23,46.97,-0.5499017292785142,0.7447922933800775,-0.36876188348114675,0.08310957315244512,-113.42246054933197,16.365684515850305,-41.89456837583732,17
1767649983.816297,2,right_wrist,-0.4372,0.6437,-0.2567,16.38,-0.28,-64.96,0.3938777137681161,0.7643288771234488,-0.2183858379830434,-0.46148601274627393,108.17100063767036,32.23679205030541,-55.5343991039235,17
1767649983.872809,1,left_wrist,-0.3992,-0.7403,-0.449,-41.09,-15.68,30.66,-0.5383919268211316,0.7502808165302214,-0.37888271399674195,0.060503871901199394,-115.81271434488127,18.492770758599914,-41.9274667149498,17
1767649983.872809,2,right_wrist,-0.4597,0.7613,-0.2908,-16.24,-1.12,-39.9,0.39105538928649347,0.7664209290621036,-0.20405966947911003,-0.46694142383991505,108.09167592232755,33.78996690162299,-54.66588947553604,17
1767649983.9630349,1,left_wrist,-0.4426,-0.5797,-0.4646,43.96,-16.1,29.4,-0.5542617758891834,0.7355741224155995,-0.3860387155257385,0.051949055197638594,-113.96046010198947,20.579593997358234,-41.92403510296522,17
1767649983.9630349,2,right_wrist,-0.5685,0.9599,-0.2011,14.49,-4.27,-31.92,0.38176356258345845,0.7652154667130089,-0.1800364555002513,-0.4860954088218526,107.26163507192271,37.33489325605764,-54.422349025761406,17
1767649984.013371,1,left_wrist,-0.425,-0.7544,-0.4431,-6.79,-13.09,19.25,-0.5526445625434626,0.7346462504173503,-0.3916281047774734,0.03881110391726962,-114.6267916585322,22.076080044351,-41.85373979053623,17
1767649984.013371,2,right_wrist,-0.6139,0.6486,-0.1903,-10.36,-1.75,-34.93,0.3755548883378061,0.7654381909569152,-0.1635117827018753,-0.49631320613886326,106.9906414645391,39.56690831576888,-53.93000394408487,17
1767649984.0675788,1,left_wrist,-0.4865,-0.6817,-0.4114,-41.72,-4.41,11.83,-0.5469404432152364,0.7334210919879386,-0.4033986075082716,0.014805973900011683,-116.23554393081345,24.806306565542332,-42.04479986477649,17
1767649984.0675788,2,right_wrist,-0.6017,0.5983,-0.2172,29.54,-2.52,-21.0,0.3573268275381506,0.7725834813312562,-0.16067397449400886,-0.49961602918230724,109.0005212825464,41.083935660759884,-53.42534468255317,17
1767649984.118579,1,left_wrist,-0.5309,-0.4363,-0.346,21.0,-1.12,-1.19,-0.5529899073038425,0.7278627027976945,-0.4052315184050505,0.014334042948866605,-115.41341539591538,25.297058554286668,-42.06783068408424,17
1767649984.118579,2,right_wrist,-0.5915,0.6007,-0.2025,-7.14,0.98,-2.31,0.3572348574097933,0.7713762363908344,-0.15532340170197892,-0.5032261911572588,108.6152683837403,41.71145265288237,-53.38172658683039,17
1767649984.177971,1,left_wrist,-0.4616,-0.3148,-0.3172,-26.39,12.25,-39.27,-0.5407019893339697,0.7405669997608639,-0.3985434640361816,0.019104577187708742,-116.92967954528883,23.74645449010877,-41.871799135310624,17
1767649984.177971,2,right_wrist,-0.59,0.428,-0.1967,32.83,2.73,29.05,0.34918793334740095,0.7760532228950797,-0.16895562791161783,-0.4972556467610214,110.22687614335426,40.82865861512692,-53.66014048658694,17
1767649984.2558,1,left_wrist,-0.3928,-0.3806,-0.2889,36.47,29.75,-69.23,-0.5455177234892221,0.7427631435855002,-0.38532946270332935,0.04727082676329583,-115.30366244051442,20.498694987189673,-41.77239073053861,17
1767649984.2558,2,right_wrist,-0.3938,0.4685,-0.1601,-8.61,1.82,108.99,0.38841020705122326,0.7605219070245363,-0.2242676573213257,-0.46951885784683145,107.80535465746011,32.67976276983466,-56.992808223888325,17
1767649984.305913,1,left_wrist,-0.3128,-0.4494,-0.3162,27.44,41.02,-92.47,-0.543290253726935,0.7505155359325271,-0.3668521204160353,0.08355628208275483,-114.29007657521002,15.854404567596537,-41.82158691720804,17
1767649984.305913,2,right_wrist,-0.2001,0.5846,-0.1454,21.7,24.01,165.06,0.4192946614675754,0.7496095846428943,-0.2813931382072444,-0.4278964351875084,107.98203854337423,23.92479879929021,-58.65862970052656,17
1767649984.357905,1,left_wrist,-0.2289,-0.6442,-0.2435,6.02,57.68,-129.5,-0.5332888937555816,0.7642961980180715,-0.3373400461046124,0.13287577200606132,-113.63101742038604,9.014621146135514,-41.72829519785674,17
1767649984.357905,2,right_wrist,-0.1171,0.5348,-0.2303,-31.22,25.97,190.12,0.4672816832431992,0.7230917398037657,-0.334403491193008,-0.38335423489364734,106.11810383075532,13.997485274029438,-60.18566244655095,17
1767649984.4087172,1,left_wrist,-0.0254,-0.6773,-0.2528,83.58,75.81,-141.96,-0.5403277914392125,0.7588277644783413,-0.29913756110343426,0.20674385406177115,-109.30644945197022,0.54424488064533,-42.643702720714174,17
1767649984.4087172,2,right_wrist,0.1293,0.8115,-0.1776,29.82,41.79,210.98,0.4995076347174174,0.7004527748029263,-0.39804322320608826,-0.31846448089166896,107.36729701952645,2.7792131504780158,-61.25910033071595,17
1767649984.4697611,1,left_wrist,0.224,-0.8735,-0.4075,-115.15,106.89,-141.54,-0.42600471733778744,0.8031550792157046,-0.2669086149517674,0.319721270484927,-116.83847960400512,-16.628371244489617,-47.03283182059877,17
1767649984.4697611,2,right_wrist,0.3704,1.1341,-0.3079,-41.51,64.82,228.41,0.5542739686944621,0.655114842735587,-0.44765145659409167,-0.2514221228619422,105.23730480577181,-9.60311603414784,-61.3466243020357,17
1767649985.909615,1,left_wrist,-0.1976,-0.7954,-0.3797,14.0,-30.52,77.91,-0.547350483126322,0.7750284277343107,-0.30173704644734256,0.09323700781502134,-112.96834696642186,10.707146381172736,-35.441540689962785,18
1767649985.909615,2,right_wrist,-0.3694,0.6754,-0.2591,-14.84,6.16,-79.03,0.4091873705180034,0.7427240163800084,-0.2670452547141627,-0.4578357382681685,106.09288966225752,27.487049123857883,-60.402732859125294,18
1767649985.970594,1,left_wrist,-0.3255,-0.8115,-0.4021,-5.46,-21.63,54.81,-0.5578278246337335,0.757541891225192,-0.33632845770275666,0.04291351352011663,-113.16492397969608,18.071836823370546,-35.899767002789226,18
1767649985.970594,2,right_wrist,-0.3909,0.571,-0.2894,28.0,-10.43,-65.24,0.38260232802038235,0.7552039873566679,-0.25268185944170074,-0.46843812182940253,108.23362473039019,30.9426166614733,-59.645004089161134,18
1767649986.024524,1,left_wrist,-0.4372,-0.5256,-0.3665,24.71,-12.46,45.22,-0.5671632679386319,0.7448292412820003,-0.3504254691501636,0.027517619870531553,-112.34069232654065,20.885713806253023,-36.30869304767702,18
1767649986.024524,2,right_wrist,-0.4675,0.8603,-0.2772,14.77,-6.23,-49.28,0.36980272829209854,0.7609679060164772,-0.24339550856916034,-0.4742704023750352,109.21520192496557,32.80574317614959,-59.09883337888315,18
1767649986.105354,1,left_wrist,-0.4358,-0.813,-0.3738,-13.51,-10.5,40.18,-0.5638960814798549,0.7414109180363275,-0.3636825329296111,0.008128662257528677,-113.37214573173797,23.459763247576465,-36.71702039070925,18
1767649986.105354,2,right_wrist,-0.5588,0.6988,-0.2913,26.18,-6.09,-38.71,0.3367444845543116,0.7723273863834094,-0.2173438728460393,-0.4928237020484178,111.37674120573396,37.94202316043672,-57.840439549722845,18
1767649986.1626508,1,left_wrist,-0.4538,-0.6378,-0.364,19.39,-6.3,27.58,-0.5696534323961244,0.732037326748739,-0.3736503465654726,-0.0013182250856832952,-112.84749700534422,25.317398906890798,-37.12214580291599,18
1767649986.1626508,2,right_wrist,-0.5983,0.6666,-0.2835,-16.45,-0.84,-33.32,0.3312915043827483,0.7745546442059734,-0.20057015569223516,-0.5000826480776613,111.4408651434015,39.92529798639935,-56.8480579520233,18
1767649986.21584,1,left_wrist,-0.5207,-0.589,-0.3343,10.15,-3.43,9.1,-0.5728240586470212,0.7233025494324683,-0.38525632196093385,-0.01684001807537439,-112.81790184936906,27.757414210879606,-37.44382132676665,18
1767649986.21584,2,right_wrist,-0.6056,0.5392,-0.2508,17.01,-3.71,-14.07,0.3184847129125655,0.7785652222313806,-0.19731265272705648,-0.5034594317783846,112.67434797034612,41.16805723698662,-56.52697646547977,18
1767649986.26796,1,left_wrist,-0.5207,-0.589,-0.3343,10.15,-3.43,9.1,-0.5728240586470212,0.7233025494324683,-0.38525632196093385,-0.01684001807537439,-112.81790184936906,27.757414210879606,-37.44382132676665,18
1767649986.26796,2,right_wrist,-0.5392,0.7574,-0.3109,4.69,10.92,16.1,0.3241265399363715,0.7801040602001249,-0.2052242909917501,-0.49422933113595063,113.04058977312388,39.64755854579836,-56.2982602142489,18
1767649986.325718,1,left_wrist,-0.446,-0.3992,-0.3192,5.32,18.41,-43.96,-0.5638920708030218,0.733726334889425,-0.3790249717986446,-0.0033865510844653347,-113.81142160592513,25.621743289183023,-37.77932947926654,18
1767649986.325718,2,right_wrist,-0.57,0.3006,-0.2435,7.77,15.47,35.42,0.32670049441710164,0.7826545937466067,-0.21412553179989213,-0.48463267581372244,113.78059786309093,38.22054494843381,-56.066717141959806,18
1767649986.414869,1,left_wrist,-0.4246,-0.3255,-0.2596,10.36,24.01,-83.58,-0.5618751342922377,0.744072502777096,-0.36075097140880885,0.02260930566623605,-113.32500753608839,21.823466100077603,-37.27653690309135,18
1767649986.414869,2,right_wrist,-0.4021,0.4353,-0.2259,-15.61,15.47,124.39,0.3576145512448634,0.7745849965476836,-0.2577484172749585,-0.453536844427676,112.90317864210948,31.215373532140788,-57.799134571914436,18
1767649986.467695,1,left_wrist,-0.1503,-0.5983,-0.2991,-39.97,54.11,-136.92,-0.5483947314636661,0.7702021007297438,-0.30274323989427904,0.1199936383009448,-111.95027553984303,8.465096316301794,-37.195801917550604,18
1767649986.467695,2,right_wrist,-0.2621,0.4577,-0.1752,-1.75,30.66,165.13,0.39682241046550476,0.7579010625499467,-0.30981445231625293,-0.4148890924982104,111.64968585505166,22.520076211987593,-59.864443567288035,18
1767649986.519555,1,left_wrist,-0.0249,-0.7252,-0.243,45.71,74.2,-149.38,-0.5451518937567645,0.7725351348700035,-0.264439671083762,0.18992245386449316,-109.480263237453,-0.2935826857105619,-37.99982924237134,18
1767649986.519555,2,right_wrist,-0.0386,0.8877,-0.265,-5.39,30.52,185.43,0.43777603141848287,0.7333612608522294,-0.36599453393404907,-0.369569220210653,110.62812962930599,12.803509621317442,-61.924465915679654,18
1767649986.581321,1,left_wrist,0.1547,-0.4846,-0.4128,-2.45,87.43,-158.76,-0.5158867034154005,0.7840634128815229,-0.23056752992645432,0.2567958098633676,-109.9066607302899,-9.485323043691018,-39.434726965010725,18
1767649986.581321,2,right_wrist,0.1586,1.0951,-0.2879,-27.23,44.52,187.6,0.4849373525144208,0.7009004632563208,-0.41364041607880997,-0.3201185888534561,108.9708841093445,2.7261967601157906,-63.04024784219243,18
1767649988.180491,1,left_wrist,-0.2811,-0.5832,-0.4451,12.46,-23.73,53.41,-0.524393641450596,0.8013669317057778,-0.2817475507507827,0.058657200926964886,-116.89901267545235,11.623598659552927,-31.589361042115282,19
1767649988.180491,2,right_wrist,-0.3006,0.6954,-0.2333,12.74,5.25,-86.31,0.42860763736207075,0.7199796481495697,-0.29056893196831174,-0.46205464527490697,103.06896358209218,24.59867433905255,-63.60930301235806,19
1767649988.263327,1,left_wrist,-0.2967,-0.7696,-0.4597,8.19,-21.42,48.37,-0.5297213699484165,0.7939863898211673,-0.2959695225815914,0.037187695566504565,-116.79963158921623,14.744535331567993,-31.78511958235286,19
1767649988.263327,2,right_wrist,-0.4607,0.7149,-0.225,-13.09,0.7,-60.13,0.40156143957753027,0.7367411468953808,-0.24704574975113863,-0.4846950487116598,104.02611527028726,31.04970440231399,-61.55427009516104,19
1767649988.322538,1,left_wrist,-0.4021,-0.7198,-0.4304,2.59,-16.73,43.82,-0.5455173199660225,0.7735764869802321,-0.32246541724156186,0.00251537107330411,-115.58100540742986,20.36071261330784,-32.34926938984158,19
1767649988.322538,2,right_wrist,-0.4875,0.7501,-0.222,22.82,-3.01,-45.5,0.38138481506519967,0.7471174237518474,-0.23721152700897763,-0.48999170341767523,105.92340716040987,33.45108889828086,-60.7820090228529,19
1767649988.4167511,1,left_wrist,-0.4397,-0.7174,-0.4089,11.9,-10.22,31.5,-0.5497964951881235,0.7658615611765807,-0.3332633067191979,-0.01074483064605052,-115.3295052956277,22.514181991671315,-32.669520111900354,19
1767649988.4167511,2,right_wrist,-0.5734,0.7486,-0.2025,32.97,0.84,-39.55,0.3594653753150709,0.7563615462416216,-0.20943151031100304,-0.5048170934164482,107.06897593553458,37.81266663432778,-59.3626119013128,19
1767649988.4709408,1,left_wrist,-0.488,-0.6988,-0.3811,8.68,-2.87,10.15,-0.5546511030775196,0.7549957020243234,-0.3487053102129149,-0.02735416620927387,-115.09092194112294,25.348571232126872,-33.302663678643654,19
1767649988.4709408,2,right_wrist,-0.5724,0.8003,-0.2791,-3.78,-0.35,-31.64,0.3548004786455552,0.7594984719621156,-0.20078491556983333,-0.5069162742699345,107.51366362811812,38.86791142722298,-58.618338702568394,19
1767649988.5576441,1,left_wrist,-0.4909,-0.5139,-0.367,14.42,-0.7,0.35,-0.5578021511030347,0.7512732838333581,-0.3515555561186962,-0.029221638987987488,-114.69780243110188,25.85554892628298,-33.419310736380176,19
1767649988.5576441,2,right_wrist,-0.5793,0.5197,-0.222,31.15,-1.61,12.81,0.3423122473805756,0.7648612686683653,-0.19895099945734065,-0.508161455444235,108.94785678626998,39.876827046395945,-58.20157491473335,19
1767649988.613409,1,left_wrist,-0.4465,-0.5866,-0.3323,-12.74,5.81,-19.32,-0.5516152476046814,0.7569532748653967,-0.3491898690901185,-0.028439296851422446,-115.55595211772562,25.35917370005514,-33.38700826855662,19
1767649988.613409,2,right_wrist,-0.5305,0.5363,-0.1879,-9.66,0.7,41.44,0.3518422655469857,0.7602643222216164,-0.2075198649084395,-0.5051145278053816,108.01308977137542,38.46325382894059,-58.973438791560675,19
1767649988.673255,1,left_wrist,-0.3396,-0.5788,-0.2918,23.73,35.84,-77.77,-0.5533401674271126,0.7649937667135912,-0.3293308047711134,0.011849769191741468,-114.38729505974335,20.263244860504663,-33.441982953462414,19
1767649988.673255,2,right_wrist,-0.468,0.5163,-0.1893,17.64,9.31,80.85,0.3608412915802081,0.7592303939649484,-0.23456215645394154,-0.4882042256374203,108.69448898220877,34.89257259440631,-59.744668899926864,19
1767649988.755336,1,left_wrist,-0.3148,-0.529,-0.3396,42.49,42.42,-80.22,-0.5582131023427668,0.7661457144939403,-0.3147610943321068,0.048418281984061666,-112.78575294047461,16.094153627119667,-33.93417043132593,19
1767649988.755336,2,right_wrist,-0.2006,0.8359,-0.181,-6.58,22.47,129.43,0.42597933634416446,0.7306154734572271,-0.29810128512851625,-0.442581358348252,105.47164835999595,23.125322415249688,-62.08702745294549,19
1767649988.8087602,1,left_wrist,-0.2635,-0.6544,-0.2377,16.52,56.21,-109.76,-0.5552935323745928,0.7729849761113491,-0.2922184718347207,0.09355043734619611,-111.83051751528974,10.364394691374597,-34.39351889962245,19
1767649988.8087602,2,right_wrist,-0.185,0.6695,-0.2489,-29.89,20.23,151.34,0.4667597402199768,0.7081756547163204,-0.3385929693205344,-0.40740322544574264,103.92511620181735,15.126021345269349,-62.967143243877885,19
1767649988.862665,1,left_wrist,-0.0127,-0.4831,-0.4046,32.69,66.78,-126.7,-0.5480578162405849,0.7792154888541176,-0.2638006334674061,0.15121202918298246,-110.73475405264446,3.066931118335836,-35.28811803538689,19
1767649988.862665,2,right_wrist,-0.0478,0.853,-0.1908,21.7,18.06,155.82,0.491774313916256,0.6894490322067764,-0.38859473125186783,-0.3630594868676804,104.74291193670763,6.8009371164169865,-64.05922109422427,19
1767649988.91297,1,left_wrist,0.1088,-0.8633,-0.3504,-15.96,68.88,-138.53,-0.5224775915012557,0.7936530735342159,-0.23110489916725324,0.20909923679830425,-111.5982930065103,-5.187208427617878,-35.99683676091516,19
1767649988.91297,2,right_wrist,0.1889,1.1561,-0.2645,9.8,42.77,176.4,0.5247398175931491,0.6643706650410061,-0.43500137189573873,-0.30664890300489467,105.16170889620874,-2.812519246395586,-64.27811096183483,19
1767649990.6797829,1,left_wrist,-0.3118,-0.8613,-0.3416,-28.21,-13.86,59.36,-0.5849284920459221,0.7662616079089227,-0.26522920349609663,0.01884879440553982,-109.16389337574716,16.343421868340858,-26.523508223515503,20
1767649990.6797829,2,right_wrist,-0.3821,0.874,-0.2811,-1.19,-2.24,-62.44,0.3740305529433065,0.7419881233099127,-0.30420971105439004,-0.46584463293265804,108.84514962367844,27.62837873593419,-64.53805268358487,20
1767649990.7610502,1,left_wrist,-0.4192,-0.57,-0.3304,22.75,-6.51,49.35,-0.5919631610476904,0.7547756511623355,-0.28263797915720956,0.0030174679497195324,-108.47561372697771,19.272873759234542,-27.114594652847696,20
1767649990.7610502,2,right_wrist,-0.4987,0.7876,-0.2645,13.58,-2.66,-49.14,0.3435208568148199,0.7566781685741216,-0.2707468884457884,-0.4859297197470526,110.43453459028288,33.32383149546981,-62.86200908357054,20
1767649990.8180501,1,left_wrist,-0.4451,-0.6168,-0.3665,29.68,-0.28,26.81,-0.5892051702900171,0.7467238319349628,-0.30773990170728377,-0.023171944697602562,-109.3849696585011,23.40637294912586,-28.102466897880515,20
1767649990.8180501,2,right_wrist,-0.5124,0.7696,-0.2664,-6.58,-5.18,-44.8,0.3390503188478571,0.7576885993868103,-0.2568388301623477,-0.4949612944152876,110.03772417888393,35.162017303911085,-62.45239492745628,20
1767649990.911235,1,left_wrist,-0.4656,-0.7017,-0.3928,6.3,-3.5,16.59,-0.5889951952377488,0.743718073038713,-0.31472736616655655,-0.030245211328274433,-109.54992863990218,24.56552537947068,-28.395311592052092,20
1767649990.911235,2,right_wrist,-0.5793,0.632,-0.2635,0.84,-3.08,-24.08,0.3213468180100904,0.7633116785399284,-0.2389072345665926,-0.5069663077869078,110.87333609265153,38.34552927867641,-61.700217942032396,20
1767649990.961691,1,left_wrist,-0.4973,-0.6725,-0.3665,3.08,-5.25,11.41,-0.5883433101074573,0.7417311577220713,-0.31981281417319946,-0.03750737269784081,-109.75851101509414,25.59202594143158,-28.496375097913543,20
1767649990.961691,2,right_wrist,-0.568,0.6417,-0.2513,5.11,-4.83,-3.22,0.3148617314786001,0.7644435090466756,-0.23688363751897773,-0.5102689034249299,111.23368555850337,39.121894853928296,-61.7651194414241,20
1767649991.019427,1,left_wrist,-0.4792,-0.4773,-0.2962,3.64,8.4,-29.68,-0.5851988397060613,0.7453742487917641,-0.31753961991347257,-0.033587751189982126,-110.18230853903633,24.94313271506585,-28.601291864483265,20
1767649991.019427,2,right_wrist,-0.5773,0.5207,-0.223,3.01,-1.96,18.83,0.314523113513721,0.7632601512541619,-0.24122922633762983,-0.5102133014080066,111.18688270842308,38.83697597330137,-62.225146862694835,20
1767649991.110529,1,left_wrist,-0.4412,-0.3777,-0.2372,10.78,21.14,-55.93,-0.5852319466756822,0.7500588298456103,-0.30772797056080786,-0.014792447240112604,-109.90371434444168,22.480866594594094,-28.74130212663111,20
1767649991.110529,2,right_wrist,-0.4651,0.4963,-0.1976,-14.98,10.08,73.71,0.3416884859433865,0.7527487061442827,-0.2728728387268926,-0.492096309533969,109.81902078794816,33.66765690375189,-63.85274221761814,20
1767649991.171734,1,left_wrist,-0.1688,-0.571,-0.4207,34.86,46.13,-118.09,-0.5788716472660692,0.7690266542199438,-0.2622503173907472,0.06877784613666499,-109.07549875589484,11.410358052536967,-29.51954747644085,20
1767649991.171734,2,right_wrist,-0.4231,0.4343,-0.2655,-4.13,17.01,114.1,0.36558382311024934,0.7437378809152185,-0.3052691299720795,-0.46905563748656093,109.41966586960744,28.32718934167227,-64.88615371545184,20
1767649991.223962,1,left_wrist,-0.1615,-0.7393,-0.3479,-21.0,55.23,-127.68,-0.5576535636638664,0.7877477226723035,-0.23441841676030922,0.11629288130053303,-110.6143403901612,4.4868118273106505,-30.037153153757515,20
1767649991.223962,2,right_wrist,-0.2025,0.8174,-0.2508,-7.35,12.74,136.36,0.3998657980025545,0.7243961908331699,-0.348018355966697,-0.440727496537726,108.2235307243961,21.11256299576166,-66.680562053706,20
1767649991.305792,1,left_wrist,0.0673,-1.2068,-0.4329,23.03,56.56,-126.84,-0.5516533021167401,0.7910722100423475,-0.20019481223840233,0.1726424916271881,-109.40239231372601,-2.9961639582422523,-30.524649343832284,20
1767649991.305792,2,right_wrist,-0.0849,0.9106,-0.1986,-51.17,8.96,126.42,0.4798809092220932,0.668110943848409,-0.42028077680253106,-0.383022386192278,104.32817640432371,6.225018887524728,-69.18133672074853,20
1767649991.361093,1,left_wrist,0.1859,-0.7144,-0.4177,4.13,67.69,-119.56,-0.5338908552229047,0.7960830829298341,-0.17337157270777426,0.22617377734635633,-109.43551641889206,-10.077682865361643,-31.712053134784746,20
1767649991.361093,2,right_wrist,0.0224,0.955,-0.2372,-10.15,12.95,130.69,0.508599409019778,0.641237682591075,-0.4556499876970776,-0.35003423301387704,103.74673852335772,-0.8351928050124877,-70.13809187465881,20
1767649993.305898,1,left_wrist,-0.2879,-0.7218,-0.4607,16.8,-15.4,46.2,-0.564507831545176,0.7867143632780338,-0.2468633093543354,0.03833960394718579,-111.6305153467268,12.614364745740408,-26.256225300351133,21
1767649993.305898,2,right_wrist,-0.4426,0.8677,-0.2074,0.35,6.44,-59.5,0.38748293513479004,0.7201973650030324,-0.290768230752897,-0.4966151089192184,103.70012667884053,29.339683138057445,-67.21101273979416,21
1767649993.3602319,1,left_wrist,-0.3094,-0.9536,-0.4402,4.55,-17.43,48.23,-0.5667103974608082,0.7811474643218544,-0.2614063611171032,0.017739187153437072,-111.7567902057522,15.579165264891232,-26.413307536835276,21
1767649993.3602319,2,right_wrist,-0.4675,0.7788,-0.2113,10.85,2.87,-51.1,0.37030626667727123,0.731273200559298,-0.27586732271863085,-0.5020059713383469,105.15616007547062,31.998443773737044,-66.08602769063378,21
1767649993.416736,1,left_wrist,-0.3841,-0.7828,-0.4138,10.92,-13.02,41.58,-0.576799003642496,0.7639973131683149,-0.2887274648670894,-0.015731048917448136,-110.95882270567377,20.922963321683202,-26.92922962206763,21
1767649993.416736,2,right_wrist,-0.5183,0.7813,-0.2284,0.07,1.12,-48.16,0.3568926099444082,0.7394727695294081,-0.25969250261023546,-0.5082986250026734,106.09806998228564,34.49826729139475,-64.99335626494882,21
1767649993.467581,1,left_wrist,-0.4543,-0.5597,-0.385,10.43,-12.67,36.47,-0.5793085502154559,0.7571009697840753,-0.30039395841250915,-0.031035382203918917,-110.84351641398375,23.268182698306717,-27.128407472933585,21
1767649993.467581,2,right_wrist,-0.5417,0.6759,-0.1967,14.91,-2.31,-36.19,0.3408456126736788,0.7458471580462502,-0.24861412669103766,-0.5154874403562992,107.16331439944751,36.832064304471025,-64.47239183570954,21
1767649993.521848,1,left_wrist,-0.4612,-0.6993,-0.3616,-2.94,-5.46,20.65,-0.5766700138773638,0.7553591502483407,-0.3084613869840783,-0.041663196836592746,-111.40532173825713,24.752680203612815,-27.40200047186089,21
1767649993.521848,2,right_wrist,-0.5617,0.6578,-0.2323,-2.03,-1.4,-23.66,0.33246097028978694,0.749832290650861,-0.23883498434044592,-0.5197875425463323,107.71570670880033,38.36729551091334,-63.849199018051515,21
1767649993.573855,1,left_wrist,-0.5036,-0.5119,-0.3382,19.53,-4.41,12.95,-0.5816100870050839,0.7485893776297952,-0.3148052093990459,-0.047342692456148625,-110.7716197696008,25.916972640798235,-27.567521862929233,21
1767649993.573855,2,right_wrist,-0.571,0.6217,-0.2211,21.0,-1.47,-6.37,0.32030332173115095,0.7548738608836223,-0.23928489325414395,-0.5199172781347021,109.13977128549001,39.17243722732406,-63.58722680623467,21
1767649993.624598,1,left_wrist,-0.4856,-0.5446,-0.3026,-30.38,2.66,-15.26,-0.5699763887952419,0.7581505760101053,-0.3127126370707846,-0.05045222420980439,-112.51448240842655,25.656726241022454,-27.530903658567528,21
1767649993.624598,2,right_wrist,-0.5783,0.6895,-0.2181,-6.23,-1.61,11.34,0.32759257105498163,0.7501390950008083,-0.24253672151163871,-0.5207210234466636,108.09071591888275,38.48574727964063,-64.25134566048209,21
1767649993.708608,1,left_wrist,-0.4763,-0.4558,-0.2786,34.16,13.37,-37.1,-0.5789544449884451,0.7543807118651379,-0.3072814727241723,-0.03604980879884294,-111.01301851394744,24.217054189893485,-27.553714123942594,21
1767649993.708608,2,right_wrist,-0.4597,0.5978,-0.2308,0.63,-6.65,64.96,0.34053872808924546,0.7421106893631255,-0.28016418485193223,-0.5047901830766899,108.15185330854183,33.9456937170703,-66.30398987819457,21
1767649993.772953,1,left_wrist,-0.2791,-0.63,-0.2874,73.5,36.68,-87.15,-0.592830868856211,0.7564958313963064,-0.2742014300611986,0.032851084663898765,-107.86707554543588,15.986253886200391,-28.168798731559264,21
1767649993.772953,2,right_wrist,-0.405,0.5285,-0.1942,15.47,8.26,106.96,0.35615186247805497,0.7346342323039814,-0.3149380621717999,-0.48402728494995395,108.54033564574506,29.132732020805538,-67.5857795240297,21
1767649993.858071,1,left_wrist,-0.2015,-0.4939,-0.3201,-38.15,51.59,-117.67,-0.5684663391712492,0.7801506481261298,-0.250382205041447,0.07429494502454831,-110.34289989524042,9.714871046212918,-28.81956028498535,21
1767649993.858071,2,right_wrist,-0.0366,0.954,-0.2303,3.5,16.45,180.32,0.4329369442898947,0.6830038572777455,-0.4144861570986357,-0.41745964929110796,106.43808703696182,12.202084779918609,-71.640807563441,21
1767649993.931434,1,left_wrist,0.1771,-0.5754,-0.4304,56.49,74.06,-137.06,-0.5324453192404732,0.8054570781134195,-0.18180287520052127,0.18624873665270059,-111.45091003456814,-6.109592730144893,-29.604441372739387,21
1767649993.931434,2,right_wrist,0.061,0.9248,-0.2533,-16.8,5.39,180.81,0.47297206137759484,0.6442462535846286,-0.4652100256918676,-0.3805572570509871,105.26478978128068,2.882189542908218,-73.8672909026106,21
1767649995.905117,1,left_wrist,-0.3782,-0.7769,-0.3821,5.32,-16.87,46.83,-0.5608516328377938,0.7872299024109317,-0.25596253261723034,-0.014060888642915614,-112.9291975880312,18.01417717000509,-24.028503969249687,22
1767649995.905117,2,right_wrist,-0.4621,0.7837,-0.1771,15.12,-0.35,-57.19,0.3708562620868414,0.7161393327712712,-0.2914800289177316,-0.5144409408970214,103.24619546967956,31.37441252523597,-69.37252024780652,22
1767649995.9735749,1,left_wrist,-0.4358,-0.7432,-0.3743,0.14,-8.68,37.73,-0.5608152750179884,0.7758160586640527,-0.2849180966719676,-0.04916653958025299,-113.49743929783014,23.319697187752478,-24.92062627974971,22
1767649995.9735749,2,right_wrist,-0.4729,0.7828,-0.1913,4.27,-0.07,-49.91,0.35967533076545705,0.7234357841523595,-0.2796551534563273,-0.5187169920023227,104.06955314412475,33.322208694596554,-68.55858097240673,22
1767649996.056344,1,left_wrist,-0.466,-0.5998,-0.3938,16.38,-10.36,35.42,-0.5645140088214237,0.7674821460625967,-0.2972986360630673,-0.06251887966491815,-113.16363391466768,25.570587302418556,-25.318075369787202,22
1767649996.056344,2,right_wrist,-0.5544,0.7164,-0.1825,1.61,-3.15,-39.27,0.33203840478586216,0.7339256872027619,-0.25175577401587945,-0.5363978128785382,105.07714476520917,38.32833771089771,-67.69045102835155,22
1767649996.1297998,1,left_wrist,-0.5183,-0.5744,-0.3919,26.46,-9.66,27.23,-0.5658629003929948,0.7560530493060545,-0.31752509011689906,-0.0857949983396434,-113.29049914486872,29.28029328222599,-26.049082403900385,22
1767649996.1297998,2,right_wrist,-0.5851,0.7008,-0.1737,-12.74,-0.07,-31.78,0.32878356582471074,0.7338280616034878,-0.23677504006630012,-0.5452846259050934,104.32284140570168,40.13530447122727,-67.44858545895897,22
1767649996.2050638,1,left_wrist,-0.5139,-0.6554,-0.347,-5.67,-2.52,12.6,-0.561796307224665,0.7555601943441836,-0.3235739518288141,-0.09388077337343137,-114.01329135168224,30.35993097786677,-26.386232525620017,22
1767649996.2050638,2,right_wrist,-0.6285,0.6202,-0.1976,17.43,0.84,-19.18,0.32043506990738047,0.7382345823352379,-0.22100797030954947,-0.5508961285736382,104.67520656294029,42.2017904006231,-66.50412482664326,22
1767649996.270682,1,left_wrist,-0.5148,-0.4563,-0.2918,0.07,5.32,-28.98,-0.5605710837121627,0.7592549574206424,-0.31799591396913035,-0.09039119667803511,-114.10720700259365,29.589239184653035,-26.024664487015386,22
1767649996.270682,2,right_wrist,-0.5905,0.5475,-0.1893,20.16,-1.54,3.43,0.31113486189148915,0.7424586666888261,-0.2252463536176947,-0.5488299428387151,106.04376506796726,42.43886235046355,-66.34552551722189,22
1767649996.357429,1,left_wrist,-0.4939,-0.591,-0.305,21.28,12.11,-40.25,-0.5662747460277232,0.7592767266808248,-0.3111644895145743,-0.07751402967994972,-113.1261799327567,28.04198124009263,-25.842909831328203,22
1767649996.357429,2,right_wrist,-0.4709,0.4294,-0.1484,2.24,1.12,83.93,0.3352117588683225,0.733226311344844,-0.2613932027026072,-0.530740846976105,105.40461063875834,37.08952469549074,-67.91057509043972,22
1767649996.427146,1,left_wrist,-0.3211,-0.6261,-0.2791,28.14,41.79,-96.25,-0.5711426722045558,0.7721681654434412,-0.27815236294520945,-0.013551208460739352,-111.65586264624869,19.795071832952882,-26.10938047376372,22
1767649996.427146,2,right_wrist,-0.3509,0.7203,-0.181,-4.76,3.92,125.09,0.36865024303667043,0.7170356369803833,-0.30222706204983696,-0.5085427185339142,104.16177001932911,30.4279426624109,-69.63373368659762,22
1767649996.515736,1,left_wrist,-0.2035,-0.3938,-0.3919,-40.67,53.97,-104.79,-0.5473643585260264,0.7960660652227745,-0.25699396126328106,0.02500365353959012,-114.31317170211382,13.97683319364738,-26.734659507428443,22
1767649996.515736,2,right_wrist,-0.0678,0.7759,-0.1889,17.71,6.23,171.99,0.43284656012406253,0.6733374500566377,-0.41053989334621166,-0.43671218177567733,104.52108014229489,13.45654223081934,-73.1764897142397,22
1767649996.569349,1,left_wrist,0.0605,-0.5192,-0.4192,19.81,75.67,-128.59,-0.526341027018548,0.8154479488801298,-0.1958232021931732,0.1402249600715244,-113.99817923559064,-1.2922864647084653,-27.846109082147528,22
1767649996.569349,2,right_wrist,0.0288,1.1141,-0.266,33.46,15.47,176.89,0.460706593388923,0.6470265917838652,-0.46694729975051646,-0.3886724116633831,105.90790446249329,4.169734457903236,-74.78256990722136,22
1767649996.6208892,1,left_wrist,0.1342,-1.0741,-0.3299,-57.12,72.59,-131.25,-0.4923599059771441,0.8319726733160364,-0.1671234248499497,0.19357932407147405,-116.47350385114026,-9.063886414739263,-28.335407395307815,22
1767649996.6208892,2,right_wrist,0.0761,0.8769,-0.2435,-12.6,14.56,165.76,0.49648802890661325,0.6095242789657014,-0.5095554946202785,-0.3497613306328346,105.25814531200152,-4.565594825236233,-76.3027335784406,22
1767649996.672281,1,left_wrist,0.3723,-0.9204,-0.4148,71.75,84.49,-114.94,-0.5007327078302928,0.8153724610083725,-0.13459169681899377,0.2575258827486609,-112.44185119852978,-16.569016306068594,-29.872352052635005,22
1767649996.672281,2,right_wrist,0.388,1.0477,-0.3094,32.48,32.41,163.17,0.5204484539102773,0.5815975539932898,-0.5516123346043402,-0.2942813693113685,107.04064149982565,-13.406892534768227,-77.03482118822403,22
1767649998.7721019,1,left_wrist,-0.3909,-0.8042,-0.3675,15.19,-13.72,41.51,-0.5694103002335573,0.7827260922313567,-0.24983644391510249,-0.026334878393792515,-111.73762884266814,19.010709538415142,-22.454439574020906,23
1767649998.7721019,2,right_wrist,-0.4529,0.7881,-0.2625,20.02,-7.63,-45.92,0.3284021136225198,0.7286245083375736,-0.3334786214348001,-0.500050384125476,109.28858616573315,30.641702090987504,-71.18486831602817,23
1767649998.8225029,1,left_wrist,-0.4294,-0.5768,-0.3904,10.71,-10.71,36.68,-0.5714729999883977,0.7764433065224816,-0.2624104671690438,-0.04117218430956627,-111.63675506742821,21.337240697695464,-22.765494791812568,23
1767649998.8225029,2,right_wrist,-0.4812,0.8008,-0.2679,-9.03,-6.58,-41.72,0.32481777506540066,0.7297667791949957,-0.3208913772577738,-0.5088836654742755,108.70308502737991,32.29444123851336,-70.93367242823142,23
1767649998.875082,1,left_wrist,-0.4207,-0.8072,-0.3548,-8.68,-6.37,27.93,-0.567286731226836,0.7750454690938728,-0.2728768292613648,-0.05503200399126056,-112.41460489855754,23.25995073237873,-23.106580732105808,23
1767649998.875082,2,right_wrist,-0.5124,0.6998,-0.2474,8.82,-6.02,-34.37,0.3099464151615265,0.7357789527474017,-0.3100510439542361,-0.5161694514065547,109.50945947366374,34.56736593298905,-70.50011726001625,23
1767649998.929215,1,left_wrist,-0.4543,-0.6725,-0.3626,23.24,-4.34,23.03,-0.5730384337719368,0.7666074375595374,-0.28282882219474803,-0.06283189822484561,-111.69225422615473,24.864792767795066,-23.48905985917575,23
1767649998.929215,2,right_wrist,-0.5007,0.8364,-0.2733,3.29,-2.94,-29.47,0.30533987667310447,0.7382346606430646,-0.30441813591337585,-0.518754994255957,109.754098541461,35.452219584896774,-70.16187237259409,23
1767649999.013404,1,left_wrist,-0.4817,-0.5002,-0.3016,39.2,4.41,-12.81,-0.5843038080398648,0.7582400001405072,-0.2835569976877951,-0.05706655026651168,-109.99618425530025,24.70252741550915,-23.572963551412315,23
1767649999.013404,2,right_wrist,-0.5339,0.5114,-0.2523,17.85,-9.87,15.82,0.29061276410582876,0.7421539233821324,-0.30678242809028466,-0.5202271784156488,111.11341572974706,36.431941083631024,-70.35429135067632,23
1767649999.071216,1,left_wrist,-0.4197,-0.4987,-0.3411,-20.3,19.46,-45.01,-0.5843341256488308,0.7619479957748628,-0.2766592101010595,-0.03805998953157922,-109.87027052280168,22.415613085470603,-24.07572692842643,23
1767649999.071216,2,right_wrist,-0.4948,0.6012,-0.1932,-2.17,-3.71,49.98,0.3025945299017712,0.7325454889140931,-0.3214458645182885,-0.5181565529154567,109.8236784848796,34.37528075086312,-71.90338374580439,23
1767649999.161896,1,left_wrist,-0.3865,-0.7027,-0.3333,37.1,17.43,-57.26,-0.5927416614455783,0.7603954792929102,-0.26497191310644086,-0.01568193618000567,-108.38379390908632,19.7531664024413,-24.104868972508026,23
1767649999.161896,2,right_wrist,-0.3362,0.7847,-0.2542,0.91,4.27,88.48,0.3393572219394054,0.7116281689604361,-0.37218819723051416,-0.4897938044747873,108.880926053967,26.390882026777174,-74.24971137435475,23
1767649999.220209,1,left_wrist,-0.243,-0.6437,-0.3206,11.62,34.23,-104.51,-0.5869413046104511,0.7764938816718068,-0.22388030150740668,0.0493433609048298,-108.15435306860319,10.729910895879671,-24.382396721167144,23
1767649999.220209,2,right_wrist,-0.266,0.7754,-0.2904,-5.67,14.21,107.87,0.3682678262617605,0.694949082165667,-0.40466405454629445,-0.46655287406218865,108.25686188386996,20.51248511376794,-75.33274572307108,23
1767649999.272026,1,left_wrist,-0.0742,-1.1078,-0.2845,49.42,52.29,-105.21,-0.596493794765499,0.7711913914314393,-0.19753163149632913,0.10217751781431055,-105.56482649228182,4.476829856245671,-25.332545814620108,23
1767649999.272026,2,right_wrist,-0.2269,0.8096,-0.2445,-9.31,6.02,119.21,0.399202790189805,0.6707206867173303,-0.4395677753824383,-0.44446716814568143,107.16887018034421,14.197984513196472,-76.97703954891026,23
1767649999.360469,1,left_wrist,0.0361,-0.6837,-0.4426,46.55,55.58,-106.19,-0.5984688986755878,0.7670221037063176,-0.17371931542457186,0.15275362251803434,-103.71457292571944,-1.512761127349982,-26.710733700893353,23
1767649999.360469,2,right_wrist,-0.0156,0.7442,-0.1986,-2.59,18.48,129.5,0.45713498763652477,0.6168986973780957,-0.5090132604637287,-0.38906182146780677,106.22123398112554,0.8392940481341704,-79.68312335539997,23
1767649999.4107788,1,left_wrist,0.0756,-0.996,-0.3582,-54.11,45.43,-101.01,-0.5663754502968872,0.7868030954590367,-0.1547502759200025,0.1902947460645181,-106.7528395143014,-7.131988217613839,-27.55838072346761,23
1767649999.4107788,2,right_wrist,0.1762,1.0677,-0.2445,8.82,11.97,136.29,0.4827610620424105,0.5868179416039758,-0.5452453959843883,-0.35396881013047465,106.56229924290699,-6.373886575426944,-81.03737901072047,23
1767650001.769789,1,left_wrist,-0.3558,-0.7837,-0.3899,11.97,-13.02,35.07,-0.5762726271849786,0.7878783615968755,-0.21362747948972663,-0.03899803189408349,-110.4715707437104,17.9186740523732,-17.851275465949588,24
1767650001.769789,2,right_wrist,-0.4929,0.7105,-0.266,-2.38,-5.11,-37.24,0.3077424269546825,0.7211617353309103,-0.34216674408784437,-0.5178245546388037,108.96485525085573,32.43022060152943,-74.2181675188941,24
1767650001.8566132,1,left_wrist,-0.3997,-0.712,-0.3675,4.9,-10.29,33.53,-0.5761588826682329,0.7838423796492475,-0.22526152939953067,-0.05375229447086328,-110.59439139525514,20.11097154142992,-18.06568239181338,24
1767650001.8566132,2,right_wrist,-0.5324,0.7676,-0.2601,-0.28,-4.48,-16.73,0.29881798996071135,0.7233263191031931,-0.33348470795674356,-0.5256375124812454,108.95171725001796,34.13276492175185,-74.22811347745662,24
1767650001.910315,1,left_wrist,-0.4275,-0.6837,-0.3601,1.75,-7.07,22.96,-0.5747341686021264,0.7814576473232734,-0.23404665603838262,-0.06501341152752958,-110.87212476139418,21.755073148642854,-18.26331546635631,24
1767650001.910315,2,right_wrist,-0.53,0.7574,-0.2625,0.98,-5.74,-10.85,0.2974823382263447,0.7236071719931668,-0.3338728640725796,-0.5257621417707927,109.0675878359665,34.21140163776269,-74.26919046535106,24
1767650001.978851,1,left_wrist,-0.4529,-0.4265,-0.2913,-11.06,4.76,-18.27,-0.5681966998552171,0.7849505053868769,-0.23682183202309046,-0.07014723261650443,-111.85594940840264,22.287046556901846,-18.40021883846034,24
1767650001.978851,2,right_wrist,-0.5422,0.5168,-0.2416,13.3,-2.87,9.59,0.2912496513990023,0.7251231325957814,-0.3379621377806698,-0.5245490220762593,109.82145110293051,34.323342018817335,-74.45996432063079,24
1767650002.056598,1,left_wrist,-0.3841,-0.3787,-0.2816,-2.45,22.4,-47.67,-0.5642603693983105,0.7914115406087129,-0.228742448174483,-0.05435900404688758,-112.36848429379674,20.131826248969624,-18.67996470967473,24
1767650002.056598,2,right_wrist,-0.4651,0.4587,-0.1991,-14.42,19.6,89.46,0.3207310319520868,0.7116296757517275,-0.3711342676676384,-0.5029653716661283,109.15943414694092,28.540615779289585,-75.59315671511592,24
1767650002.117708,1,left_wrist,-0.3138,-0.6612,-0.3762,4.34,34.79,-83.58,-0.5608123406873772,0.800536842227388,-0.2100380044637798,-0.022678612175797634,-112.60854836569536,15.776998388490059,-18.84556540643832,24
1767650002.117708,2,right_wrist,-0.3328,0.6856,-0.2123,24.57,10.64,112.56,0.34272798189330683,0.6961426852250054,-0.4114820011960538,-0.47812702802367385,109.47359538533196,22.559116993033413,-77.22814067239717,24
1767650002.1733272,1,left_wrist,-0.1122,-0.7178,-0.3518,52.43,49.91,-112.63,-0.5752657714308309,0.7992021852876359,-0.16168051910338116,0.06484264795656824,-109.32060896281438,4.72502295557414,-19.522076102640646,24
1767650002.1733272,2,right_wrist,-0.1645,0.9277,-0.2777,-30.24,10.64,113.4,0.3802971099487953,0.6707423785428174,-0.43971097038484397,-0.46057901853486155,107.38141161133966,16.46431460932261,-78.6310955283474,24
1767650002.257338,1,left_wrist,0.0166,-0.8125,-0.2865,54.46,55.58,-105.35,-0.5856002146140263,0.7905948809785521,-0.13428851055435656,0.11831618125855646,-106.63504622665462,-1.7077572214753733,-20.552377972648706,24
1767650002.257338,2,right_wrist,0.0356,0.9477,-0.2904,11.27,19.25,129.57,0.4284740627847306,0.6282563789782352,-0.5131211723145093,-0.3980082440308074,108.45601291769023,3.4618663429928014,-80.97424231265302,24
1767650002.3159769,1,left_wrist,0.2699,-0.9394,-0.366,51.24,48.72,-119.07,-0.5796192480050323,0.7820778513083279,-0.06817773527233618,0.21851214668334767,-103.94898949026809,-15.233464387025322,-21.904230659347085,24
1767650002.3159769,2,right_wrist,0.1103,0.7686,-0.2869,-3.5,40.46,143.29,0.46434991216538213,0.599729636870439,-0.5454712567899602,-0.35660149992286166,108.38563304846731,-4.522471610722756,-81.3114489602059,24
1767650004.3543968,1,left_wrist,-0.2991,-0.7896,-0.3982,15.54,-12.39,42.91,-0.5607073721703973,0.8163623938354139,-0.1279406836285121,-0.05282864940303727,-112.06637711005473,13.281129996853375,-8.844975230168405,25
1767650004.3543968,2,right_wrist,-0.4368,0.895,-0.1415,16.38,2.03,-37.17,0.34425630816017133,0.6795835306433415,-0.35308392070552885,-0.5431257350830203,101.48556893202405,29.676072657003402,-79.34173510268786,25
1767650004.4077618,1,left_wrist,-0.3265,-0.6617,-0.3699,2.03,-6.37,30.03,-0.5588433967204285,0.8147911717531664,-0.1396498873087141,-0.0656301253216803,-112.3436119857756,15.25019679175479,-9.19794656663727,25
1767650004.4077618,2,right_wrist,-0.4821,0.8413,-0.1161,4.9,2.59,-28.84,0.3380122361629192,0.6832256072379258,-0.3444411417644462,-0.5480062022263209,101.50643907015471,31.062520513375485,-79.09189798950244,25
1767650004.471089,1,left_wrist,-0.3431,-0.7003,-0.4168,7.56,-3.43,22.33,-0.5547755723419604,0.8121035723637744,-0.15930337613059933,-0.08564044862119137,-112.93773760560755,18.41232063810811,-9.936260809665672,25
1767650004.471089,2,right_wrist,-0.5119,0.7603,-0.1601,43.89,3.43,-24.36,0.31619882407470584,0.6955035611126851,-0.3442342874756187,-0.5457067485925936,104.07331278570099,32.778245612003566,-78.51454944855017,25
1767650004.554971,1,left_wrist,-0.3894,-0.8008,-0.388,-10.01,-5.32,15.47,-0.5490793080287605,0.8135734666389972,-0.16580332451890378,-0.09549547347461675,-113.72766179064519,19.722412909931347,-10.089967556775752,25
1767650004.554971,2,right_wrist,-0.5314,0.6998,-0.1913,19.04,0.28,-9.66,0.30901740822092316,0.7003881296732556,-0.3339312801576448,-0.5499587342351232,104.31000155420982,34.33204438818571,-77.9729982845324,25
1767650004.608513,1,left_wrist,-0.3894,-0.8008,-0.388,-10.01,-5.32,15.47,-0.5433388187922383,0.8148620184324337,-0.17227824502280775,-0.10537089352158208,-114.5202992872527,21.034890719241645,-10.260982908591268,25
1767650004.608513,2,right_wrist,-0.5202,0.5002,-0.2059,8.96,-1.89,10.57,0.3048073043029407,0.7018613980959476,-0.33751342493206987,-0.5482406160592266,104.94917449970853,34.3207186317825,-78.04817334886269,25
1767650004.6706839,1,left_wrist,-0.3762,-0.4943,-0.3601,20.16,14.28,-31.92,-0.5433740769593035,0.8176613921156911,-0.1660512125973911,-0.092744030142057,-114.57562720502429,19.397639627132158,-10.429998108597147,25
1767650004.6706839,2,right_wrist,-0.4719,0.6612,-0.1776,7.07,-0.56,34.51,0.307213729254064,0.6992185908672438,-0.3471925100398281,-0.5442154423715669,105.16707687614796,33.21118060771074,-78.51599200038692,25
1767650004.7238731,1,left_wrist,-0.3684,-0.6002,-0.2728,-33.32,22.75,-71.26,-0.5324191636954736,0.8303064779983028,-0.14706448627703114,-0.0741149350666877,-116.07943343806149,16.24087567375334,-9.913848755620792,25
1767650004.7238731,2,right_wrist,-0.4792,0.6202,-0.205,53.69,-3.01,60.69,0.3010735953438212,0.6984846263641098,-0.3770343256745413,-0.5285064182986609,107.61467487272877,30.74893131213945,-79.47043285206973,25
1767650004.8036659,1,left_wrist,-0.182,-0.5056,-0.468,53.06,39.34,-81.97,-0.5477423097399011,0.8258438124288423,-0.12871924558555817,-0.03730570210675676,-113.92790529239998,11.690639779001975,-10.100431248526014,25
1767650004.8036659,2,right_wrist,-0.3152,0.6959,-0.222,5.88,14.49,120.19,0.355551951113471,0.6635924206607852,-0.4324087547407523,-0.49623641354148484,105.78213973662922,20.555216152246327,-81.80025814104897,25
1767650004.855333,1,left_wrist,-0.1732,-0.71,-0.3499,-29.96,42.84,-97.37,-0.5324824803847507,0.8399757119824258,-0.10440949124529977,-0.0013672969019256271,-115.8321538453116,6.5165060495046285,-10.083191032230072,25
1767650004.855333,2,right_wrist,-0.2069,0.7096,-0.2264,14.42,11.69,141.05,0.3850028450009557,0.6400178402496312,-0.4762807779080149,-0.46401141591420353,106.27587971682522,13.133001165079262,-83.17671898676481,25
1767650004.90886,1,left_wrist,0.0381,-0.6568,-0.3972,104.3,55.16,-102.06,-0.5646758829334382,0.8200852544536983,-0.07781621426775702,0.050457501503635656,-110.92803482497071,0.2935260198026391,-10.638893899246149,25
1767650004.90886,2,right_wrist,0.1181,1.1078,-0.2464,2.52,16.45,143.5,0.4190591297370018,0.6105205831526247,-0.5150340017035155,-0.4317337610383381,106.09663222918434,5.480403266992704,-84.42573408181718,25
1767650004.9716039,1,left_wrist,0.223,-1.1561,-0.3684,-11.34,58.17,-111.44,-0.5413975120188063,0.8269332036781435,-0.02681816140901214,0.1495024978155513,-112.22160475393672,-12.604423569125442,-12.200142097354673,25
1767650004.9716039,2,right_wrist,0.0322,0.8906,-0.2582,-0.77,6.79,145.11,0.4498438612083256,0.575849541810695,-0.5533916866490366,-0.39974422682176647,106.01470773919593,-2.148788675288423,-86.10247552215345,25
1767650007.1766348,1,left_wrist,-0.2962,-0.7422,-0.4172,17.29,-10.29,39.48,-0.5602592027848178,0.818629511355225,-0.07978590423430762,-0.09792629023270379,-111.38249239224197,14.461670256175077,-1.2368789217761846,26
1767650007.1766348,2,right_wrist,-0.4753,0.8633,-0.1947,-7.7,-0.91,-46.97,0.3137790705528273,0.6710589679790944,-0.3783204092006534,-0.5550641623813295,102.52744472341001,30.50034260916405,-83.49892643055648,26
1767650007.257452,1,left_wrist,-0.3123,-0.8438,-0.3875,0.14,-10.15,35.56,-0.5565452575575075,0.8178972270867849,-0.09232767781591888,-0.11303584441722735,-111.7543155266244,16.718661384406147,-1.5083519114064123,26
1767650007.257452,2,right_wrist,-0.53,0.8086,-0.2162,2.73,-2.1,-37.52,0.28716329435977567,0.688989472664611,-0.36097435353217955,-0.5590422748073772,104.72174474159279,34.265693705076146,-82.04754095391907,26
1767650007.327071,1,left_wrist,-0.3762,-0.7993,-0.3587,-12.67,-8.96,31.71,-0.5528545938796682,0.8130800339337093,-0.11629833032209391,-0.14045410214300644,-111.95543340601391,20.91563934258353,-2.0747835175446534,26
1767650007.327071,2,right_wrist,-0.5397,0.7037,-0.205,-5.74,1.05,-36.89,0.2763456977160621,0.6964404797003132,-0.3463638327917645,-0.5644783511547802,105.14322108384529,36.499718495076046,-81.21345741467742,26
1767650007.407941,1,left_wrist,-0.4543,-0.6778,-0.3616,19.46,-5.39,24.64,-0.5561604084230473,0.8072837071543464,-0.12764317696300462,-0.15061817832066504,-111.3515673161539,22.6538825708462,-2.394276810113278,26
1767650007.407941,2,right_wrist,-0.5534,0.7271,-0.2211,-7.21,-1.82,-12.53,0.25742369165128465,0.702413521002617,-0.3501203325663739,-0.5637056334763226,107.04805859172956,37.708932127607625,-81.32661477833402,26
1767650007.4613938,1,left_wrist,-0.4294,-0.6676,-0.3616,-4.48,-0.91,11.06,-0.5510698940918063,0.808737189795181,-0.13344981901622335,-0.15638822037601177,-112.02713367076932,23.580322440957886,-2.719834265120978,26
1767650007.4613938,2,right_wrist,-0.5861,0.65,-0.2259,20.02,-3.43,-3.22,0.24622028056549927,0.7064035541972881,-0.35236575250511104,-0.5623237221718399,108.31606249324821,38.38450109257541,-81.24873113088752,26
1767650007.517976,1,left_wrist,-0.4392,-0.5031,-0.3518,-4.69,5.18,-18.83,-0.5440447891700678,0.813740257877829,-0.13286860493937466,-0.1555248980301395,-113.07806622425821,23.433641454684757,-2.937262927990509,26
1767650007.517976,2,right_wrist,-0.5505,0.6095,-0.2172,-13.02,-1.33,14.91,0.2498736679394144,0.7043501623563856,-0.3516457205818484,-0.5637368943536597,107.74590931708373,38.199558082731215,-81.43112260153794,26
1767650007.5702,1,left_wrist,-0.4006,-0.571,-0.3201,3.08,12.39,-40.25,-0.5445623999109012,0.8167654045752598,-0.12438414980091826,-0.14448062074408044,-113.15992397477957,21.807131991963487,-2.8292777140690997,26
1767650007.5702,2,right_wrist,-0.5222,0.5954,-0.2303,11.62,-1.4,41.79,0.2536582662157416,0.7011780257357129,-0.3670564170915744,-0.5561262868069521,108.30677979386991,36.418110560693044,-82.00051591547259,26
1767650007.655466,1,left_wrist,-0.3616,-0.57,-0.3255,23.45,18.76,-57.54,-0.5526222095451749,0.8162237079360702,-0.11228143361564083,-0.1256201886072387,-112.25716655151238,19.218210249614277,-2.698252426730177,26
