timestamp,node_id,node_name,ax,ay,az,gx,gy,gz,qw,qx,qy,qz,roll,pitch,yaw,rep_number
1767651003.924957,1,left_wrist,0.3645,-0.1952,-0.8477,-6.58,-57.33,9.24,0.2168900719679669,-0.7491429168859448,-0.6113249514393491,-0.13425867014471068,-169.52600107700584,-27.796881200252017,75.83257796671505,1
1767651003.924957,2,right_wrist,0.8974,-0.1645,-0.1088,5.11,0.98,-46.76,0.1269115454847802,0.24240779371103383,0.8265766951430312,0.4918362412604808,118.95875144522499,-1.6414979342213318,148.2783953824876,1
1767651003.977485,1,left_wrist,0.3382,-0.1718,-0.8018,6.58,-45.57,7.7,0.1901147809567106,-0.7590669954553642,-0.6160240229276611,-0.09048795305546824,-169.00070787870274,-21.814536014350185,75.99653887284614,1
1767651003.977485,2,right_wrist,0.8974,-0.1645,-0.1088,5.11,0.98,-46.76,0.13360879242336263,0.22695415881688505,0.832400433728557,0.48759616314261656,119.26158484109666,0.06348828767159773,149.46077888733973,1
1767651004.0294242,1,left_wrist,0.205,-0.1679,-0.8374,-9.24,-44.24,2.24,0.17250247472646785,-0.7629655042937559,-0.6185635582192601,-0.07420013419224467,-169.5498323265846,-19.06446491340629,76.30630444973376,1
1767651004.0294242,2,right_wrist,0.8974,-0.1645,-0.1088,5.11,0.98,-46.76,0.14028740970273357,0.21137354604161504,0.8379545698274046,0.4831902375028492,119.59910237874966,1.7673786086274024,150.65632950429688,1
1767651004.080085,1,left_wrist,0.1225,-0.1113,-0.7862,3.22,-34.37,5.95,0.16074737135451414,-0.766139308770708,-0.6195044492966406,-0.05835305870836084,-169.5287630914393,-16.772995749843325,76.3704344852463,1
1767651004.080085,2,right_wrist,0.8974,-0.1645,-0.1088,5.11,0.98,-46.76,0.14694466204947068,0.1956694712852759,0.8432348642841,0.47861852028299406,119.97213493852898,3.4694116206378256,151.8672720248937,1
1767651004.16401,1,left_wrist,0.1225,-0.1113,-0.7862,3.22,-34.37,5.95,0.14874100994439782,-0.769015946357356,-0.6202128812295176,-0.04273836877795774,-169.54110908169045,-14.49142787237617,76.43910124626338,1
1767651004.16401,2,right_wrist,0.8974,-0.1645,-0.1088,5.11,0.98,-46.76,0.16018390619328762,0.1639057629015151,0.8529569483443638,0.4689781032792499,120.82883294525938,6.864604602746629,154.34455001244106,1
1767651004.221835,1,left_wrist,0.1527,-0.0005,-0.6939,-19.18,-39.13,2.94,0.12735461034662382,-0.7716975650459619,-0.6220171672840469,-0.03685532430359381,-171.1221135477317,-12.434057361402601,76.77119928801562,1
1767651004.221835,2,right_wrist,0.8974,-0.1645,-0.1088,5.11,0.98,-46.76,0.16676020330295377,0.14785392831260571,0.857390252051899,0.4639096961298282,121.31493740385693,8.555966078126884,155.6156892403825,1
1767651004.277885,1,left_wrist,0.1527,-0.0005,-0.6939,-19.18,-39.13,2.94,0.08641250363106026,-0.7758506349503971,-0.6243573224007857,-0.02768764034364466,-174.2225554461894,-8.677203104410587,77.21129231478729,1
1767651004.277885,2,right_wrist,0.8974,-0.1645,-0.1088,5.11,0.98,-46.76,0.17330374666426512,0.1316942322197131,0.8615327529983102,0.45867609061661496,121.84144523074649,10.241858575984576,156.91185199102065,1
1767651004.3639581,1,left_wrist,0.0869,0.0371,-0.8769,14.42,-32.48,4.2,0.07776556241264544,-0.7768595938894064,-0.6246922467385162,-0.014187513856084038,-174.03962882683228,-6.846078853760077,77.25042786355608,1
1767651004.3639581,2,right_wrist,0.8974,-0.1645,-0.1088,5.11,0.98,-46.76,0.18628069791661375,0.09906857500425259,0.8689285089768832,0.44771437917218676,123.02240540398485,13.592823346016418,159.58997401037908,1
1767651004.4160042,1,left_wrist,0.0078,-0.1157,-0.8979,6.16,-14.98,1.12,0.07357567736732061,-0.7773745682375979,-0.6247134432746154,-0.0029179015271449432,-173.61176316629405,-5.535589851350522,77.26292534561765,1
1767651004.4160042,2,right_wrist,0.8974,-0.1645,-0.1088,5.11,0.98,-46.76,0.1927080610500978,0.08261167014325438,0.8721734038903846,0.44198695536035243,123.680678801356,15.255458654799835,160.97761076071765,1
1767651004.471967,1,left_wrist,-0.0346,-0.1225,-0.9443,6.93,-8.12,-0.42,0.07114740338702373,-0.7773645091198537,-0.6249853254883317,0.00598413539094557,-173.19612534035363,-4.567209769736138,77.3255134339979,1
1767651004.471967,2,right_wrist,0.8974,-0.1645,-0.1088,5.11,0.98,-46.76,0.19909058228193965,0.066065018058051,0.8751107872187484,0.4360957045523494,124.38701077276653,16.907730762400146,162.40164857231895,1
1767651004.525593,1,left_wrist,-0.0337,-0.0981,-1.0638,26.04,35.35,4.69,0.09320509014054779,-0.7779262836404541,-0.6213204691063525,0.01021680295916047,-170.88001336060495,-5.7348298687958765,76.7701286759182,1
1767651004.525593,2,right_wrist,0.8974,-0.1645,-0.1088,5.11,0.98,-46.76,0.20542513483886454,0.04943354716090303,0.8777365634487336,0.4300411184720973,125.14379464590363,18.548143668688162,163.86529026101493,1
1767651004.6210392,1,left_wrist,0.021,-0.1371,-1.1356,21.98,52.22,-2.31,0.11035264369249781,-0.7769525958353671,-0.6198117822788354,0.0005589303130492321,-169.9921372341969,-7.812239520223239,76.47695987939304,1
1767651004.6210392,2,right_wrist,0.8974,-0.1645,-0.1088,5.11,0.98,-46.76,0.2179376271111842,0.015936669510656715,0.8820371407504013,0.41744424249342715,126.81931100961154,21.786732322550755,166.92501811661884,1
1767651004.67496,1,left_wrist,0.1967,-0.1552,-0.9975,13.16,85.89,-11.55,0.15469646756040695,-0.7693265706817952,-0.6180464427509721,-0.04716169176556585,-169.26146775778705,-15.294751276060207,76.10800417967468,1
1767651004.67496,2,right_wrist,0.8974,-0.1645,-0.1088,5.11,0.98,-46.76,0.2241091168477908,-0.0009180722589322876,0.8837039972125574,0.4109032808333111,127.7438584262883,23.381199293190335,168.52835037336726,1
1767651004.729735,1,left_wrist,0.1864,-0.182,-0.8569,19.32,102.76,-13.51,0.18701380037586637,-0.7623678747844295,-0.6152656421079974,-0.07258961087567388,-167.97768814268397,-19.92600623596013,75.69082866861162,1
1767651004.729735,2,right_wrist,0.8974,-0.1645,-0.1088,5.11,0.98,-46.76,0.2302197404070668,-0.017836302393087672,0.8850433697267024,0.40420164664019953,128.73048718297528,24.9563597437507,170.18578446501868,1
1767651004.781209,1,left_wrist,0.2391,-0.2157,-0.7681,35.56,122.64,-16.8,0.2318149094318387,-0.7507297799569842,-0.6104228665010915,-0.10025252766607605,-165.49728984991629,-25.6921330650631,74.9054940045314,1
1767651004.781209,2,right_wrist,0.8974,-0.1645,-0.1088,5.11,0.98,-46.76,0.23626618195079155,-0.034812282895669636,0.8860514463003972,0.3973401952168466,129.78261551788646,26.509911718183833,171.90137893579504,1
1767651004.8699598,1,left_wrist,0.3436,-0.2098,-0.7769,32.48,120.68,-28.7,0.27108164977499233,-0.7347663735483159,-0.6081454730850437,-0.1295847175560976,-163.62736135326602,-31.341853686933174,74.60502114298254,1
1767651004.8699598,2,right_wrist,0.8974,-0.1645,-0.1088,5.11,0.98,-46.76,0.24815308859512544,-0.0689137329422035,0.8870588480043855,0.38314167380983644,132.0979656466164,29.54192096946742,175.52408080450434,1
1767651004.927865,1,left_wrist,0.6403,-0.1625,-0.5319,41.02,114.24,-35.07,0.35413765375935213,-0.688855507514666,-0.6005858821513368,-0.19839659804803586,-159.58103814634126,-44.32386513209576,73.7766425905393,1
1767651004.927865,2,right_wrist,0.8974,-0.1645,-0.1088,5.11,0.98,-46.76,0.2539867599665994,-0.08602691758336138,0.887050953052218,0.375806734774573,133.36887743256807,31.014660507512673,177.4400416312795,1
1767651004.981614,1,left_wrist,0.6817,-0.2128,-0.3826,16.94,121.1,-44.59,0.38914851267597406,-0.6615239411891461,-0.5948401919809242,-0.23898672833392565,-158.42049669230968,-51.18311181396774,73.49326499533898,1
1767651004.981614,2,right_wrist,0.8974,-0.1645,-0.1088,5.11,0.98,-46.76,0.25974266546017566,-0.10317328399121184,0.8866973352144439,0.36831624581834027,134.72059839353992,32.45432148535114,179.431803613403,1
1767651006.8691468,1,left_wrist,0.2718,-0.3084,-0.8208,-17.92,-84.28,9.03,0.32006700425855017,-0.5874711819858266,-0.7397502340288606,-0.0721409341177326,-161.0566836449766,-33.938362640272175,97.26182840127798,2
1767651006.8691468,2,right_wrist,0.8974,-0.1645,-0.1088,5.11,0.98,-46.76,0.3862530803040189,-0.7019190443727392,0.5983620615386803,-0.009003133548833678,-141.74856349350208,26.71798715067711,-71.47717379237685,2
1767651006.9275599,1,left_wrist,0.0854,-0.0625,-0.956,-8.47,-67.13,-5.67,0.26391560865270697,-0.593159373071155,-0.7597102840838003,-0.03675314822729344,-163.31019775190163,-26.397733909198326,100.09609496102698,2
1767651006.9275599,2,right_wrist,0.8974,-0.1645,-0.1088,5.11,0.98,-46.76,0.3863090039830548,-0.71396147313159,0.5836139071668011,-0.020473780473832286,-140.60186191980992,24.94042251087215,-69.47288794507344,2
1767651006.978166,1,left_wrist,0.2118,-0.2918,-0.9428,15.75,-51.03,-0.21,0.24757719969876593,-0.5931238406761788,-0.7659519773919006,-0.015073424968909392,-162.85168190024055,-23.399838687303053,100.9175383676325,2
1767651006.978166,2,right_wrist,0.8974,-0.1645,-0.1088,5.11,0.98,-46.76,0.3861619999410137,-0.7256863223996304,0.5685390865432185,-0.03196213941929903,-139.53810589913914,23.123067383868054,-67.53078115508558,2
1767651007.029811,1,left_wrist,0.0395,-0.2835,-0.855,-1.54,-35.07,4.34,0.2319957879790839,-0.5960648551450695,-0.7686856851401972,-0.002638234522796774,-163.01780544055256,-21.08845425848198,101.23403017805208,2
1767651007.029811,2,right_wrist,0.8974,-0.1645,-0.1088,5.11,0.98,-46.76,0.3858105298947775,-0.7370841455880713,0.553143922235365,-0.04346261196810682,-138.55381548773877,21.268951502559197,-65.64599738086663,2
1767651007.081362,1,left_wrist,0.0547,-0.0605,-0.9209,15.19,-33.18,11.55,0.2199552944598537,-0.5990706004873819,-0.7697905244023081,0.012515295089853355,-162.60890260413603,-18.8834370531191,101.304202242465,2
1767651007.081362,2,right_wrist,0.8974,-0.1645,-0.1088,5.11,0.98,-46.76,0.38525321740281526,-0.7481455882662618,0.537435101056453,-0.0549695314783425,-137.64569724949908,19.38090583106098,-63.81377104948235,2
1767651007.165622,1,left_wrist,0.1493,-0.2108,-0.9311,-2.52,-32.9,1.26,0.2036437640849723,-0.6003485183464937,-0.7730721878090268,0.02168562437742357,-163.11685384458858,-16.787611325387378,101.82695810920116,2
1767651007.165622,2,right_wrist,0.8974,-0.1645,-0.1088,5.11,0.98,-46.76,0.3835164181945386,-0.7692224475035764,0.5051050819090429,-0.0779797375059603,-136.04590514317442,15.513454561220517,-60.28849358324606,2
1767651007.2196631,1,left_wrist,-0.0122,-0.1274,-1.0243,2.52,-28.63,1.75,0.18979851569735323,-0.6011887899387498,-0.7756179184462936,0.031070997346434294,-163.38018743719297,-14.895873241497148,102.25301945757796,2
1767651007.2196631,2,right_wrist,0.8974,-0.1645,-0.1088,5.11,0.98,-46.76,0.382335063604627,-0.7792197255360267,0.4884991164664079,-0.08947140149535923,-135.3488025189157,13.53886673742389,-58.58650130484222,2
1767651007.273453,1,left_wrist,0.0068,-0.161,-0.8569,1.47,-19.53,4.2,0.16535528219985918,-0.6038225042358429,-0.7783895128518499,0.0465379448323637,-163.8697211362362,-11.608328997498557,102.74572629295831,2
1767651007.273453,2,right_wrist,0.8974,-0.1645,-0.1088,5.11,0.98,-46.76,0.3809441492232916,-0.7888443715111229,0.47160996726123117,-0.10094628020697194,-134.71703865439014,11.540017735002941,-56.91918445463518,2
1767651007.332861,1,left_wrist,-0.1425,-0.1293,-0.9867,7.0,-1.89,5.81,0.16170358427386036,-0.6060402448874586,-0.7771430231294434,0.051145811274875566,-163.70588915345726,-10.914315654950935,102.53644987011785,2
1767651007.332861,2,right_wrist,0.8974,-0.1645,-0.1088,5.11,0.98,-46.76,0.3793432389280235,-0.7980876778747525,0.4544462042397825,-0.11239845619996582,-134.14855366322223,9.518993190493388,-55.28237112843367,2
1767651007.38322,1,left_wrist,-0.1039,-0.123,-0.9862,7.42,3.36,1.68,0.15992645017063947,-0.6069332454381795,-0.7766343341047294,0.05380220448457685,-163.59207979247455,-10.550381352550868,102.46004161817514,2
1767651007.38322,2,right_wrist,0.8974,-0.1645,-0.1088,5.11,0.98,-46.76,0.3775321140650294,-0.806941105844573,0.43701678601939814,-0.12382198223741529,-133.64155907737216,7.477777666859659,-53.67199216645197,2
1767651007.462829,1,left_wrist,-0.0722,-0.1318,-0.9731,24.08,14.84,-4.69,0.16656484673632738,-0.6047572397325691,-0.77660067744199,0.058448444114364964,-162.68941522796777,-10.836935670925769,102.5280840903031,2
1767651007.462829,2,right_wrist,0.8974,-0.1645,-0.1088,5.11,0.98,-46.76,0.37327950098518464,-0.8234450993469236,0.40139878644271443,-0.14655919196045863,-132.80626001763017,3.342295371001302,-50.51468468303219,2
1767651007.515948,1,left_wrist,-0.1088,-0.12,-1.098,19.25,42.56,-4.97,0.18127276805137071,-0.6034684949118396,-0.7746413383625499,0.053821520897410366,-161.97288356714944,-12.467369853540433,102.17540756455203,2
1767651007.515948,2,right_wrist,0.8974,-0.1645,-0.1088,5.11,0.98,-46.76,0.3708387669152223,-0.8310795586438224,0.3832301031842501,-0.15786090133587807,-132.47575816920124,1.2516239411374042,-48.959988770319384,2
1767651007.570118,1,left_wrist,-0.0712,-0.1942,-1.036,38.92,64.47,-4.34,0.20859210634327288,-0.6010879505087824,-0.7697983262379443,0.05092294026946583,-160.06937341667046,-15.065871672060798,101.36984757019322,2
1767651007.570118,2,right_wrist,0.8974,-0.1645,-0.1088,5.11,0.98,-46.76,0.36818935297518157,-0.8382919571473155,0.36483557008020234,-0.16911002850834775,-132.20235743609993,-0.8520201333102746,-47.41615255669204,2
1767651007.629737,1,left_wrist,0.2137,-0.0766,-1.0926,14.28,104.51,1.19,0.2675814419998821,-0.5999704544123847,-0.7539236766491151,0.005891987554364403,-158.9360296913085,-23.35343770659181,98.57388774744665,2
1767651007.629737,2,right_wrist,0.8974,-0.1645,-0.1088,5.11,0.98,-46.76,0.3653323114337651,-0.845074817756692,0.3462261542702666,-0.18030059543766838,-131.98566628635965,-2.9669429114711505,-45.8793585882186,2
1767651007.7136378,1,left_wrist,0.3152,-0.204,-0.8843,41.65,115.99,1.68,0.3118855718627815,-0.5956598907899572,-0.7401159733631087,-0.012042862645583463,-156.2829014662604,-28.425124099032445,96.25599644339346,2
1767651007.7136378,2,right_wrist,0.8974,-0.1645,-0.1088,5.11,0.98,-46.76,0.3590010606356869,-0.8573233319892267,0.3084086338310768,-0.202482239882393,-131.7223134703094,-7.223921756263959,-42.811526181442076,2
1767651007.773011,1,left_wrist,0.3289,-0.1591,-0.8398,30.38,121.87,-18.62,0.35417384455924394,-0.5846238441773083,-0.7289468560878286,-0.0375809745634887,-154.29006857505263,-34.075806339459554,94.53915357959777,2
1767651007.773011,2,right_wrist,0.8974,-0.1645,-0.1088,5.11,0.98,-46.76,0.35553051595728824,-0.8627753996013393,0.2892245738617707,-0.2134614905325332,-131.6763609308167,-9.362622195668376,-41.27267299414704,2
1767651007.8270268,1,left_wrist,0.5173,-0.2928,-0.5358,39.97,130.27,-39.34,0.4476095408199181,-0.54241591296349,-0.7054209556106833,-0.08838524603278505,-148.27136649983362,-46.66798471604649,90.90689750373637,2
1767651007.8270268,2,right_wrist,0.8974,-0.1645,-0.1088,5.11,0.98,-46.76,0.3518597129027864,-0.867770795185719,0.2698737356284334,-0.2243585440242205,-131.68855856402195,-11.505862197983351,-39.725176247823626,2
1767651007.887508,1,left_wrist,0.5388,-0.5129,-0.4548,63.56,161.21,-43.12,0.5107906436328914,-0.5103061582366574,-0.6828634122540185,-0.11125692539181029,-140.83306541893282,-54.20850801219521,85.81900884385085,2
1767651007.887508,2,right_wrist,0.8974,-0.1645,-0.1088,5.11,0.98,-46.76,0.347991384473908,-0.8723035239748236,0.2503692423728866,-0.23516760165180867,-131.7600745865197,-13.651896036718552,-38.16486943215231,2
1767651007.967165,1,left_wrist,0.7476,-0.1972,-0.4499,-17.15,128.45,-38.01,0.5400042966389725,-0.4944251072072381,-0.6629087927924558,-0.1564963431298259,-138.4050452972209,-60.53992717984531,81.56754966064497,2
1767651007.967165,2,right_wrist,0.8974,-0.1645,-0.1088,5.11,0.98,-46.76,0.33967513084728623,-0.87995882004727,0.21095408607923927,-0.2564988383431167,-132.08753228119735,-17.9450730691209,-34.98831796701667,2
1767651009.7778718,1,left_wrist,0.367,-0.2211,-0.63,-7.21,-73.78,7.42,0.2602026682495033,-0.4410063765106827,-0.8584636282597561,0.02912295087816827,-162.052075914151,-24.9016692708684,121.62551947284234,3
1767651009.7778718,2,right_wrist,0.8974,-0.1645,-0.1088,5.11,0.98,-46.76,0.1309188668771516,-0.7198638952709207,-0.4394360899881937,-0.5211066545313616,147.4747033819726,-59.91842867944744,81.89269280929676,3
1767651009.8728268,1,left_wrist,0.1386,-0.1435,-0.7701,9.59,-64.26,3.71,0.23314602894637831,-0.44104546304754494,-0.8654599350802606,0.04583589731402824,-162.1893001715124,-21.292278364288943,122.61819705372365,3
1767651009.8728268,2,right_wrist,0.8974,-0.1645,-0.1088,5.11,0.98,-46.76,0.11928640020150108,-0.7005815447952659,-0.4666945708732628,-0.5264526867028672,142.14828562126405,-58.10162815371912,88.90615006426837,3
1767651009.928982,1,left_wrist,0.0942,-0.163,-0.7915,-8.54,-62.72,-3.08,0.17274174921390684,-0.43870392854920554,-0.8795612608814574,0.06380548182275851,-164.19847725861723,-14.352716131322259,124.98009698555691,3
1767651009.928982,2,right_wrist,0.8974,-0.1645,-0.1088,5.11,0.98,-46.76,0.11341831201344427,-0.6907211971355078,-0.48002958108571914,-0.5287836188937597,139.78070545790385,-57.073905637112084,92.11720303540136,3
1767651010.0129359,1,left_wrist,-0.0088,-0.0908,-0.8633,-7.77,-42.35,1.96,0.1500225603055309,-0.43935056208791706,-0.8830389212176262,0.06860450865078627,-165.02146886104146,-11.810103456353795,125.53728112598479,3
1767651010.0129359,2,right_wrist,0.8974,-0.1645,-0.1088,5.11,0.98,-46.76,0.10156394893926782,-0.6705517598894513,-0.5061354454302617,-0.5327964080811094,135.59765169328176,-54.81993097336428,97.99054979198236,3
1767651010.06702,1,left_wrist,-0.0444,-0.0898,-0.9916,-2.24,-34.44,-0.21,0.13140904247958737,-0.43887754434950804,-0.8858223348769261,0.07373571491166625,-165.5503722971476,-9.676683313165281,126.05851052227104,3
1767651010.06702,2,right_wrist,0.8974,-0.1645,-0.1088,5.11,0.98,-46.76,0.09557412090071819,-0.6602383701427739,-0.5189130299368627,-0.5344905512420338,133.76163224313083,-53.607517896903666,100.67477283519887,3
1767651010.118784,1,left_wrist,0.0244,-0.1371,-0.9648,8.33,-29.61,-1.61,0.11676530544538993,-0.437296740712452,-0.8879598490429682,0.0816378006446787,-165.55677142783242,-7.814477928326328,126.57024035787695,3
1767651010.118784,2,right_wrist,0.8974,-0.1645,-0.1088,5.11,0.98,-46.76,0.0895411543252742,-0.6497697915485106,-0.5315101253242515,-0.535983755678193,132.0812018507581,-52.34618039923879,103.20637158890901,3
1767651010.178758,1,left_wrist,-0.122,-0.1313,-0.9555,-1.05,-17.08,-1.4,0.08593030074192592,-0.43743563013992287,-0.8910474969979081,0.08544244256956636,-166.81202901873937,-4.495731246242971,127.18508265764308,3
1767651010.178758,2,right_wrist,0.8974,-0.1645,-0.1088,5.11,0.98,-46.76,0.08346462619665453,-0.6391441407090063,-0.5439281293321616,-0.5372807587215589,130.5452363742476,-51.0411019699396,105.59716986307332,3
1767651010.2304692,1,left_wrist,-0.122,-0.1313,-0.9555,-1.05,-17.08,-1.4,0.07418096821970059,-0.4368399600700135,-0.8921047594034911,0.08841454342842019,-167.12062487900354,-3.1590778592674518,127.4638239887681,3
1767651010.2304692,2,right_wrist,0.8974,-0.1645,-0.1088,5.11,0.98,-46.76,0.07734450578949832,-0.6283597100955504,-0.556167818465661,-0.5383857909120204,129.14294673233812,-49.69686414491979,107.85866167972024,3
1767651010.3149388,1,left_wrist,-0.1913,-0.0498,-1.0082,11.2,3.71,10.57,0.07248378011758035,-0.4412560718597242,-0.8897440725707605,0.09162240987874852,-166.8634748040957,-2.7584901305668006,126.92538722073469,3
1767651010.3149388,2,right_wrist,0.8974,-0.1645,-0.1088,5.11,0.98,-46.76,0.06497494872041137,-0.6063086514472297,-0.5801127033994011,-0.5400345605363237,126.6990008538045,-46.9065882013092,112.03697618392562,3
1767651010.367197,1,left_wrist,-0.1225,-0.0893,-1.0692,22.54,22.96,-3.5,0.08108665857293497,-0.44060293312854637,-0.8890208475281486,0.0945301104428117,-166.11478290054566,-3.4900367819485436,126.84843070108654,3
1767651010.367197,2,right_wrist,0.8974,-0.1645,-0.1088,5.11,0.98,-46.76,0.05872688020752298,-0.5950395999065633,-0.5918169901800432,-0.5405845708289898,125.63881764778456,-45.4672408712059,113.9737778612952,3
1767651010.420579,1,left_wrist,-0.1225,-0.0893,-1.0692,22.54,22.96,-3.5,0.0896895202913188,-0.43991671116933817,-0.8882235398901861,0.09740646985089481,-165.36650890880045,-4.222349633441658,126.76129441796898,3
1767651010.420579,2,right_wrist,0.8974,-0.1645,-0.1088,5.11,0.98,-46.76,0.0524378732163264,-0.5836069230200941,-0.6033412526395562,-0.5409552307898481,124.67533202064674,-44.00222461910149,115.82115962404801,3
1767651010.476094,1,left_wrist,0.0551,-0.082,-1.057,14.35,90.93,-7.21,0.15167345383300787,-0.4388639369663627,-0.8824204510291362,0.07568193865306692,-164.20089320052818,-11.61014516419817,125.4975326376078,3
1767651010.476094,2,right_wrist,0.8974,-0.1645,-0.1088,5.11,0.98,-46.76,0.046109076693754504,-0.572009912471741,-0.614684132894001,-0.5411488056430235,123.80106327803225,-42.51397351488625,117.58736194103744,3
1767651010.52779,1,left_wrist,0.1674,-0.0956,-0.9809,26.32,103.88,-13.44,0.19390882786065108,-0.43495279005388876,-0.8771986865294382,0.0611383779067954,-163.25798889969292,-16.678945082560876,124.78021555931048,3
1767651010.52779,2,right_wrist,0.8974,-0.1645,-0.1088,5.11,0.98,-46.76,0.03974177478026896,-0.5602480537799558,-0.6258439848556364,-0.5411672719160907,123.00921440182972,-41.00463828519527,119.2799594364907,3
1767651010.5810199,1,left_wrist,0.1674,-0.0956,-0.9809,26.32,103.88,-13.44,0.19390882786065108,-0.43495279005388876,-0.8771986865294382,0.0611383779067954,-163.25798889969292,-16.678945082560876,124.78021555931048,3
1767651010.5810199,2,right_wrist,0.8974,-0.1645,-0.1088,5.11,0.98,-46.76,0.033337366578831226,-0.5483210204712959,-0.6368189061057117,-0.5410123467401,122.29363437912899,-39.4761237827148,120.9059011689119,3
1767651010.641631,1,left_wrist,0.347,-0.3333,-0.71,24.92,119.28,-24.15,0.288813217484751,-0.4174735290577365,-0.8606983487557243,0.03874442400339543,-159.65457376135353,-27.69809296146291,123.18361400262644,3
1767651010.641631,2,right_wrist,0.8974,-0.1645,-0.1088,5.11,0.98,-46.76,0.026897349829800615,-0.5362286680231044,-0.64760676527582,-0.5406855146305379,121.64877503605017,-37.930121945342094,122.47155653705111,3
1767651010.7177541,1,left_wrist,0.3128,-0.2259,-0.7657,43.82,123.34,-23.94,0.33855301247571074,-0.4052416790033549,-0.8486909422838967,0.029744307479489304,-157.09727284482923,-33.40451214471743,121.99539408941529,3
1767651010.7177541,2,right_wrist,0.8974,-0.1645,-0.1088,5.11,0.98,-46.76,0.013916898873335047,-0.5115483019630099,-0.6686117653440022,-0.5395210486423004,120.55176874340528,-34.79152900902312,125.44487603984793,3
1767651010.7688608,1,left_wrist,0.4851,-0.3509,-0.612,40.32,130.13,-29.96,0.3965004620576789,-0.3894175693896063,-0.8311077394164302,0.020031618028742322,-153.45374514174674,-40.05089914316578,119.96077935018725,3
1767651010.7688608,2,right_wrist,0.8974,-0.1645,-0.1088,5.11,0.98,-46.76,0.007379848180725737,-0.4989608571997297,-0.6788236952703652,-0.5386854291354339,120.09113518347459,-33.20149923627922,126.8628117914236,3
1767651010.82319,1,left_wrist,0.5788,-0.2069,-0.528,5.81,136.92,-29.54,0.44820588195657834,-0.3762203059756503,-0.8108416509071766,-0.010275500242719983,-151.804942496461,-47.27171307906502,117.6746139318455,3
1767651010.82319,2,right_wrist,0.8974,-0.1645,-0.1088,5.11,0.98,-46.76,0.0008139411780799337,-0.4862092211588582,-0.6888381741555898,-0.5376819697421968,119.68416504153188,-31.599146010917707,128.2410950082488,3
1767651010.88,1,left_wrist,0.8145,0.0259,-0.2938,-17.92,131.04,-70.42,0.5358276648100592,-0.3366927545987659,-0.7681227899824784,-0.09754015652246852,-152.58510634604824,-62.728468240808205,115.74821236440813,3
1767651010.88,2,right_wrist,0.8974,-0.1645,-0.1088,5.11,0.98,-46.76,-0.005778981462213414,-0.47329407781364913,-0.6986522221468658,-0.5365113156020413,119.32766912435801,-29.98546319826184,129.58389836367317,3
1767651012.5704691,1,left_wrist,0.3953,-0.1347,-0.7203,-0.56,-83.93,14.0,0.2553074049998094,-0.3054990906920775,-0.9156330370581645,0.055718722044024165,-163.36165251289592,-25.68936044717047,139.2783985335389,4
1767651012.5704691,2,right_wrist,0.8974,-0.1645,-0.1088,5.11,0.98,-46.76,-0.22989660586668229,0.04856812086101476,-0.8866408030670576,-0.39831742942483994,130.14907567162876,26.510542879604632,173.77583284641335,4
1767651012.6221418,1,left_wrist,0.1952,-0.0605,-0.9335,12.67,-81.55,18.83,0.21940354278646887,-0.3095824539298919,-0.9224122708999668,0.07194714813429978,-163.26749273273285,-21.113332376952894,139.75428758305182,4
1767651012.6221418,2,right_wrist,0.8974,-0.1645,-0.1088,5.11,0.98,-46.76,-0.23592818986815658,0.06563594391408581,-0.8870428940616392,-0.3913881911693221,131.2760057359693,28.030084817492707,175.56645506554122,4
1767651012.6802728,1,left_wrist,0.2601,-0.2269,-0.9252,4.48,-86.38,14.7,0.14196729161672253,-0.3146806876234452,-0.9334392102606626,0.09753252634787442,-163.9044427492508,-11.750627186861967,141.07288947958253,4
1767651012.6802728,2,right_wrist,0.8974,-0.1645,-0.1088,5.11,0.98,-46.76,-0.24189109137762818,0.08274406280837827,-0.8871047999179149,-0.38430091587803855,132.47579580300595,29.522330427707335,177.42376794366015,4
1767651012.762879,1,left_wrist,0.0351,-0.1166,-0.9018,0.7,-66.22,1.61,0.11046331505014817,-0.3127435878549336,-0.9375230091531462,0.10507098358816731,-164.40669519565301,-8.129054196883676,141.98925834005723,4
1767651012.762879,2,right_wrist,0.8974,-0.1645,-0.1088,5.11,0.98,-46.76,-0.2535971727845804,0.11705583969268249,-0.8861943173084555,-0.36965664652445956,135.109404392466,32.41268318710811,-178.64380137099553,4
1767651012.819926,1,left_wrist,-0.0166,-0.3884,-0.7422,-3.29,-67.27,-5.25,0.0812516660491353,-0.3080105927593268,-0.9406587071805231,0.11699930819348742,-164.2731516213057,-4.633753457025783,143.0985090010821,4
1767651012.819926,2,right_wrist,0.8974,-0.1645,-0.1088,5.11,0.98,-46.76,-0.25933344468205033,0.1342464270356968,-0.8852153122357831,-0.362102074394495,136.55109785666215,33.80400441499213,-176.5597110272821,4
1767651012.879812,1,left_wrist,-0.0376,-0.2962,-0.9096,27.58,-24.57,10.01,0.04545948279893108,-0.31236036944736806,-0.938346344040096,0.14096302227514546,-162.96565687559436,0.15750884363550724,143.20005019311793,4
1767651012.879812,2,right_wrist,0.8974,-0.1645,-0.1088,5.11,0.98,-46.76,-0.2649872220807764,0.15145117115147907,-0.8838829023045784,-0.3543943141535905,138.08126791773134,35.154429800751934,-174.39111442171495,4
1767651012.935097,1,left_wrist,-0.1786,-0.0996,-1.0843,-2.1,-28.56,12.25,0.028588867789469823,-0.31623640356154087,-0.9376321705201022,0.14150309716306678,-163.52361894862352,2.0565107139612584,143.02223162623142,4
1767651012.935097,2,right_wrist,0.8974,-0.1645,-0.1088,5.11,0.98,-46.76,-0.27055498923768245,0.16866314564565218,-0.8821940625253597,-0.34653481375543316,139.70366920652188,36.45984824806711,-172.13374436890243,4
1767651013.014668,1,left_wrist,-0.1586,-0.2176,-0.9184,-20.65,-9.31,-0.98,0.017061124581634106,-0.31620734935864514,-0.939031272729611,0.1339481208356303,-164.7686416906046,3.0191027001617647,143.18311516924533,4
1767651013.014668,2,right_wrist,0.8974,-0.1645,-0.1088,5.11,0.98,-46.76,-0.28141832878591205,0.20308031349969743,-0.8777356287817961,-0.33036688160170324,143.23871611152367,38.91772667260599,-167.3371384411148,4
1767651013.0729952,1,left_wrist,-0.2782,-0.1166,-0.9609,7.14,2.1,-0.28,0.009082168214094709,-0.31434306545912466,-0.9395886803681655,0.13520008558540536,-164.90761170144887,3.895183069418456,143.52046876826466,4
1767651013.0729952,2,right_wrist,0.8974,-0.1645,-0.1088,5.11,0.98,-46.76,-0.28670677595800426,0.2202708931312775,-0.8749606410189545,-0.32206184953610395,145.15694485979725,40.06048917374543,-164.79134496531688,4
1767651013.12705,1,left_wrist,-0.3377,-0.2259,-1.0585,30.45,21.35,2.73,0.017070995684068935,-0.31719310293489456,-0.9370177489661016,0.14524067845954083,-163.52905337301266,3.4482522681968515,143.0959258472977,4
1767651013.12705,2,right_wrist,0.8974,-0.1645,-0.1088,5.11,0.98,-46.76,-0.2918949676137525,0.2374394800395584,-0.8718184498153936,-0.313611880772707,147.1782059622031,41.13888530148771,-162.14402495304765,4
1767651013.2207391,1,left_wrist,-0.2967,-0.1801,-1.0824,31.92,58.52,-10.22,0.041275306954199086,-0.3171140995049348,-0.9356907527651691,0.14905640583605267,-162.23190887301882,0.9909185843390786,142.7109212699896,4
1767651013.2207391,2,right_wrist,0.8974,-0.1645,-0.1088,5.11,0.98,-46.76,-0.3019562009502588,0.271679836414247,-0.864423310606411,-0.29628509796118185,151.53155426519902,43.08050787539043,-156.54119616387229,4
1767651013.2777731,1,left_wrist,0.0654,-0.0996,-1.0258,20.44,110.88,-6.58,0.12410705565202024,-0.32392539694246736,-0.9285527960662918,0.13213432888739776,-160.77588581942294,-8.330132115555651,140.12421745264515,4
1767651013.2777731,2,right_wrist,0.8974,-0.1645,-0.1088,5.11,0.98,-46.76,-0.30682203518751294,0.28873583365666694,-0.8601661983361172,-0.2874125403074364,153.86121817259277,43.93234483016652,-153.5871790321031,4
1767651013.368875,1,left_wrist,0.143,-0.1952,-0.9389,18.55,111.02,-11.76,0.17057501406080844,-0.32409327473187044,-0.9229268435964688,0.11863285894214362,-160.16640998224537,-13.766186540463432,138.88369152697956,4
1767651013.368875,2,right_wrist,0.8974,-0.1645,-0.1088,5.11,0.98,-46.76,-0.31620610527097565,0.32267901107054964,-0.8505237793402041,-0.26926057190154784,158.80825132419636,45.36941210941002,-147.38989517358334,4
1767651013.422982,1,left_wrist,0.3675,-0.2816,-0.7305,15.05,138.53,-19.39,0.2835038952464041,-0.31876082095388425,-0.900931494410372,0.07962112021577775,-158.5834066136249,-27.391946494448014,135.75406430344412,4
1767651013.422982,2,right_wrist,0.8974,-0.1645,-0.1088,5.11,0.98,-46.76,-0.320717135309574,0.3395496139580998,-0.845135379467942,-0.2599860941498668,161.41265166656856,45.9435585911035,-144.15866865417914,4
1767651013.4743922,1,left_wrist,0.5158,-0.2094,-0.6939,24.36,149.45,-27.58,0.348729207901084,-0.3079325694597625,-0.8830601436245943,0.06140240194244813,-156.66501618645742,-35.3157626350775,134.02973957877705,4
1767651013.4743922,2,right_wrist,0.8974,-0.1645,-0.1088,5.11,0.98,-46.76,-0.3251027036085333,0.35634163079488734,-0.839367113017323,-0.2505827684694758,164.09227183790006,46.4145679885387,-140.8504653590853,4
1767651013.525642,1,left_wrist,0.5158,-0.2094,-0.6939,24.36,149.45,-27.58,0.348729207901084,-0.3079325694597625,-0.8830601436245943,0.06140240194244813,-156.66501618645742,-35.3157626350775,134.02973957877705,4
1767651013.525642,2,right_wrist,0.8974,-0.1645,-0.1088,5.11,0.98,-46.76,-0.3293592307885853,0.3730464632078722,-0.8332179277203533,-0.2410533515797886,166.83556066134625,46.77787496658404,-137.4763641571525,4
1767651013.614957,1,left_wrist,0.6163,-0.0776,-0.527,15.75,144.97,-34.16,0.46999883152376015,-0.2786310282433717,-0.8373562192035285,0.017332357817498152,-152.4458336491002,-51.02807390150442,129.84049390133274,4
1767651013.614957,2,right_wrist,0.8974,-0.1645,-0.1088,5.11,0.98,-46.76,-0.3374709279299404,0.40615960585267724,-0.819773650950919,-0.22162786057331238,172.45797949925432,47.166469541733015,-130.5837137134257,4
1767651015.3142579,1,left_wrist,0.2962,-0.1806,-1.1029,18.13,-112.91,22.19,0.22402972351768968,-0.1718127083525025,-0.9537790811408572,0.10293949974265187,-162.71513630120316,-23.07757634815493,156.02193526909184,5
1767651015.3142579,2,right_wrist,0.8974,-0.1645,-0.1088,5.11,0.98,-46.76,-0.3703949205848606,0.8379256882911288,-0.37041439318475233,0.15323616096843584,-132.7466395781597,1.0083539623501532,-47.25561171468543,5
1767651015.370215,1,left_wrist,0.1532,-0.1362,-1.0092,5.95,-80.01,9.87,0.18615933695310946,-0.17191991004719154,-0.9610127044212646,0.11064731237346469,-163.02187934350397,-18.648291821693313,156.90714086302287,5
1767651015.370215,2,right_wrist,0.8974,-0.1645,-0.1088,5.11,0.98,-46.76,-0.3678977390143836,0.8448520030290565,-0.35188984517353283,0.1644684877708875,-132.479350173478,-1.0877744859488878,-45.70337201933333,5
1767651015.420512,1,left_wrist,0.2528,-0.2889,-0.7569,-7.63,-71.75,8.05,0.1545000633506536,-0.1732219258784538,-0.9654870189481655,0.11814698922185132,-163.0530373768651,-14.916098838413346,157.42257676127002,5
1767651015.420512,2,right_wrist,0.8974,-0.1645,-0.1088,5.11,0.98,-46.76,-0.365193814807831,0.8513449871646493,-0.33315774210325894,0.17564483861584212,-132.26884405476352,-3.195002170521358,-44.157728654135745,5
1767651015.481054,1,left_wrist,0.1415,-0.1591,-0.7837,-9.52,-68.95,4.55,0.09185333916895484,-0.17265634109323133,-0.9720455326272449,0.1299239564638735,-163.32886006994866,-7.683850873504687,158.72866738159894,5
1767651015.481054,2,right_wrist,0.8974,-0.1645,-0.1088,5.11,0.98,-46.76,-0.362284455946655,0.8573976286676339,-0.31422961636877134,0.18675927696178599,-132.1150584426427,-5.311642179214585,-42.61485616675655,5
1767651015.5329,1,left_wrist,-0.102,-0.1601,-0.9062,-7.07,-44.8,11.27,0.06687474141228326,-0.1757381002089185,-0.9735893111487407,0.12949031744852982,-163.94023673010796,-4.859021304378213,158.85008541791876,5
1767651015.5329,2,right_wrist,0.8974,-0.1645,-0.1088,5.11,0.98,-46.76,-0.35917128639041346,0.8630032015009277,-0.2951174192310706,0.19780588994819467,-132.0182281156377,-7.436009818162774,-41.070885236633096,5
1767651015.619193,1,left_wrist,-0.0205,-0.2674,-0.8301,-10.5,-45.85,0.0,0.04218765199134655,-0.1741128041902437,-0.9750952270781641,0.13074491028659768,-164.34462693110217,-2.1058206771385426,159.46241829864312,5
1767651015.619193,2,right_wrist,0.8974,-0.1645,-0.1088,5.11,0.98,-46.76,-0.3523417080789799,0.8728477803757589,-0.25639075150781104,0.2196721547724193,-131.99792331512182,-11.701117536874218,-37.96378831391873,5
1767651015.6788108,1,left_wrist,-0.1654,-0.2606,-0.9618,-36.89,-40.18,-0.42,-0.004525329320193433,-0.17360454255082516,-0.9765323997285339,0.12737918385942587,-165.6669834655611,3.041856299758148,160.22150042655778,5
1767651015.6788108,2,right_wrist,0.8974,-0.1645,-0.1088,5.11,0.98,-46.76,-0.34863030957499724,0.8770749390394248,-0.23680234327103902,0.2304801700276535,-132.07650957599168,-13.83837340300485,-36.392453309339075,5
1767651015.73112,1,left_wrist,-0.1518,-0.1405,-0.9321,0.21,-10.64,-5.46,-0.012888770496465321,-0.17127476896639743,-0.977104045614931,0.12556479265117068,-166.0233150879154,3.910579056171032,160.5950056834188,5
1767651015.73112,2,right_wrist,0.8974,-0.1645,-0.1088,5.11,0.98,-46.76,-0.34472516954289234,0.8808313790597693,-0.21708200715103557,0.2411971005600338,-132.21620593283788,-15.976357984937252,-34.80353856381344,5
1767651015.817923,1,left_wrist,-0.2542,-0.0703,-0.8467,38.22,-9.24,0.49,-0.018409603174853028,-0.1717826298810134,-0.9748963036196815,0.14046000060796351,-164.4252493136582,4.827268210152222,160.67399309543083,5
1767651015.817923,2,right_wrist,0.8974,-0.1645,-0.1088,5.11,0.98,-46.76,-0.3363482603503024,0.8869125818314828,-0.17730269976714794,0.26233503884082865,-132.68703380210147,-20.24685654481285,-31.554615462169448,5
1767651015.8740978,1,left_wrist,-0.385,-0.1874,-0.9643,43.4,31.08,-0.84,-0.014494165180431506,-0.17399590337007403,-0.9736666957566672,0.14658959840468858,-163.66222605769522,4.544707016060405,160.38890777621484,5
1767651015.8740978,2,right_wrist,0.8974,-0.1645,-0.1088,5.11,0.98,-46.76,-0.3318849835177789,0.8892286746777318,-0.15727350973829504,0.2727448715941082,-133.0232436665839,-22.375294823536198,-29.884802602254787,5
1767651015.929597,1,left_wrist,-0.385,-0.1874,-0.9643,43.4,31.08,-0.84,-0.0026294653923398035,-0.176568491659001,-0.9708494620381686,0.16207398225876454,-161.6765025573654,3.574133436449853,159.96116474757238,5
1767651015.929597,2,right_wrist,0.8974,-0.1645,-0.1088,5.11,0.98,-46.76,-0.327245021765811,0.8910567774153526,-0.13717198616500087,0.2830412714838768,-133.43077919417667,-24.496269036881138,-28.177718854466725,5
1767651016.01923,1,left_wrist,-0.3836,-0.0551,-0.8628,34.02,57.12,-3.99,0.020177406625481068,-0.17966440830459995,-0.9686917048826996,0.17014685874819038,-160.30750512123944,1.263319402807994,159.20463199649168,5
1767651016.01923,2,right_wrist,0.8974,-0.1645,-0.1088,5.11,0.98,-46.76,-0.317458101055246,0.8932372673797022,-0.0968171770359429,0.30327210961318274,-134.4751684159398,-28.706114790919308,-24.628456503789316,5
1767651016.071903,1,left_wrist,-0.0239,-0.2201,-0.8398,-6.51,95.34,-6.23,0.05917662374927853,-0.18425016472677389,-0.9687575870133825,0.15510880569394314,-161.16363776176365,-3.2962083885848554,157.91590112906974,5
1767651016.071903,2,right_wrist,0.8974,-0.1645,-0.1088,5.11,0.98,-46.76,-0.3123242748239664,0.8935852932110282,-0.07659790288476603,0.3131958371152149,-135.1210535695009,-30.78964508399391,-22.773568954869052,5
1767651016.126903,1,left_wrist,0.1083,-0.2855,-0.8721,11.9,102.83,-14.7,0.14261184319695724,-0.1867138381822207,-0.9612687320808625,0.14409104599134917,-160.20842405183248,-12.73070863623223,155.78603702506052,5
1767651016.126903,2,right_wrist,0.8974,-0.1645,-0.1088,5.11,0.98,-46.76,-0.3070401285494733,0.8934367288291414,-0.056374362557991387,0.3229846780972531,-135.85640460652775,-32.85496718487767,-20.855897981593962,5
1767651016.212854,1,left_wrist,0.2064,-0.1103,-0.8369,16.03,116.76,-25.2,0.1935860915054755,-0.18178674188653773,-0.9546346726158418,0.13472433889077115,-159.76523543100336,-18.700774402773813,155.07107088712456,5
1767651016.212854,2,right_wrist,0.8974,-0.1645,-0.1088,5.11,0.98,-46.76,-0.29605529471392344,0.8916492072794884,-0.015989108818022933,0.3421363792830532,-137.62037612922325,-36.91746380921911,-16.8010882968897,5
1767651016.2670069,1,left_wrist,0.2879,-0.2279,-0.8013,48.23,118.72,-29.4,0.2474477541087944,-0.17151500090231397,-0.9435578379899023,0.1380247072803058,-157.63738538307345,-24.81034130306416,154.41599500869827,5
1767651016.2670069,2,right_wrist,0.8974,-0.1645,-0.1088,5.11,0.98,-46.76,-0.29037393453896354,0.8900122346333255,0.0041336935609935545,0.3514884250169556,-138.66314418411096,-38.90703663947685,-14.646894502219425,5
1767651016.3189309,1,left_wrist,0.3982,-0.3148,-0.7808,51.59,133.56,-28.77,0.3103627139715061,-0.1603750577172128,-0.9261498237506195,0.1421313850109753,-154.68263282769038,-31.957906628025516,152.99205617856467,5
1767651016.3189309,2,right_wrist,0.8974,-0.1645,-0.1088,5.11,0.98,-46.76,-0.2845810010139704,0.8878828763921875,0.024182923032824225,0.36068384757985816,-139.8237030651867,-40.86311035610254,-12.39576500364942,5
1767651016.371995,1,left_wrist,0.5109,-0.3357,-0.5954,19.88,147.28,-30.8,0.37609216338189005,-0.1535537318990745,-0.9035276991157375,0.13643178879285592,-151.96448272836295,-39.622026394160414,150.43128280562846,5
1767651016.371995,2,right_wrist,0.8974,-0.1645,-0.1088,5.11,0.98,-46.76,-0.27868846323544827,0.8852649846251432,0.044137511566905166,0.369716820727419,-141.11086900812177,-42.78084300502809,-10.03761850719623,5
1767651016.429044,1,left_wrist,0.7422,-0.0146,-0.4109,-3.5,117.81,-47.6,0.48245126882873784,-0.12717976063165495,-0.8612855261844978,0.09619419980595689,-150.79587147585497,-53.7639626685828,148.15394442405102,5
1767651016.429044,2,right_wrist,0.8974,-0.1645,-0.1088,5.11,0.98,-46.76,-0.2727092439247068,0.882163837260877,0.06397579125826289,0.3785812074576058,-142.53409270123652,-44.65489169747395,-7.561805846091958,5
1767651018.224237,1,left_wrist,0.3406,-0.0454,-0.9311,5.46,-68.39,5.32,0.1965927730079183,-0.03402870535173067,-0.9713284091349845,0.12928437809898896,-163.43368729057266,-21.907765426145513,172.75913572930776,6
1767651018.224237,2,right_wrist,0.8974,-0.1645,-0.1088,5.11,0.98,-46.76,-0.05891283322856771,0.5750472824254145,0.6131817596870431,0.5383846493383981,124.90057206832242,-43.74434914221758,117.33183254651483,6
1767651018.2793431,1,left_wrist,0.0805,-0.1322,-0.9331,-3.43,-76.93,-0.63,0.15940864780124556,-0.02997003716755929,-0.9785457432675381,0.1270390027170195,-164.2737708980692,-17.719819325225473,174.02497230184898,6
1767651018.2793431,2,right_wrist,0.8974,-0.1645,-0.1088,5.11,0.98,-46.76,-0.05261819216751273,0.5632514773079836,0.6243669311943401,0.5386511249355737,124.02938377542628,-42.260171280143005,119.10194819702899,6
1767651018.369843,1,left_wrist,0.0922,-0.2054,-0.9233,-4.97,-77.28,0.42,0.12149512387078934,-0.026694988995444726,-0.9843304055059294,0.12497985931615996,-164.95097662638133,-13.44489212515326,175.10908892645946,6
1767651018.369843,2,right_wrist,0.8974,-0.1645,-0.1088,5.11,0.98,-46.76,-0.039908544935437634,0.539171997149828,0.6461761284950801,0.5386624884783715,122.52653210869781,-39.23032408915684,122.43022912163826,6
1767651018.422854,1,left_wrist,0.0937,-0.184,-0.9775,18.83,-47.95,6.79,0.06913103568426197,-0.02855799423225659,-0.9885646457441134,0.1309399941021363,-164.6297547469263,-7.4234945914990105,175.68744901696016,6
1767651018.422854,2,right_wrist,0.8974,-0.1645,-0.1088,5.11,0.98,-46.76,-0.03349645787863321,0.5268879777485471,0.6567961158124909,0.5384105389637693,121.88337556814514,-37.6882500564861,124.00151867138634,6
1767651018.4754848,1,left_wrist,0.0937,-0.184,-0.9775,18.83,-47.95,6.79,0.06913103568426197,-0.02855799423225659,-0.9885646457441134,0.1309399941021363,-164.6297547469263,-7.4234945914990105,175.68744901696016,6
1767651018.4754848,2,right_wrist,0.8974,-0.1645,-0.1088,5.11,0.98,-46.76,-0.027048289159778135,0.5144411738115418,0.6672233162666815,0.5379885825656747,121.30567022350047,-36.13015004432857,125.5187654386598,6
1767651018.525769,1,left_wrist,-0.1342,-0.1884,-0.9233,6.37,-46.41,7.56,0.0187256915484276,-0.030577868640611943,-0.9901077564683484,0.1356501861651665,-164.34325359409937,-1.6494936036071834,176.23535035310138,6
1767651018.525769,2,right_wrist,0.8974,-0.1645,-0.1088,5.11,0.98,-46.76,-0.020565703609110902,0.5018318517007644,0.6774552119357831,0.5373976928445892,120.78900600260216,-34.55737683113515,126.98726265456172,6
1767651018.578871,1,left_wrist,-0.1205,-0.1537,-1.078,-11.41,-34.23,0.49,3.956614291788628e-05,-0.029313994974440434,-0.9913556523861098,0.12788533385525366,-165.3111920342345,0.42509342503449515,176.66735078102096,6
1767651018.578871,2,right_wrist,0.8974,-0.1645,-0.1088,5.11,0.98,-46.76,-0.014050431445379895,0.48906044372448854,0.6874891196667802,0.5366387780434813,120.32943181958758,-32.971147473520716,128.41187719780174,6
1767651018.635547,1,left_wrist,-0.2377,-0.1645,-0.9643,-12.81,-26.04,0.84,-0.016082080012717,-0.028823228814548595,-0.9920932950465698,0.12108460722490036,-166.14246257225642,2.2287918371524156,176.94259698295852,6
1767651018.635547,2,right_wrist,0.8974,-0.1645,-0.1088,5.11,0.98,-46.76,-0.007504261948151087,0.47612754359333953,0.6973222063301333,0.5357125991081982,119.92341648642024,-31.372562268108982,129.7970920586523,6
1767651018.721707,1,left_wrist,-0.347,-0.2045,-0.9965,9.1,-5.04,2.03,-0.022997044374146642,-0.030085056464348257,-0.9914875882119328,0.12457282106974675,-165.7597655569118,3.043730081066539,176.90426457170943,6
1767651018.721707,2,right_wrist,0.8974,-0.1645,-0.1088,5.11,0.98,-46.76,0.005673344960901569,0.4497804252180976,0.7163739127503725,0.5333608528738341,119.25982253622266,-28.142239270448652,132.4655714767148,6
1767651018.781077,1,left_wrist,-0.3626,-0.2074,-0.9414,31.43,59.15,-10.99,0.0029138737570758534,-0.029035670813584907,-0.9887268321817902,0.14685942422566847,-163.10743494514,0.15849599620539473,176.65932337292847,6
1767651018.781077,2,right_wrist,0.8974,-0.1645,-0.1088,5.11,0.98,-46.76,0.012300947209882633,0.43636816804785356,0.7255862291741499,0.5319362110677723,118.99696992835557,-26.512257790364597,133.75622694120594,6
1767651018.8638778,1,left_wrist,-0.1098,-0.1923,-1.079,18.34,78.19,1.68,0.03349651804732993,-0.03521527470198646,-0.9874915538914713,0.14999432889071432,-162.59897293275125,-3.186765285069142,175.4274464726613,6
1767651018.8638778,2,right_wrist,0.8974,-0.1645,-0.1088,5.11,0.98,-46.76,0.025623816672825695,0.4090722788943625,0.7433672284337698,0.5285910085784528,118.59821141739157,-23.226566526676265,136.26698527890017,6
1767651018.9169972,1,left_wrist,-0.002,-0.1459,-0.9716,12.74,97.51,-8.47,0.07427254414790004,-0.03788961148636305,-0.9852815335466535,0.14922555471220528,-162.3947287552795,-7.761542138908729,174.3917680753427,6
1767651018.9169972,2,right_wrist,0.8974,-0.1645,-0.1088,5.11,0.98,-46.76,0.03231497928431516,0.3951914945673831,0.75192900244939,0.5266708649725343,118.45872438874287,-21.572272200963475,137.49311074146283,6
1767651018.967253,1,left_wrist,0.0893,-0.1044,-0.9736,14.28,91.77,-16.03,0.11360010639287667,-0.03635457676494072,-0.9816940307274741,0.1484930658644175,-162.13355931577354,-12.253905738360654,173.82494469095812,6
1767651018.967253,2,right_wrist,0.8974,-0.1645,-0.1088,5.11,0.98,-46.76,0.03902315305034094,0.381157622981544,0.760266879586695,0.5245858669203532,118.357172234846,-19.911226463998364,138.7034618832809,6
1767651019.024048,1,left_wrist,0.1981,-0.245,-0.8057,5.74,119.49,-29.96,0.20528751290700925,-0.02745006180227181,-0.9672986964423079,0.14641298785462273,-161.35418516938208,-22.899169411486586,172.94025260164804,6
1767651019.024048,2,right_wrist,0.8974,-0.1645,-0.1088,5.11,0.98,-46.76,0.04574617975229352,0.3669724478918669,0.768377204758239,0.5223360802531615,118.29232977642606,-18.244054538408633,139.90065372525305,6
1767651019.080266,1,left_wrist,0.2928,-0.3421,-0.6495,19.18,137.9,-24.15,0.264818865460961,-0.025230198467820215,-0.9514457080813061,0.15487243187509478,-159.2181726457791,-29.74274871723465,171.38659756148922,6
1767651019.080266,2,right_wrist,0.8974,-0.1645,-0.1088,5.11,0.98,-46.76,0.05248185921094098,0.3526378959621573,0.7762562542456523,0.5199215292038357,118.26317013472632,-16.571361371586004,141.08718111710772,6
1767651019.162818,1,left_wrist,0.347,-0.141,-0.7183,18.76,143.08,-16.1,0.32246471899500817,-0.025361543854023626,-0.9334368968376303,0.15514140878226518,-157.64120483088163,-36.45075640281326,169.44075867717052,6
1767651019.162818,2,right_wrist,0.8974,-0.1645,-0.1088,5.11,0.98,-46.76,0.0659821652680179,0.3235290823464622,0.7913053233141026,0.5145980684353212,118.30871180173072,-13.211766556600754,143.43773211159544,6
1767651019.218465,1,left_wrist,0.4685,-0.2347,-0.3802,-9.66,165.2,-19.39,0.393309926217556,-0.029838807696300845,-0.9069902553770571,0.14759953978608603,-155.76894273076454,-44.801125812389,166.11860924009045,6
1767651019.218465,2,right_wrist,0.8974,-0.1645,-0.1088,5.11,0.98,-46.76,0.07274218039155732,0.308759388733903,0.7984676042247747,0.5116890658047103,118.38224995681202,-11.526027351811326,144.6063065142467,6
1767651019.2705479,1,left_wrist,0.5744,-0.0883,-0.4939,1.47,164.22,-31.64,0.46034251573109036,-0.02548971844526536,-0.8769098424473445,0.13588293006454233,-154.1050984865096,-53.171234689789586,163.5434896185508,6
1767651019.2705479,2,right_wrist,0.8974,-0.1645,-0.1088,5.11,0.98,-46.76,0.07950562468561248,0.29384945533505813,0.8053831428613584,0.5086151260407038,118.48912885795312,-9.837102547016055,145.77334946382814,6
1767651020.9650729,1,left_wrist,0.3567,-0.1728,-0.7749,13.79,-57.68,5.39,0.17903681653446288,0.1311331873907265,-0.960693456770751,0.16678725253393584,-162.73926369712171,-22.814053199655515,-167.96256087242733,7
1767651020.9650729,2,right_wrist,0.8974,-0.1645,-0.1088,5.11,0.98,-46.76,0.291697395531174,-0.2687248992313907,0.8651323174705352,0.30699451337356143,149.72373346703986,42.04451875050485,-157.35996429097239,7
1767651021.019734,1,left_wrist,0.1332,-0.4519,-0.9511,-4.83,-63.84,6.72,0.14755428454772132,0.13147474986043586,-0.9665476037613782,0.16348655273105395,-162.93265445720874,-19.161086954369114,-167.40938939350244,7
1767651021.019734,2,right_wrist,0.8974,-0.1645,-0.1088,5.11,0.98,-46.76,0.2967546532275641,-0.28578702244667703,0.8609615114986318,0.2983416318699787,151.9519321081059,42.96198785680267,-154.5013780613623,7
1767651021.075572,1,left_wrist,0.0459,-0.0483,-0.7828,5.81,-55.51,8.26,0.09243223806314804,0.13314023867468958,-0.9744582199651781,0.15543852725299664,-163.4163101847251,-12.799086697379188,-166.31265514124908,7
1767651021.075572,2,right_wrist,0.8974,-0.1645,-0.1088,5.11,0.98,-46.76,0.30170290830457414,-0.30279732435079604,0.8564171238555089,0.28954938344541253,154.27960279183912,43.79789298402356,-151.54339443306318,7
1767651021.1260622,1,left_wrist,0.059,-0.2591,-0.8452,-2.73,-50.33,13.09,0.06537849672532754,0.13015212421900788,-0.9776567137573908,0.15156987422412005,-163.5402793420618,-9.630275728990465,-166.23007566561233,7
1767651021.1260622,2,right_wrist,0.8974,-0.1645,-0.1088,5.11,0.98,-46.76,0.3065385420616738,-0.31974766740922617,0.8514974772574921,0.28062002359273797,156.7028926267188,44.54657192010544,-148.48939895714477,7
1767651021.1831,1,left_wrist,-0.0756,-0.0961,-1.118,-2.17,-41.37,6.79,0.044042296679962414,0.12972664602764894,-0.9799255762086063,0.14483486633335957,-164.06521239142944,-7.116903380794481,-165.91493466686237,7
1767651021.1831,2,right_wrist,0.8974,-0.1645,-0.1088,5.11,0.98,-46.76,0.3112579366916817,-0.33662978482443806,0.8462010793632073,0.2715559207604068,159.216106122583,45.20247926400155,-145.34461949404061,7
1767651021.233907,1,left_wrist,0.0639,-0.1098,-0.9262,0.91,-46.2,4.97,0.022889662121832927,0.13066383871579607,-0.9815244018740704,0.13788717542160744,-164.59920584458405,-4.64416597585338,-165.46263976305514,7
1767651021.233907,2,right_wrist,0.8974,-0.1645,-0.1088,5.11,0.98,-46.76,0.3158574786114903,-0.3534352844103195,0.840526629830366,0.2623595576398837,161.81158665926802,45.76030992653707,-142.1162433803203,7
1767651021.317097,1,left_wrist,-0.2577,-0.1391,-0.9965,12.25,-31.71,3.5,0.004087053369080036,0.13068675606336164,-0.9816165121153153,0.13904420493841824,-164.20621146949523,-2.5428370074120843,-165.18589525736726,7
1767651021.317097,2,right_wrist,0.8974,-0.1645,-0.1088,5.11,0.98,-46.76,0.32468259193562726,-0.38678225943890776,0.8280393767252755,0.24358055930166828,167.20878282628271,46.56253355151039,-135.44737357734198,7
1767651021.36894,1,left_wrist,-0.364,-0.1581,-0.9492,-10.57,-18.83,4.69,-0.008067664264472012,0.12921728097865906,-0.9828034612819586,0.13166306840568348,-164.87499290412134,-1.0410316765068428,-165.15784101413385,7
1767651021.36894,2,right_wrist,0.8974,-0.1645,-0.1088,5.11,0.98,-46.76,0.32890098895801945,-0.40330636202073344,0.8212249957650282,0.2340034703733418,169.98553984683022,46.79874250532246,-132.03087922479963,7
1767651021.439074,1,left_wrist,-0.1503,-0.002,-1.096,25.55,31.99,0.56,-0.0020796239440883844,0.12191232636150902,-0.9803126371097205,0.1553067718045849,-162.23102340429313,-1.9364076940679977,-166.1248332233301,7
1767651021.439074,2,right_wrist,0.8974,-0.1645,-0.1088,5.11,0.98,-46.76,0.3329851920142792,-0.419719110611794,0.8140294223557136,0.22430521533321826,172.79510830317443,46.920764905188626,-128.57832242414761,7
1767651021.5147111,1,left_wrist,-0.326,-0.3396,-1.2205,4.9,51.8,-7.07,0.015629938933105336,0.12068984474619537,-0.9797585625176963,0.1589428373892445,-162.03636179354896,-3.9561336275836334,-166.5805397894217,7
1767651021.5147111,2,right_wrist,0.8974,-0.1645,-0.1088,5.11,0.98,-46.76,0.3407368898859257,-0.452174641185508,0.7984939913696479,0.20455759943397858,178.44837493306738,46.81470029428759,-121.62732147237034,7
1767651021.5730581,1,left_wrist,-0.326,-0.3396,-1.2205,4.9,51.8,-7.07,0.033331402825109206,0.11943287810744618,-0.9788788413648064,0.16254543715828013,-161.82278271203583,-5.974241721453833,-167.04400786937987,7
1767651021.5730581,2,right_wrist,0.8974,-0.1645,-0.1088,5.11,0.98,-46.76,0.34439739259654023,-0.4681992348602217,0.7901543717928874,0.1945147325669572,-178.74107447377648,46.585228567306636,-118.16099527556743,7
1767651021.623691,1,left_wrist,0.0903,-0.2586,-0.9589,7.91,109.27,-13.51,0.11671291952671915,0.11602890407777577,-0.9714055288171192,0.1711335338780592,-161.52735865114545,-15.453963469655843,-168.90521330627786,7
1767651021.623691,2,right_wrist,0.8974,-0.1645,-0.1088,5.11,0.98,-46.76,0.34790972562580214,-0.48407610964431386,0.7814340493422066,0.1843636878977185,-175.96295363255894,46.23882912194203,-114.72178530242849,7
1767651021.675222,1,left_wrist,0.1293,-0.1893,-0.8072,22.47,124.88,-19.18,0.16618449279976244,0.11571918208649187,-0.9621220960199932,0.18251810211651315,-160.39673168233497,-21.224379043872503,-169.99132368917026,7
1767651021.675222,2,right_wrist,0.8974,-0.1645,-0.1088,5.11,0.98,-46.76,0.3512704833201852,-0.4997959622371714,0.772333764851561,0.17410801058434155,-173.23249165537874,45.777195616644086,-111.32437104605252,7
1767651021.7271,1,left_wrist,0.2557,-0.1191,-0.8042,18.48,114.59,-25.97,0.21391947333967806,0.11936563062379066,-0.9508559083440644,0.18937620420486811,-159.7273266212574,-26.87356530507886,-170.58120007726598,7
1767651021.7271,2,right_wrist,0.8974,-0.1645,-0.1088,5.11,0.98,-46.76,0.35447630427306487,-0.5153494171914496,0.7628545198529508,0.163751364724898,-170.5635566843798,45.20287090249996,-107.98205388244384,7
1767651021.8136692,1,left_wrist,0.304,-0.2059,-0.7281,20.86,122.99,-35.56,0.2631073724857167,0.1259012594569331,-0.9358271587515253,0.19786589487293602,-158.78195085690038,-32.8382457953086,-170.99401441930505,7
1767651021.8136692,2,right_wrist,0.8974,-0.1645,-0.1088,5.11,0.98,-46.76,0.36040993985268677,-0.5459193129219861,0.7427644969464,0.1427504154464388,-165.45712592753924,43.72991846642276,-101.50720439099034,7
1767651021.864098,1,left_wrist,0.4006,-0.265,-0.5192,30.24,140.84,-46.27,0.32367919891669933,0.13487622222712353,-0.9112516038302737,0.21601086866900276,-156.27635269013476,-40.404208662979855,-172.0002373630151,7
1767651021.864098,2,right_wrist,0.8974,-0.1645,-0.1088,5.11,0.98,-46.76,0.3631312957981075,-0.5609167049471965,0.7321570837436364,0.13211402971365593,-163.03824689159234,42.83959796261209,-98.39205139695457,7
1767651021.919143,1,left_wrist,0.6891,-0.1947,-0.4821,-2.45,146.16,-31.36,0.3878349509050935,0.13369154535629718,-0.8854546262255611,0.21835916846434592,-154.88832395921585,-48.176800315623524,-174.20059090073357,7
1767651021.919143,2,right_wrist,0.8974,-0.1645,-0.1088,5.11,0.98,-46.76,0.3656848076917375,-0.5757096169032141,0.7211774519630332,0.12139250886573792,-160.71804869645808,41.85293666751658,-95.36666994055443,7
1767651023.682327,1,left_wrist,0.2298,-0.2391,-0.7691,33.53,-64.47,13.23,0.17050583387912244,0.2976124645163215,-0.9140456522634488,0.21650664460009716,-160.86249840685304,-26.140279569575608,-148.41200004400645,8
1767651023.682327,2,right_wrist,0.8974,-0.1645,-0.1088,5.11,0.98,-46.76,0.3332913857290998,-0.8924393482185664,0.1429416577826696,-0.26839624516810745,-133.33896677306427,-22.567543887150734,-28.036460646718513,8
1767651023.772713,1,left_wrist,0.2372,-0.0771,-0.7003,12.46,-48.58,23.73,0.14595496874644437,0.29442718873991663,-0.9202685515493977,0.21240426233507556,-160.6226138605554,-23.18558889191396,-148.52904645193905,8
1767651023.772713,2,right_wrist,0.8974,-0.1645,-0.1088,5.11,0.98,-46.76,0.32414577408903616,-0.894950699827682,0.10261741626821808,-0.2888986464083848,-134.24904973386967,-26.78052280094175,-24.553103611462006,8
1767651023.828483,1,left_wrist,-0.0156,0.0312,-0.8755,-30.59,-71.68,0.63,0.09198521446169586,0.29714504156691807,-0.9351623079245646,0.16945501594769122,-164.18062193122122,-15.827833457288232,-146.95783890698135,8
1767651023.828483,2,right_wrist,0.8974,-0.1645,-0.1088,5.11,0.98,-46.76,0.3193231713885054,-0.8954663251390249,0.08240125639219115,-0.2989695732033374,-134.82154162728978,-28.86903064626449,-22.739942173806295,8
1767651023.881384,1,left_wrist,0.0512,-0.2074,-0.8032,18.27,-61.88,9.31,0.059115515307217245,0.2981282043683753,-0.9378775346203647,0.16736385411574664,-163.43612066408897,-12.162087615635105,-146.5085150673847,8
1767651023.881384,2,right_wrist,0.8974,-0.1645,-0.1088,5.11,0.98,-46.76,0.31434298221945217,-0.8954863656171158,0.06217201975953657,-0.3089130921185604,-135.4785665204619,-30.941875723710815,-20.87049441165916,8
1767651023.935804,1,left_wrist,-0.2098,-0.2982,-1.0326,3.99,-51.52,10.57,0.03208065603549433,0.297039791051205,-0.9406324715149625,0.16108614953571274,-163.29108760179616,-8.977709824426425,-146.27015686553315,8
1767651023.935804,2,right_wrist,0.8974,-0.1645,-0.1088,5.11,0.98,-46.76,0.3092128005921062,-0.8950100454577455,0.041947633746730044,-0.31872379657433947,-136.22553759230973,-32.99600172603095,-18.937678216270406,8
1767651024.018102,1,left_wrist,-0.2098,-0.2982,-1.0326,3.99,-51.52,10.57,0.005034868507244411,0.2957086666440269,-0.9426658217272491,0.15463564633685548,-163.13944835911008,-5.79368242241016,-146.0267189367248,8
1767651024.018102,2,right_wrist,0.8974,-0.1645,-0.1088,5.11,0.98,-46.76,0.2985367286046556,-0.8925693281853021,0.0015881133516085584,-0.3379249827296747,-138.01416226915222,-37.03442291480871,-14.850887239452428,8
1767651024.079066,1,left_wrist,-0.2425,-0.083,-1.0194,0.77,-36.4,-7.63,-0.030365688794774314,0.30604930217993886,-0.9414368515686204,0.1382331511894117,-163.80141519587838,-1.5722538160303432,-144.2063724972004,8
1767651024.079066,2,right_wrist,0.8974,-0.1645,-0.1088,5.11,0.98,-46.76,0.29301006323636364,-0.8906077835313767,-0.018508137187635065,-0.3473043731561616,-139.0699088776318,-39.01103805626527,-12.679927833951938,8
1767651024.163989,1,left_wrist,-0.1986,-0.2089,-0.9282,-5.18,-20.09,-6.44,-0.041682295906382005,0.3093951072329582,-0.9409626985565256,0.1308680776717536,-164.21207640439945,-0.14535465393652452,-143.61770178883464,8
1767651024.163989,2,right_wrist,0.8974,-0.1645,-0.1088,5.11,0.98,-46.76,0.2816342180150095,-0.885217777717598,-0.05843180498578469,-0.36559181804561036,-141.54457988711903,-42.856893297235366,-8.035919696084807,8
1767651024.218636,1,left_wrist,-0.1796,-0.242,-1.037,25.34,20.86,2.45,-0.04079440205779117,0.30614947912734186,-0.9405493197483222,0.14133396729651698,-163.0908211994275,-0.561527494553539,-144.02325447997836,8
1767651024.218636,2,right_wrist,0.8974,-0.1645,-0.1088,5.11,0.98,-46.76,0.27580969063582,-0.881799443541707,-0.07821675067168958,-0.37448751092028665,-142.981544173605,-44.71587623791762,-5.542379424951312,8
1767651024.269042,1,left_wrist,-0.3172,-0.0864,-1.0472,19.25,50.26,-2.59,-0.025544091453924816,0.30328911667997194,-0.9403269104829324,0.1521463522957386,-162.4267500859619,-2.5361131649879183,-144.63932607029315,8
1767651024.269042,2,right_wrist,0.8974,-0.1645,-0.1088,5.11,0.98,-46.76,0.2699120235180947,-0.8779082306459617,-0.09785462800762418,-0.38320896375467767,-144.56449693855646,-46.524519900917284,-2.920050927210026,8
1767651024.3214169,1,left_wrist,-0.1693,-0.1132,-1.0082,14.0,71.54,-12.81,0.0003555561279957979,0.30323675539880374,-0.9388433765038537,0.16315777073093693,-162.08088868013354,-5.717201811915593,-145.1022632896655,8
1767651024.3214169,2,right_wrist,0.8974,-0.1645,-0.1088,5.11,0.98,-46.76,0.2639556799493932,-0.8735533740891701,-0.11732313596729929,-0.391748877990325,-146.30353000126075,-48.27633220320875,-0.15777097129396578,8
1767651024.3760698,1,left_wrist,-0.1176,-0.2186,-1.0311,15.96,90.44,-18.06,0.03296551034287323,0.3036094408506502,-0.93541021822271,0.1781637061770194,-161.4631369108448,-9.77950000844575,-145.6355827586544,8
1767651024.3760698,2,right_wrist,0.8974,-0.1645,-0.1088,5.11,0.98,-46.76,0.2579557662979743,-0.8687461251893102,-0.13659984657467117,-0.40009933081418725,-148.20875274441573,-49.96422323616991,2.755584525279386,8
1767651024.4355469,1,left_wrist,0.1362,-0.3196,-0.8267,24.92,130.69,-9.59,0.11984415268214972,0.2930770297362417,-0.9221668538578703,0.2221520365757582,-158.7414006569462,-20.563663003989827,-148.63781797220216,8
1767651024.4355469,2,right_wrist,0.8974,-0.1645,-0.1088,5.11,0.98,-46.76,0.25192779823444417,-0.8634999295055817,-0.15566248715739664,-0.40825169480673795,-150.28989916297573,-51.58050218390193,5.830709266059841,8
1767651024.523028,1,left_wrist,0.3831,-0.163,-0.7247,22.33,137.41,-17.57,0.17763701927060713,0.28863234161430906,-0.9084588046252385,0.2446202384468164,-157.29617926824025,-27.64309442531469,-150.4034843157692,8
1767651024.523028,2,right_wrist,0.8974,-0.1645,-0.1088,5.11,0.98,-46.76,0.23984973041845256,-0.8517561922467572,-0.19305959888001678,-0.4239239166027176,-155.01368129787477,-54.564648839548205,12.503554961250611,8
1767651024.576819,1,left_wrist,0.4656,-0.1078,-0.6315,-9.66,134.05,-45.57,0.2917083444914212,0.289538853333298,-0.8728227465663153,0.26316144710224354,-157.20936112080182,-41.422798142126595,-152.01149515042363,8
1767651024.576819,2,right_wrist,0.8974,-0.1645,-0.1088,5.11,0.98,-46.76,0.23382924127084595,-0.8452973226281543,-0.21135417211768776,-0.43142292036100877,-157.66835246388595,-55.914567461492595,16.114964271541325,8
1767651024.670165,1,left_wrist,0.5607,-0.1362,-0.5158,26.74,140.42,-40.74,0.3493348275364022,0.2933250791410422,-0.8438322130065294,0.2826177144297863,-155.47378809616865,-49.056633587285106,-152.99292176941822,8
1767651024.670165,2,right_wrist,0.8974,-0.1645,-0.1088,5.11,0.98,-46.76,0.22188919211124344,-0.8313183768213833,-0.2470511983942914,-0.445691202689962,-163.5691091560064,-58.28336996212628,23.897356325628735,8
1767651024.725322,1,left_wrist,0.7876,-0.0576,-0.2611,-20.51,126.14,-73.22,0.46870423569115827,0.3000782348489892,-0.7763151599266239,0.29598000757345494,-155.18032901008297,-64.87164054046563,-153.65374320525248,8
1767651024.725322,2,right_wrist,0.8974,-0.1645,-0.1088,5.11,0.98,-46.76,0.2159885709068166,-0.8238482232900924,-0.2644288608708215,-0.4524383049189676,-166.80347903516912,-59.28383659316073,28.057977201833058,8
1767651026.365057,1,left_wrist,0.286,-0.1259,-0.8486,-23.38,-96.67,16.8,0.1253558118053281,0.46014646445113105,-0.8523337949747939,0.21465845812270548,-164.04536498936145,-24.282668683280516,-126.72747679820144,9
1767651026.365057,2,right_wrist,0.8974,-0.1645,-0.1088,5.11,0.98,-46.76,0.02059570789822816,-0.4786526162819535,-0.6960926353476815,-0.5347172456142887,120.52466245095773,-32.72181344777107,130.01373882619993,9
1767651026.427229,1,left_wrist,-0.103,-0.0864,-1.2283,35.0,-55.44,11.13,0.06138451182882015,0.4619316587178596,-0.862097745165919,0.19909435492133543,-162.57764664362858,-16.844478281856702,-126.2323909488915,9
1767651026.427229,2,right_wrist,0.8974,-0.1645,-0.1088,5.11,0.98,-46.76,0.01406514559225417,-0.4655414662196104,-0.7057349929472105,-0.5338646220151366,120.12110888541218,-31.126196196904033,131.4038623367575,9
1767651026.4829628,1,left_wrist,0.1122,-0.2611,-0.8818,16.52,-58.45,8.89,0.03114526373127204,0.46363244813600607,-0.8645940324478336,0.19118599487963947,-161.93389463220922,-13.363966747754208,-125.72974508834365,9
1767651026.4829628,2,right_wrist,0.8974,-0.1645,-0.1088,5.11,0.98,-46.76,0.007503518591833255,-0.4522724374960199,-0.7151702807998961,-0.5328459523640473,119.76782017451443,-29.519231007007622,132.7590396345098,9
1767651026.567903,1,left_wrist,-0.0088,-0.265,-0.7725,13.72,-50.47,11.76,0.0038128392007876553,0.46292245144359434,-0.8670056429396077,0.1843623641570032,-161.2617047959191,-10.212675065918594,-125.4909899037623,9
1767651026.567903,2,right_wrist,0.8974,-0.1645,-0.1088,5.11,0.98,-46.76,-0.005705292571131575,-0.42526479579844606,-0.733407196120561,-0.5303123492525519,119.20132821149534,-26.274856735774296,135.37948605763884,9
1767651026.6281018,1,left_wrist,-0.063,-0.3172,-0.9677,-8.05,-48.37,3.22,-0.043258773787276036,0.4684982028735997,-0.8699733940460972,0.14759541336553392,-162.66645227644813,-3.6136570177557057,-123.94428301892047,9
1767651026.6281018,2,right_wrist,0.8974,-0.1645,-0.1088,5.11,0.98,-46.76,-0.012348543853451173,-0.4115285863344823,-0.7422023274575542,-0.5287981100673788,118.98353185364749,-24.6390786829898,136.65158298300105,9
1767651026.685525,1,left_wrist,-0.2289,-0.2469,-0.8721,-9.1,-29.68,10.71,-0.057423763437165536,0.4658926588634996,-0.8725581892324061,0.13523589838972433,-163.16566656643275,-1.4783764973680515,-124.01979660782443,9
1767651026.685525,2,right_wrist,0.8974,-0.1645,-0.1088,5.11,0.98,-46.76,-0.019014997402176995,-0.39763930089937544,-0.7507774146440299,-0.5271192369042109,118.80676448107782,-22.995235941093256,137.9024478730075,9
1767651026.769844,1,left_wrist,-0.2289,-0.2469,-0.8721,-9.1,-29.68,10.71,-0.0716183920377165,0.46313192435312295,-0.8747989467060635,0.122908215383948,-163.65646270454988,0.6565066121573134,-124.11086892484307,9
1767651026.769844,2,right_wrist,0.8974,-0.1645,-0.1088,5.11,0.98,-46.76,-0.03240917243651004,-0.3694079289474278,-0.767253457981277,-0.5232681518958763,118.56997472538376,-19.686091619246024,140.35193838776735,9
1767651026.82074,1,left_wrist,-0.2777,-0.0839,-1.018,-2.59,-37.38,12.74,-0.0880493566041171,0.4599305559394229,-0.8767704721585631,0.10947480836112425,-164.1359271017148,3.078065097915795,-124.21040190994349,9
1767651026.82074,2,right_wrist,0.8974,-0.1645,-0.1088,5.11,0.98,-46.76,-0.03913262028526016,-0.35506941780043594,-0.7751472234611476,-0.5210960837820053,118.50733123788426,-18.022080206012884,141.55591571247928,9
1767651026.871488,1,left_wrist,-0.3294,-0.0903,-0.9814,8.19,-0.14,-3.78,-0.09189093885711018,0.460625990181537,-0.8761351557958028,0.10847553320404492,-164.02325604847888,3.5020621848430906,-124.04230527350298,9
1767651026.871488,2,right_wrist,0.8974,-0.1645,-0.1088,5.11,0.98,-46.76,-0.04587072339639922,-0.3405849802429852,-0.7828065763622822,-0.518759686147583,118.48044466947229,-16.35259843605135,142.74940599043356,9
1767651026.923671,1,left_wrist,-0.2635,-0.3396,-1.0634,17.57,73.99,3.29,-0.07039453650522169,0.45385594727832435,-0.8784332618292885,0.13196360430916826,-162.79792575864164,0.22281647730464135,-125.31864287613197,9
1767651026.923671,2,right_wrist,0.8974,-0.1645,-0.1088,5.11,0.98,-46.76,-0.0526212410202813,-0.32595676378293253,-0.7902277584074692,-0.5162589301696867,118.48849072057524,-14.67824449025391,143.93479913688685,9
1767651026.977201,1,left_wrist,-0.1488,-0.266,-1.0394,13.58,107.87,3.85,-0.03525219507186157,0.4448296001206599,-0.8814613991274902,0.1546276542126807,-162.25223030129897,-4.325298388500554,-127.1200165864204,9
1767651026.977201,2,right_wrist,0.8974,-0.1645,-0.1088,5.11,0.98,-46.76,-0.05938189049219195,-0.3111870597827818,-0.7974069566430367,-0.5135937600892468,118.53081957248246,-12.999608652459044,145.11440285906988,9
1767651027.029102,1,left_wrist,0.0185,-0.1889,-0.8789,13.79,131.67,-7.77,0.012916680272893898,0.4382098401942128,-0.880475440364237,0.18046687852094515,-161.84343648657926,-10.422790385705458,-128.75112897310558,9
1767651027.029102,2,right_wrist,0.8974,-0.1645,-0.1088,5.11,0.98,-46.76,-0.06615034688839748,-0.29627830377405084,-0.8043403089299282,-0.5107640999030996,118.6069474481146,-11.317278811014612,146.2904586394658,9
1767651027.124483,1,left_wrist,0.205,-0.0673,-0.9579,10.22,118.44,-22.05,0.060767404726964104,0.4376027009052363,-0.8739600164735638,0.20249713155677052,-161.72205459884717,-16.465810474501968,-129.4713846503295,9
1767651027.124483,2,right_wrist,0.8974,-0.1645,-0.1088,5.11,0.98,-46.76,-0.07970116707633343,-0.26605410184054273,-0.8174538131371336,-0.504610941466842,118.85945538009354,-7.9439082281545685,148.64065045546994,9
1767651027.178607,1,left_wrist,0.3914,-0.3133,-0.7515,25.55,131.74,-34.72,0.16109572372379985,0.4378919790013812,-0.8403495645176471,0.2758829315835975,-157.93582807036117,-30.82164267279181,-131.10582421668215,9
1767651027.178607,2,right_wrist,0.8974,-0.1645,-0.1088,5.11,0.98,-46.76,-0.08647866608428953,-0.2507442530424345,-0.8236260424625214,-0.5012872450561638,119.03564298864389,-6.254078148016252,149.81906953066678,9
1767651027.2302132,1,left_wrist,0.4631,-0.2694,-0.4031,-2.31,161.14,-40.6,0.2271977747019533,0.43150678676018533,-0.8179843992277221,0.3050976675925972,-156.9026040220333,-39.4193836241981,-132.74795924600076,9
1767651027.2302132,2,right_wrist,0.8974,-0.1645,-0.1088,5.11,0.98,-46.76,-0.09325424162828223,-0.2353065481449236,-0.8295365909460656,-0.49779867326062105,119.2452376511509,-4.562985494369587,151.0025332437302,9
1767651027.3171468,1,left_wrist,0.7198,-0.0176,-0.5563,17.22,144.41,-25.13,0.28219876977233904,0.4232636094936809,-0.7936492460102992,0.33366546948199916,-154.807615965677,-46.919148058803444,-134.93462385180888,9
1767651027.3171468,2,right_wrist,0.8974,-0.1645,-0.1088,5.11,0.98,-46.76,-0.10678940858769602,-0.20406038504305793,-0.8405565092655723,-0.49032656077439324,119.76587203819732,-1.1796538164875916,153.393094019423,9
1767651027.372122,1,left_wrist,0.5851,-0.2523,-0.3396,2.17,146.16,-71.05,0.34378661828523926,0.4247562435312967,-0.7587331579069665,0.35456577635426584,-154.34622339277124,-55.375418067971594,-135.14420622617968,9
1767651027.372122,2,right_wrist,0.8974,-0.1645,-0.1088,5.11,0.98,-46.76,-0.11354378140773144,-0.1882587077244241,-0.8456577709887727,-0.48634288628072236,120.07788441296412,0.5111880167971944,154.60448835910884,9
1767651029.08092,1,left_wrist,0.4016,-0.2489,-0.7457,5.11,-84.7,16.31,0.11692945815650838,0.5433481450179174,-0.7989958377852934,0.22957775659368854,-164.5436441222273,-25.87018313332354,-115.13603067148605,10
1767651029.08092,2,right_wrist,0.8974,-0.1645,-0.1088,5.11,0.98,-46.76,-0.31583200954745744,0.38415219900177383,-0.8291283638113937,-0.25538869605124953,164.8959678335187,46.05008939596922,-136.73117228671728,10
1767651029.1628559,1,left_wrist,0.2918,-0.283,-0.9194,6.72,-75.32,20.37,0.08259394493515677,0.5435420718428224,-0.8076170511693639,0.21329546422125664,-164.11872530227842,-21.424733754656746,-115.14038094744939,10
1767651029.1628559,2,right_wrist,0.8974,-0.1645,-0.1088,5.11,0.98,-46.76,-0.3245865919378826,0.41712128074698596,-0.8153039748755831,-0.23650118400172812,170.37701948324184,46.59984654409817,-129.96236480668156,10
1767651029.2136772,1,left_wrist,0.1767,-0.2752,-0.8638,-9.66,-65.52,19.67,0.055448306022984374,0.5417641256534896,-0.8161428317582056,0.19320454364167633,-164.4785936524159,-17.44859738349514,-115.24292703513586,10
1767651029.2136772,2,right_wrist,0.8974,-0.1645,-0.1088,5.11,0.98,-46.76,-0.3287671178924191,0.43343313016448803,-0.807822153829673,-0.22687280941204538,173.17026557089645,46.70554330460803,-126.520510749315,10
1767651029.264891,1,left_wrist,0.185,-0.1718,-0.7408,-14.42,-47.88,16.73,0.038334772846415996,0.5396717095613317,-0.823030951876324,0.17293045811399352,-165.44911474140775,-14.462882349146641,-115.34942661321878,10
1767651029.264891,2,right_wrist,0.8974,-0.1645,-0.1088,5.11,0.98,-46.76,-0.3328117151370829,0.4496179245203238,-0.7999604148539982,-0.21712535292813848,175.97798237272636,46.695533844246114,-123.06036473142414,10
1767651029.317824,1,left_wrist,0.1264,-0.1484,-0.9599,-24.5,-65.03,2.8,0.01895252099467305,0.5432142509941995,-0.8268935456171357,0.14424334882925843,-167.17837736586785,-10.839211593120389,-114.61696010353704,10
1767651029.317824,2,right_wrist,0.8974,-0.1645,-0.1088,5.11,0.98,-46.76,-0.3367168509310626,0.46566660141311006,-0.7917189263182968,-0.2072619606605024,178.78388770474078,46.568778187262986,-119.5976952928507,10
1767651029.3740458,1,left_wrist,-0.06,-0.2708,-0.9257,4.83,-76.23,3.5,-0.04657458717929136,0.5479041145062699,-0.8266855329132596,0.11925987928930305,-165.60673319523684,-3.077167082920486,-113.3180308197449,10
1767651029.3740458,2,right_wrist,0.8974,-0.1645,-0.1088,5.11,0.98,-46.76,-0.3404790224616961,0.48157001195376825,-0.7830980994913582,-0.19728589767998686,-178.42831500513927,46.32519610816046,-116.14827325071276,10
1767651029.426234,1,left_wrist,-0.2235,0.0127,-1.0189,-9.38,-48.86,4.41,-0.06327489499942007,0.5488526258409019,-0.827586310352622,0.0992873692233462,-166.4792770756703,-0.24393137841996893,-112.92449234733168,10
1767651029.426234,2,right_wrist,0.8974,-0.1645,-0.1088,5.11,0.98,-46.76,-0.3440947611518915,0.4973189268997263,-0.7740985951915883,-0.18720054812296041,-175.6744245456166,45.965656987410604,-112.7273578446666,10
1767651029.4772742,1,left_wrist,-0.3148,-0.3387,-0.7627,9.45,-31.99,2.73,-0.08162626950006951,0.5483723182267417,-0.8268804056409296,0.09430666729994687,-165.78233948746507,1.8085547798342836,-112.6711772977888,10
1767651029.4772742,2,right_wrist,0.8974,-0.1645,-0.1088,5.11,0.98,-46.76,-0.3475606370960052,0.5129040430646437,-0.7647213303600296,-0.17700941512175988,-172.96926942983143,45.491932824082554,-109.34922247856142,10
1767651029.529969,1,left_wrist,-0.2294,-0.1225,-0.8677,25.13,-14.84,6.16,-0.09577947220831488,0.5454230203186198,-0.8271863212548803,0.09540865547123593,-164.76902520742777,3.1172124277316424,-112.783682579703,10
1767651029.529969,2,right_wrist,0.8974,-0.1645,-0.1088,5.11,0.98,-46.76,-0.35087326362571325,0.5283159900053935,-0.7549674845478861,-0.16671612055436932,-170.326309702746,44.906618941413946,-106.0267546668737,10
1767651029.583762,1,left_wrist,-0.4685,-0.2245,-1.0887,11.9,18.62,3.99,-0.09544260640830615,0.5421520070953443,-0.8287393664754334,0.10076195977836196,-164.28668873399567,2.8050321806782765,-113.22833245528082,10
1767651029.583762,2,right_wrist,0.8974,-0.1645,-0.1088,5.11,0.98,-46.76,-0.35402930200766064,0.5435453369878244,-0.7448385063105902,-0.15632440460711713,-167.7573374731491,44.213029464624505,-102.77115459811066,10
1767651029.668403,1,left_wrist,-0.2796,-0.2352,-1.0097,28.49,53.9,0.91,-0.0861169143307627,0.5375728491683144,-0.8301330880821628,0.12032607769881391,-162.9989863119243,0.7797586221859693,-114.03134321949221,10
1767651029.668403,2,right_wrist,0.8974,-0.1645,-0.1088,5.11,0.98,-46.76,-0.35985852819493575,0.5734182504422278,-0.7234623294501138,-0.13526125687632845,-162.8791612114004,42.517139317594165,-96.49588608615144,10
1767651029.7312589,1,left_wrist,-0.1205,-0.1005,-1.2576,1.75,101.78,-8.12,-0.03898018965173023,0.5290446202515119,-0.8326248187071884,0.15914850257061874,-162.06609873635955,-5.939690446434604,-116.07481696231503,10
1767651029.7312589,2,right_wrist,0.8974,-0.1645,-0.1088,5.11,0.98,-46.76,-0.3625253223759492,0.5880427206100274,-0.7122194290387052,-0.12459789032544734,-160.58404139644136,41.5239394756475,-93.48900155796487,10
1767651029.812803,1,left_wrist,-0.0093,-0.1981,-0.8096,30.03,126.56,-24.99,-0.0003635708414323951,0.5279772525159814,-0.8265687268503352,0.1949975087916113,-160.74539997602764,-11.847498362699367,-116.8791952530059,10
1767651029.812803,2,right_wrist,0.8974,-0.1645,-0.1088,5.11,0.98,-46.76,-0.367347791800452,0.6166197130805665,-0.6886369419000609,-0.10302859578924548,-156.30325294548,39.271616543189346,-87.7547845870077,10
1767651029.864692,1,left_wrist,0.1191,-0.0991,-0.7808,15.75,128.66,-32.83,0.04645514396153363,0.5287437356900377,-0.817016423887468,0.225291244095704,-160.36546705661675,-18.30962232385994,-117.3757236735846,10
1767651029.864692,2,right_wrist,0.8974,-0.1645,-0.1088,5.11,0.98,-46.76,-0.3694974984427555,0.6305529870642044,-0.6763034314713633,-0.0921314155378851,-154.32136697998718,38.02260559400139,-85.02975403557747,10
1767651029.9149692,1,left_wrist,0.2484,-0.1762,-0.6754,26.39,134.89,-32.83,0.09489321698609773,0.52783985425586,-0.8025727639545652,0.26126102692041836,-159.317412402758,-25.348651234042666,-118.03520441613375,10
1767651029.9149692,2,right_wrist,0.8974,-0.1645,-0.1088,5.11,0.98,-46.76,-0.3714690113908069,0.644236601966617,-0.6636129744737126,-0.0811652288421271,-152.4454704138262,36.69838404015027,-82.39871171294938,10
1767651029.9679081,1,left_wrist,0.4631,-0.244,-0.6656,25.34,126.77,-40.81,0.14179997566024702,0.5279104663892065,-0.7821962287627677,0.29895211337066663,-157.84867743954266,-32.511624646806744,-118.50208903393883,10
1767651029.9679081,2,right_wrist,0.8974,-0.1645,-0.1088,5.11,0.98,-46.76,-0.37325956118741904,0.6576609292714797,-0.6505693878986987,-0.07013468201298036,-150.67447703868538,35.303829303258425,-79.85973530910606,10
1767651030.032367,1,left_wrist,0.5714,-0.2572,-0.5734,-4.27,135.59,-46.13,0.2374269685551832,0.52007327525656,-0.7363981910290864,0.36175948807971803,-155.441270332426,-46.54913909799254,-120.23484545887418,10
1767651030.032367,2,right_wrist,0.8974,-0.1645,-0.1088,5.11,0.98,-46.76,-0.37486647500235026,0.670816355548578,-0.6371768098184055,-0.05904452622788502,-149.00649651063327,33.843649243168784,-77.41005361702996,10
1767651030.113954,1,left_wrist,0.6876,-0.1064,-0.3616,-4.41,129.29,-43.82,0.2900118462183105,0.5125870496350429,-0.7105556112210134,0.3850433338753201,-154.97569474918282,-53.791777121145365,-121.23239224007523,10
1767651030.113954,2,right_wrist,0.8974,-0.1645,-0.1088,5.11,0.98,-46.76,-0.3775192239361236,0.6962821857400452,-0.6093628669833933,-0.03670490051085133,-145.9691329956139,30.74421623062337,-72.76436120325499,10
1767651031.872138,1,left_wrist,0.3079,-0.1688,-0.8818,-9.8,-92.54,12.67,0.0763914664585322,0.6646995294547157,-0.7059037689767744,0.23246235897318854,-165.56170225082082,-24.638098368233045,-96.6129823893937,11
1767651031.872138,2,right_wrist,0.8974,-0.1645,-0.1088,5.11,0.98,-46.76,-0.2957123851101548,0.8908039586218354,0.03327526708981211,0.3433878990241686,-139.4606671836473,-39.15809959448365,-10.687782885202045,11
1767651031.9303901,1,left_wrist,0.0947,-0.1366,-0.9296,16.59,-62.23,6.93,0.02164508114055087,0.6729131832489347,-0.7142514105683448,0.19121783591844715,-165.23573663725116,-16.754176292467537,-95.599887965392,11
1767651031.9303901,2,right_wrist,0.8974,-0.1645,-0.1088,5.11,0.98,-46.76,-0.2902228535770252,0.8880205117875107,0.053245470532555676,0.3526403065079527,-140.6498192071899,-41.087418477500954,-8.401421962101914,11
1767651032.022325,1,left_wrist,0.1747,-0.0795,-0.9701,-14.0,-68.32,6.02,0.004688016925127419,0.6770116981026408,-0.7179075739577319,0.16199351339980356,-166.56994218876292,-13.066049072392657,-94.9035939459652,11
1767651032.022325,2,right_wrist,0.8974,-0.1645,-0.1088,5.11,0.98,-46.76,-0.278957937014095,0.8810096689995893,0.09282601838020403,0.37065855287279176,-143.41936817669685,-44.821194933974205,-3.49455436530102,11
1767651032.0735989,1,left_wrist,-0.0171,0.0,-0.8843,7.0,-39.55,3.92,-0.02690962442086941,0.6799281474769386,-0.7221908936637835,0.12415272647514462,-167.42226277919104,-7.467401950227847,-94.27707244131085,11
1767651032.0735989,2,right_wrist,0.8974,-0.1645,-0.1088,5.11,0.98,-46.76,-0.27320873876695206,0.8767965367699578,0.11239324014573307,0.3794108297599355,-145.0186154112626,-46.61427504279061,-0.8528873804364421,11
1767651032.13111,1,left_wrist,-0.1357,-0.3006,-0.9555,0.14,-35.84,7.7,-0.043074163795225266,0.6789446666072932,-0.7244056341853737,0.11142366561615175,-167.24421368629632,-5.100021643752457,-94.2812882971159,11
1767651032.13111,2,right_wrist,0.8974,-0.1645,-0.1088,5.11,0.98,-46.76,-0.2674004749839709,0.8721240327544901,0.13178248955380784,0.38798200076471623,-146.77393299199554,-48.349640832981976,1.9287969936956884,11
1767651032.217201,1,left_wrist,-0.2264,-0.0473,-1.0053,-7.28,-25.06,4.62,-0.050586567200411534,0.6787877297178703,-0.7261483793779503,0.09693682649083414,-167.8887271821511,-3.3326170858039044,-94.21508282503798,11
1767651032.217201,2,right_wrist,0.8974,-0.1645,-0.1088,5.11,0.98,-46.76,-0.2556664322778817,0.861450274963866,0.16993908753303633,0.40454765565927864,-150.79159612152583,-51.618208628608905,7.955016125674365,11
1767651032.268707,1,left_wrist,-0.2674,-0.1366,-0.998,23.94,-8.19,2.94,-0.06312934924486321,0.677447829792397,-0.7262734250932692,0.09801038300498108,-166.81529067121218,-2.355262262007585,-94.25646106552531,11
1767651032.268707,2,right_wrist,0.8974,-0.1645,-0.1088,5.11,0.98,-46.76,-0.24977099773188507,0.8554792560865103,0.18866345552262154,0.4125236861659621,-153.0716570124347,-53.13547238918498,11.219121299064344,11
1767651032.3280451,1,left_wrist,-0.4041,-0.1454,-1.0097,40.18,37.24,-6.09,-0.07773129903763464,0.6745467987296313,-0.7244404460537235,0.1188717863709062,-163.89406090579214,-2.736671678152921,-94.47234220656715,11
1767651032.3280451,2,right_wrist,0.8974,-0.1645,-0.1088,5.11,0.98,-46.76,-0.2438764172290109,0.8491094841672219,0.2071247501068993,0.4202817089881147,-155.54198677565404,-54.56324821990077,14.661154495856206,11
1767651032.3805928,1,left_wrist,-0.2625,-0.242,-1.0375,15.4,51.59,-4.76,-0.0686388053617359,0.6724089355277846,-0.7244795193335765,0.13521968749814267,-163.18886745898075,-4.726015807546258,-94.96828608691483,11
1767651032.3805928,2,right_wrist,0.8974,-0.1645,-0.1088,5.11,0.98,-46.76,-0.237996476503097,0.8423617867853094,0.2253045796382915,0.42781087378651866,-158.20671612185456,-55.89245056963183,18.286042569880646,11
1767651032.433207,1,left_wrist,-0.019,-0.1747,-1.0638,14.56,80.99,-3.92,-0.0466493839146247,0.6683514284925549,-0.7252174153965609,0.15871327423337767,-162.80274672948372,-8.30778184228466,-95.93181692020573,11
1767651032.433207,2,right_wrist,0.8974,-0.1645,-0.1088,5.11,0.98,-46.76,-0.23214342955190706,0.8352589973738921,0.2431868339729321,0.4350999875937264,-161.0664783153827,-57.113815133168295,22.09516436097003,11
1767651032.52,1,left_wrist,-0.0351,-0.285,-0.9853,15.89,99.05,-1.82,-0.023136399122678477,0.661009134506048,-0.725844672216497,0.18889452863999937,-161.80923381750483,-12.48213279205128,-97.35928595342183,11
1767651032.52,2,right_wrist,0.8974,-0.1645,-0.1088,5.11,0.98,-46.76,-0.22055591090409085,0.8200868445088129,0.27800918951688247,0.44891374246397375,-167.35001475733935,-59.196615542216506,30.247768152522283,11
1767651032.576403,1,left_wrist,0.2391,-0.2708,-0.7993,15.33,128.52,-15.33,0.045695698851876326,0.6449343906724406,-0.7171086643441663,0.2602435366285433,-159.93210364318617,-23.65431716129243,-100.31038330577583,11
1767651032.576403,2,right_wrist,0.8974,-0.1645,-0.1088,5.11,0.98,-46.76,-0.21483338315141665,0.8120685806799541,0.2949335623845281,0.4554178647520681,-170.74865659745558,-60.04114382987049,34.56738625758365,11
1767651032.628511,1,left_wrist,0.3426,-0.1576,-0.8296,14.98,138.11,-20.44,0.08908195958080084,0.6360837613452737,-0.7058506899584202,0.2987250517035952,-159.05448966267437,-30.38350512886998,-101.69914244383502,11
1767651032.628511,2,right_wrist,0.8974,-0.1645,-0.1088,5.11,0.98,-46.76,-0.20916106875330695,0.8037958395710066,0.3115294671914448,0.46164194640189443,-174.29083215649538,-60.74477265564194,39.0222900643364,11
1767651032.722193,1,left_wrist,0.3987,-0.2528,-0.5807,4.9,141.75,-34.23,0.13592410307197422,0.6258348383029552,-0.6878590384558335,0.3416216278062756,-157.65992375249684,-37.92218424896815,-103.16845033654238,11
1767651032.722193,2,right_wrist,0.8974,-0.1645,-0.1088,5.11,0.98,-46.76,-0.19795664436658608,0.786579415148694,0.3437472306691531,0.4732270406715445,178.316495554797,-61.70943304377063,48.21792371014008,11
1767651032.780478,1,left_wrist,0.5622,-0.2391,-0.2782,-10.29,169.26,-42.63,0.2325816223121134,0.5949111566727732,-0.6429314117316508,0.4226413425561621,-153.4823088397055,-53.31539195137785,-107.93579996581323,11
1767651032.780478,2,right_wrist,0.8974,-0.1645,-0.1088,5.11,0.98,-46.76,-0.19241278428886663,0.7776759990328934,0.35938301576114895,0.47858249963075206,174.54025395856232,-61.96541156441103,52.885507417146385,11
1767651034.519108,1,left_wrist,0.2738,-0.2503,-0.7213,24.57,-54.88,13.72,0.08156527483206832,0.7227978211133227,-0.6350712378548994,0.25999026632712235,-165.9993411980019,-28.64885455899689,-86.19876435132848,12
1767651034.519108,2,right_wrist,0.8974,-0.1645,-0.1088,5.11,0.98,-46.76,0.01922300671334945,0.37156815943514243,0.7661821356494056,0.5239585040044631,118.85096746496215,-21.095034024146962,140.81202873638884,12
1767651034.5709271,1,left_wrist,0.2372,-0.2225,-0.7349,2.03,-74.13,6.23,0.05565390370013811,0.7292251747759086,-0.64031985351034,0.23478452392880972,-166.04822598749578,-24.437109027899883,-85.60711979754905,12
1767651034.5709271,2,right_wrist,0.8974,-0.1645,-0.1088,5.11,0.98,-46.76,0.025931366477869675,0.357224743838592,0.774085233092351,0.5220249979937774,118.75458703635469,-19.43968235609589,142.0343529510613,12
1767651034.6304882,1,left_wrist,0.1279,-0.2186,-0.7496,1.75,-66.57,7.49,0.011438198392667008,0.739220782768247,-0.6471978749205497,0.18589435881530833,-166.48330099206115,-16.836374783226862,-84.4146575710325,12
1767651034.6304882,2,right_wrist,0.8974,-0.1645,-0.1088,5.11,0.98,-46.76,0.032658547566469416,0.3427368724829484,0.7817545226774968,0.5199276120622321,118.69498841300006,-17.77830697240276,143.24393869677291,12
1767651034.718525,1,left_wrist,0.163,-0.02,-0.8506,6.58,-63.56,3.64,-0.007128062925372203,0.7439298095096835,-0.6481192123910902,0.16266258257931013,-166.83769209812348,-13.460763192576762,-83.68548521491233,12
1767651034.718525,2,right_wrist,0.8974,-0.1645,-0.1088,5.11,0.98,-46.76,0.04616053579862323,0.31333623493506124,0.7963769313617884,0.5152411008511311,118.68236966051305,-14.439941807542663,145.63472230047665,12
1767651034.769454,1,left_wrist,0.0405,-0.1098,-0.8852,1.61,-57.82,8.12,-0.02566974314144953,0.7458437493461547,-0.6508459618008022,0.13949085939914221,-167.0971959657088,-10.059028412444132,-83.35821458057907,12
1767651034.769454,2,right_wrist,0.8974,-0.1645,-0.1088,5.11,0.98,-46.76,0.05293082050824811,0.29842806666682875,0.8033225381129236,0.5126518477735478,118.72791364730841,-12.764153210070056,146.8206083737192,12
1767651034.830303,1,left_wrist,-0.1503,-0.1596,-1.0673,10.78,-47.11,9.8,-0.06880750756976564,0.7452698733709144,-0.6550340739842282,0.10377236947936795,-166.17203541970187,-3.7001153511806817,-83.07473136944292,12
1767651034.830303,2,right_wrist,0.8974,-0.1645,-0.1088,5.11,0.98,-46.76,0.05971088094474465,0.283384638819626,0.8100193235434572,0.5098984728983531,118.80734965569793,-11.084754564418967,148.00316503802583,12
1767651034.918025,1,left_wrist,-0.1503,-0.1991,-0.8794,25.9,-24.78,11.41,-0.087788388357602,0.7419715989913651,-0.657268988224821,0.09883735264408743,-164.91060968413606,-1.7918077041804892,-83.30902586950401,12
1767651034.918025,2,right_wrist,0.8974,-0.1645,-0.1088,5.11,0.98,-46.76,0.07329082034694337,0.2529027974104137,0.8226509141872912,0.5038989026597235,119.06681797328959,-7.717529239980675,150.36701554697441,12
1767651034.969596,1,left_wrist,-0.2567,-0.0332,-0.9936,16.8,-31.36,18.34,-0.10329956139497572,0.7373069468180335,-0.6618013486409798,0.08790131811557493,-164.4142552843276,0.40720872304241973,-83.76610771453834,12
1767651034.969596,2,right_wrist,0.8974,-0.1645,-0.1088,5.11,0.98,-46.76,0.08008583725532308,0.2374701461621033,0.8285778766016602,0.5006524650485076,119.24668877798186,-6.030930060134556,151.55259681067702,12
1767651035.0214112,1,left_wrist,-0.1898,-0.202,-1.0834,22.19,1.19,1.61,-0.11134411785492324,0.7355893012540347,-0.6621507769792698,0.089817681140515,-163.5734507591951,0.8775385189243047,-83.85812196700974,12
1767651035.0214112,2,right_wrist,0.8974,-0.1645,-0.1088,5.11,0.98,-46.76,0.08688090486219015,0.2219137614950337,0.8342403424756067,0.49724143211888006,119.46012180148522,-4.343185989415045,152.74344973803036,12
1767651035.080988,1,left_wrist,-0.4285,-0.2455,-0.9726,2.45,46.69,6.51,-0.1014762941183554,0.7299502541437235,-0.6677805461465656,0.10461515375753719,-163.26725880978134,-0.985531760703817,-85.05137917808928,12
1767651035.080988,2,right_wrist,0.8974,-0.1645,-0.1088,5.11,0.98,-46.76,0.09367348240098178,0.20623689396221553,0.8396343290444319,0.4936656922997561,119.70740142346843,-2.6549601362390587,153.94170095902217,12
1767651035.1690009,1,left_wrist,-0.1737,-0.0737,-1.0087,10.71,69.51,3.57,-0.08420447429218485,0.7251162471980316,-0.671973936542121,0.12476803744030639,-163.11416021215217,-3.8862716134683164,-86.220349591869,12
1767651035.1690009,2,right_wrist,0.8974,-0.1645,-0.1088,5.11,0.98,-46.76,0.10724078091912133,0.17453546043476012,0.849600862090146,0.48601971471779215,120.30535788996575,0.7201335429195868,156.3689931404728,12
1767651035.220236,1,left_wrist,-0.1005,-0.1171,-0.8911,22.26,82.32,1.19,-0.0672198367342534,0.7192368125782899,-0.674532107531754,0.15227060415724553,-162.26369850410035,-7.3744503138074045,-87.47793188903395,12
1767651035.220236,2,right_wrist,0.8974,-0.1645,-0.1088,5.11,0.98,-46.76,0.11401019622433428,0.15851814638315773,0.8541653875034684,0.4819493367722237,120.65732552936365,2.4055076500238775,157.60241109656283,12
1767651035.279517,1,left_wrist,0.1078,-0.2699,-0.8745,32.13,97.65,-8.96,-0.027361639763156212,0.7083845824381801,-0.6721153540378202,0.213783944439175,-160.22429465134476,-15.432452658566506,-89.69598356368796,12
1767651035.279517,2,right_wrist,0.8974,-0.1645,-0.1088,5.11,0.98,-46.76,0.12076650970968825,0.14239485530189713,0.8584454019715088,0.47771398048420805,121.0457248813445,4.0883644366172005,158.8520045784033,12
1767651035.3702312,1,left_wrist,0.1674,-0.123,-0.9916,-0.42,102.76,-14.98,0.0058906110339581,0.7034500880722763,-0.6686733113775224,0.24083039040821286,-160.45569428496356,-20.285733410930927,-90.62591805008093,12
1767651035.3702312,2,right_wrist,0.8974,-0.1645,-0.1088,5.11,0.98,-46.76,0.13422872141916786,0.10984652503864802,0.8661358819341186,0.46874836032706874,121.93604063223108,7.443003809220687,161.40907206634466,12
1767651035.430038,1,left_wrist,0.3636,-0.1903,-0.7237,7.98,134.61,-24.71,0.08445615458813231,0.6889537823826424,-0.647313135311508,0.3149532481909366,-159.6918789356226,-32.90963396620152,-92.48633534238094,12
1767651035.430038,2,right_wrist,0.8974,-0.1645,-0.1088,5.11,0.98,-46.76,0.1409289513738429,0.09342996362031303,0.8695383726449333,0.4640182012169105,122.44045856881564,9.112869696905198,162.7214174737385,12
1767651035.519226,1,left_wrist,0.5241,-0.3011,-0.611,3.08,146.23,-25.13,0.12844456902091042,0.6733523605731798,-0.6317131684684043,0.36199041973948476,-158.0306687385577,-40.52459917778902,-94.54221412739109,12
1767651035.519226,2,right_wrist,0.8974,-0.1645,-0.1088,5.11,0.98,-46.76,0.15425315037681964,0.06033440992593435,0.8754380763485633,0.45406376100371926,123.57528866671069,12.432355194238415,165.4266109152452,12
1767651035.5739279,1,left_wrist,0.5783,-0.1845,-0.3738,7.28,138.11,-36.05,0.21097538402420377,0.6428671471395946,-0.5877503120298919,0.4435772640399906,-154.19834126259977,-54.91738949685908,-98.44637683351108,12
1767651035.5739279,2,right_wrist,0.8974,-0.1645,-0.1088,5.11,0.98,-46.76,0.160871181629674,0.043664832221461274,0.8779274644031438,0.4488398518344942,124.20919992841056,14.079585075881443,166.82493671937817,12
1767651035.631142,1,left_wrist,0.6695,-0.141,-0.202,-38.29,132.37,-61.25,0.26920982333674914,0.6270448751278669,-0.5628530058368989,0.4664089293905533,-155.9499230683479,-62.619227980614916,-98.58866215284303,12
1767651035.631142,2,right_wrist,0.8974,-0.1645,-0.1088,5.11,0.98,-46.76,0.16745580198602575,0.02692059272942207,0.8801047215334638,0.4434518183555207,124.89006991208106,15.71671679278185,168.25760569739253,12
1767651037.282138,1,left_wrist,0.305,-0.1625,-0.8164,4.27,-84.49,6.37,0.04621969290825768,0.7828354387472442,-0.5502835126621871,0.28674112282866027,-163.69188554117966,-29.987436803176212,-74.60495969343516,13
1767651037.282138,2,right_wrist,0.8974,-0.1645,-0.1088,5.11,0.98,-46.76,0.34407917631936374,-0.5260770080258828,0.7566546086401523,0.17979517589062646,-172.66367681904987,45.22437213283175,-107.32166571689334,13
1767651037.363023,1,left_wrist,0.3152,-0.2084,-0.6871,11.34,-55.09,9.03,0.024868905255586514,0.7879028400551031,-0.5541010519550177,0.26751201170570615,-163.26528472143224,-26.686386508460917,-74.23050415458214,13
1767651037.363023,2,right_wrist,0.8974,-0.1645,-0.1088,5.11,0.98,-46.76,0.3507614206572316,-0.5564094438783836,0.7362210442036062,0.15922792033189412,-167.50165895025629,43.921146242854164,-100.78219007070972,13
1767651037.41981,1,left_wrist,0.0478,-0.1518,-0.8516,-0.42,-62.37,4.9,0.007500680273181314,0.7943913689376638,-0.5572863781793604,0.2414911705394523,-163.7620668454808,-23.081310554323185,-73.43840757033094,13
1767651037.41981,2,right_wrist,0.8974,-0.1645,-0.1088,5.11,0.98,-46.76,0.3538666561623293,-0.571282053914387,0.7254475626749366,0.14879865033274053,-165.0419757395715,43.11268440278392,-97.62231323551413,13
1767651037.48368,1,left_wrist,0.08,-0.0981,-0.8862,-6.65,-64.96,10.5,-0.039122230226366676,0.8040066704621761,-0.5623266313395447,0.1892920617478738,-163.40225958209007,-15.092920764812476,-72.15235987764852,13
1767651037.48368,2,right_wrist,0.8974,-0.1645,-0.1088,5.11,0.98,-46.76,0.35681027156264145,-0.585946264448844,0.7143057749802566,0.13827749316390725,-162.67404009667425,42.205340497151454,-94.54569046126394,13
1767651037.5692182,1,left_wrist,-0.0551,-0.0439,-0.8359,31.36,-50.4,11.13,-0.06343764116560152,0.8052276821192679,-0.5632583700462391,0.17413803204650555,-162.23770240941687,-12.06246500346439,-71.8374180886729,13
1767651037.5692182,2,right_wrist,0.8974,-0.1645,-0.1088,5.11,0.98,-46.76,0.36219992688387925,-0.6146113115095901,0.6909274945689218,0.11697583501940256,-158.23487237965608,40.11299628716656,-88.6609578260734,13
1767651037.6370828,1,left_wrist,-0.0224,-0.0849,-0.7925,20.58,-25.34,2.94,-0.09112283696406191,0.8088625651386658,-0.5628036841553079,0.14384016268807245,-161.82190107855465,-7.476833513954091,-70.85790291058898,13
1767651037.6370828,2,right_wrist,0.8974,-0.1645,-0.1088,5.11,0.98,-46.76,0.3646397826784611,-0.6285930088998302,0.6786968510215852,0.10620377801117457,-156.17012743816383,38.937895354631586,-85.85790458394945,13
1767651037.719875,1,left_wrist,-0.1991,-0.1566,-0.895,-3.22,-26.74,-5.74,-0.09732329238910462,0.8121068844228098,-0.5606718350555258,0.1290646287992616,-162.28151714187646,-5.76771517595722,-70.14149045688161,13
1767651037.719875,2,right_wrist,0.8974,-0.1645,-0.1088,5.11,0.98,-46.76,0.36899466856516405,-0.6558068406554896,0.6531694658508592,0.08443915679383172,-152.35572601810617,36.3547946025284,-80.53200155325688,13
1767651037.778086,1,left_wrist,-0.3689,-0.2733,-0.9794,10.85,-31.85,0.49,-0.12025097182097602,0.8159042943033885,-0.5570775177758285,0.09749115602003078,-162.24526705034086,-1.438772593734651,-68.87315662214233,13
1767651037.778086,2,right_wrist,0.8974,-0.1645,-0.1088,5.11,0.98,-46.76,0.3709040012870431,-0.6690198236342307,0.639880424459578,0.07345569962306547,-150.60479031908278,34.95654907733375,-78.0062227783091,13
1767651037.86923,1,left_wrist,-0.3138,-0.144,-0.9091,24.43,-11.41,11.06,-0.13318828172337266,0.8122385977274099,-0.5600707683738589,0.09407484459993357,-161.23177888416015,-0.20813958959040182,-69.21000864467199,13
1767651037.86923,2,right_wrist,0.8974,-0.1645,-0.1088,5.11,0.98,-46.76,0.3741729132274137,-0.6946101914339351,0.6122732980939746,0.05131005168725785,-147.40613730017333,31.96986372221517,-73.21523963063905,13
1767651037.929534,1,left_wrist,-0.2713,-0.2728,-1.1502,10.78,46.06,0.49,-0.13031959473485064,0.8038992511364771,-0.569145661460598,0.11329613096188984,-160.20320122729646,-1.9378655213612623,-70.93374962472036,13
1767651037.929534,2,right_wrist,0.8974,-0.1645,-0.1088,5.11,0.98,-46.76,0.37552738963280474,-0.7069685833570147,0.597964856582932,0.04015759048425203,-145.9530328710257,30.39009655775948,-70.94271293929572,13
1767651037.9810948,1,left_wrist,-0.2713,-0.2728,-1.1502,10.78,46.06,0.49,-0.1237253860791506,0.8006805353433148,-0.5721830869105086,0.12731545159747615,-159.84911943648248,-3.571315534703021,-71.73555676690928,13
1767651037.9810948,2,right_wrist,0.8974,-0.1645,-0.1088,5.11,0.98,-46.76,0.37669199876156384,-0.7190231982590152,0.583326814809794,0.028958687094815243,-144.59326408284105,28.758120573787924,-68.74663195830523,13
1767651038.06833,1,left_wrist,-0.1806,-0.1479,-0.9975,9.38,93.1,-17.71,-0.10234859371629453,0.7990794635490985,-0.5709569870995916,0.1581293621707827,-159.67411609413335,-7.807343999989217,-72.4946601456273,13
1767651038.06833,2,right_wrist,0.8974,-0.1645,-0.1088,5.11,0.98,-46.76,0.37844270533412294,-0.7421837261526326,0.5530849259184345,0.006442059871192453,-142.14034426238078,25.35238603609879,-64.56587590532243,13
1767651038.126982,1,left_wrist,-0.0205,-0.2284,-0.8735,6.65,125.3,-10.36,-0.04240629547599653,0.7886526086819744,-0.5700934247390866,0.22632334389624606,-160.02467121615445,-17.97668073295008,-74.91527211721187,13
1767651038.126982,2,right_wrist,0.8974,-0.1645,-0.1088,5.11,0.98,-46.76,0.3790246781700352,-0.7532711492284123,0.5374934408815111,-0.004865191420889575,-141.04043789465393,23.585489179379472,-62.5719923285684,13
1767651038.177079,1,left_wrist,0.1752,-0.1674,-0.8374,4.27,125.65,-1.75,-0.011270800397869502,0.7765233529332652,-0.5712113039183766,0.2657105524504793,-159.49635717883717,-23.564731041997867,-76.99750204776335,13
1767651038.177079,2,right_wrist,0.8974,-0.1645,-0.1088,5.11,0.98,-46.76,0.3794085494589224,-0.7640178383279419,0.5215970876001558,-0.01619794805556252,-140.02049916040528,21.78012562555009,-60.63626650829775,13
1767651038.229228,1,left_wrist,0.2318,-0.1425,-0.7496,15.4,143.78,-12.04,0.02184310988349643,0.7625895879079478,-0.5655564449744881,0.31325054910218847,-158.20538949398534,-30.163564608601597,-79.0629394408207,13
1767651038.229228,2,right_wrist,0.8974,-0.1645,-0.1088,5.11,0.98,-46.76,0.3795926213378167,-0.7744147959651297,0.5054029288652315,-0.027550773321577838,-139.0773839141512,19.939212534178345,-58.75411375484251,13
1767651038.323178,1,left_wrist,0.408,-0.1425,-0.6871,11.27,139.09,-22.61,0.058920981284041725,0.7493420926999879,-0.553681035049255,0.35840208913915944,-157.2577737023001,-37.04042878536329,-80.62895737234635,13
1767651038.323178,2,right_wrist,0.8974,-0.1645,-0.1088,5.11,0.98,-46.76,0.37935538527469187,-0.7941241421779691,0.4721512456788456,-0.050294529296030774,-137.40993672863075,16.161515717980077,-55.132566766031225,13
1767651038.4150689,1,left_wrist,0.5963,-0.2259,-0.4968,-0.77,138.39,-27.37,0.1396219315712052,0.7117631404335634,-0.5197512108458056,0.4513952004272931,-153.9571342648194,-51.972044297455994,-85.13907763592282,13
1767651038.4150689,2,right_wrist,0.8974,-0.1645,-0.1088,5.11,0.98,-46.76,0.37830274930653773,-0.8123298452868386,0.43780213840010507,-0.07305162514052042,-136.0168370477263,12.272386303969997,-51.67238156615622,13
1767651038.482055,1,left_wrist,0.7242,0.1688,-0.1576,-29.54,105.7,-55.23,0.23670804019491598,0.6793688135233297,-0.482246321264735,0.4998657865323606,-157.53879292369425,-65.16070805293752,-85.20076200559168,13
1767651038.482055,2,right_wrist,0.8974,-0.1645,-0.1088,5.11,0.98,-46.76,0.3774682737393703,-0.8208478448247156,0.42023758358756313,-0.08442091747502628,-135.41753155412394,10.291674888646877,-49.99230970014726,13
1767651040.177354,1,left_wrist,0.4104,-0.2069,-0.8784,8.61,-102.13,11.41,0.016814833141289943,0.8507402779981905,-0.4388246770714396,0.2887752475042462,-164.88932212147014,-30.404599109962216,-58.69904472096419,14
1767651040.177354,2,right_wrist,0.8974,-0.1645,-0.1088,5.11,0.98,-46.76,0.24217582006709037,-0.8389705368290442,-0.23949617025333697,-0.42440652085188585,-158.7599345080443,-55.907068762292674,20.49938139580601,14
1767651040.231116,1,left_wrist,0.4431,-0.1327,-0.8574,7.98,-81.69,8.19,-0.0006139298533463138,0.8602253706649011,-0.4410106550392472,0.25597175019213053,-165.37020222096794,-26.09401033204293,-57.69332654748157,14
1767651040.231116,2,right_wrist,0.8974,-0.1645,-0.1088,5.11,0.98,-46.76,0.23645644338905203,-0.8315813827281734,-0.25724816315511895,-0.4317222913320745,-161.6307875548849,-57.10638722930666,24.322339011055792,14
1767651040.315808,1,left_wrist,0.1542,-0.2318,-0.8408,21.7,-91.7,5.67,-0.02961241602924269,0.8690683081775216,-0.4413279658476723,0.22152428105994892,-164.6549651641046,-21.032772619168192,-56.709627585653244,14
1767651040.315808,2,right_wrist,0.8974,-0.1645,-0.1088,5.11,0.98,-46.76,0.22512486075343285,-0.8158581603320236,-0.2917981792545116,-0.4455873448316786,-167.9245120796311,-59.14346017753488,32.490801089218785,14
1767651040.3767612,1,left_wrist,0.1649,-0.202,-0.9238,-0.07,-76.58,9.24,-0.06256066631462337,0.8792078580756199,-0.44670852035869735,0.15339883691636727,-165.35038730820253,-12.347842875574933,-55.46178539702495,14
1767651040.3767612,2,right_wrist,0.8974,-0.1645,-0.1088,5.11,0.98,-46.76,0.21952334194685955,-0.8075748279476419,-0.30858227540934813,-0.45211655456199357,-171.32063197228106,-59.964783954793745,36.81082039407949,14
1767651040.430072,1,left_wrist,0.2699,-0.223,-0.9135,0.84,-54.39,8.89,-0.07082685269970819,0.8809484766939873,-0.44768384546597545,0.13598717901329424,-165.49491607734197,-10.147294594021592,-55.17257708857897,14
1767651040.430072,2,right_wrist,0.8974,-0.1645,-0.1088,5.11,0.98,-46.76,0.21396669100908094,-0.7990434906899169,-0.32503624474948767,-0.45836578703460024,-174.85432939298198,-60.64536924039643,41.26022908743211,14
1767651040.481333,1,left_wrist,0.0605,-0.08,-0.956,-1.26,-59.92,2.94,-0.07985174061239787,0.8842700488970278,-0.4471802994008778,0.10825876395267106,-166.12660307236715,-6.894625469517422,-54.49177801434324,14
1767651040.481333,2,right_wrist,0.8974,-0.1645,-0.1088,5.11,0.98,-46.76,0.20845263335399833,-0.7902872791422151,-0.3411626905387812,-0.4643291232069317,-178.49612676059616,-61.18010202606791,45.810117083405856,14
1767651040.569201,1,left_wrist,-0.205,-0.2123,-0.9692,-13.23,-42.35,2.87,-0.08502956409953032,0.8859573843810279,-0.4479666188338669,0.08470770154079534,-166.8689552206416,-4.238826732683603,-54.13314219624003,14
1767651040.569201,2,right_wrist,0.8974,-0.1645,-0.1088,5.11,0.98,-46.76,0.19753038854694116,-0.7721810497657435,-0.3724596653909773,-0.4753861268905625,174.0399111872065,-61.80109971291863,55.06963312175025,14
1767651040.6294441,1,left_wrist,-0.0839,-0.0639,-0.8208,8.12,-21.07,7.77,-0.0918838789385328,0.8843741259020196,-0.4528135294092613,0.06632997670869353,-167.13120114454503,-1.9546524140068637,-54.44678663470247,14
1767651040.6294441,2,right_wrist,0.8974,-0.1645,-0.1088,5.11,0.98,-46.76,0.1921065363525029,-0.7628642821153275,-0.38764970178799474,-0.4804798377320208,170.29757141177518,-61.88723369108673,59.70056274912886,14
1767651040.714977,1,left_wrist,-0.1928,-0.1747,-0.9121,4.97,-15.05,7.56,-0.09858641885790541,0.8829497755238627,-0.45550104368671385,0.05656156928028642,-166.95990460997106,-0.5769562734610245,-54.643052558844964,14
1767651040.714977,2,right_wrist,0.8974,-0.1645,-0.1088,5.11,0.98,-46.76,0.18128685597693076,-0.7437637176706868,-0.4171723266094256,-0.48981410559308824,162.9919223341041,-61.626400950740845,68.76792822214529,14
1767651040.777438,1,left_wrist,-0.2133,-0.1479,-0.9672,8.26,0.49,1.61,-0.11017700616029255,0.8807023878544457,-0.45789891720746606,0.05052635907388023,-166.09249089665695,0.68197874485512,-54.85889138276738,14
1767651040.777438,2,right_wrist,0.8974,-0.1645,-0.1088,5.11,0.98,-46.76,0.17587197513973182,-0.7339954661711039,-0.431529999827633,-0.49406635510776936,159.49925688195137,-61.29127153672867,73.13493623165117,14
1767651040.867111,1,left_wrist,-0.2557,-0.1083,-0.9931,17.78,26.6,-6.37,-0.11143789009932378,0.8804796100135115,-0.45691487993559216,0.05971637542675626,-165.47457672754524,-0.19038514683081292,-54.87734758117083,14
1767651040.867111,2,right_wrist,0.8974,-0.1645,-0.1088,5.11,0.98,-46.76,0.1649885931744123,-0.7140444205101724,-0.45949750868180145,-0.5017782071551515,152.96854754848732,-60.25100905112586,81.40447017452995,14
1767651040.925029,1,left_wrist,-0.081,-0.1186,-1.1039,4.62,79.52,-6.72,-0.08938547008237716,0.8781419405186438,-0.4579398584542801,0.10567902383716912,-165.21740114000966,-5.954348564621614,-55.856036247538434,14
1767651040.925029,2,right_wrist,0.8974,-0.1645,-0.1088,5.11,0.98,-46.76,0.15950534295269927,-0.70386488763005,-0.47312838621618947,-0.5052541891835663,149.96460318862853,-59.56386751159435,85.27420924516063,14
1767651041.0138829,1,left_wrist,0.059,-0.1928,-1.0316,-11.2,70.56,-15.68,-0.06792326225522498,0.8785856141894001,-0.45542417819381,0.12673818248868582,-166.23801977717108,-9.25524377838688,-55.920180836809735,14
1767651041.0138829,2,right_wrist,0.8974,-0.1645,-0.1088,5.11,0.98,-46.76,0.1484265603164611,-0.683097263661675,-0.4997282573966477,-0.5114873931289665,144.5186403590899,-57.90164415077613,92.44788770155903,14
1767651041.067988,1,left_wrist,0.019,-0.143,-0.8965,28.7,85.68,-14.84,-0.06088317759171022,0.875831807434886,-0.4509888180304332,0.1606890468675124,-165.03071487473295,-13.094504746866177,-56.218008358733876,14
1767651041.067988,2,right_wrist,0.8974,-0.1645,-0.1088,5.11,0.98,-46.76,0.1428223593202235,-0.6725067880798513,-0.5127111926408044,-0.5142602712689079,142.07720390089435,-56.94425684213446,95.75261148335555,14
1767651041.124916,1,left_wrist,0.2586,-0.1693,-0.8135,15.75,118.37,-0.98,-0.02655839605007208,0.8575116094722759,-0.45027923559956085,0.2474208988897055,-162.9702366356122,-23.604137067991168,-58.99152245653794,14
1767651041.124916,2,right_wrist,0.8974,-0.1645,-0.1088,5.11,0.98,-46.76,0.13717066714681017,-0.6617762999977322,-0.5254901889669891,-0.5168136977047422,139.81780271188092,-55.913641472444084,98.87583863912188,14
1767651041.17567,1,left_wrist,0.3484,-0.1532,-0.8106,10.99,115.78,-11.9,-0.0028941519685035935,0.8473227980043962,-0.445034998079053,0.28979225378046547,-162.4684527106364,-29.243297226097894,-60.0263814113629,14
1767651041.17567,2,right_wrist,0.8974,-0.1645,-0.1088,5.11,0.98,-46.76,0.13146924655538328,-0.6509038947294671,-0.5380694916814727,-0.5191542922463537,137.73309265684347,-54.81723762363513,101.82560707930752,14
1767651041.227644,1,left_wrist,0.4577,-0.0903,-0.6993,1.68,116.34,-26.04,0.027079797268643634,0.8372587574229813,-0.43351578043873207,0.3321573810846472,-162.67557359002487,-35.42820682915063,-60.320211277999114,14
1767651041.227644,2,right_wrist,0.8974,-0.1645,-0.1088,5.11,0.98,-46.76,0.12571652188506632,-0.6398876340450855,-0.5504524205683312,-0.5212881205358216,135.81423533241423,-53.661816740915214,104.61145224617302,14
1767651041.278201,1,left_wrist,0.5046,-0.1835,-0.5309,-4.27,126.28,-36.96,0.059287202285632515,0.8233268406159956,-0.4173513657968603,0.38004707423412765,-162.6778544376269,-42.47691551291538,-60.53771405352986,14
1767651041.278201,2,right_wrist,0.8974,-0.1645,-0.1088,5.11,0.98,-46.76,0.11991148496645355,-0.6287256309642338,-0.562641467404126,-0.5232206952129262,134.05154414066476,-52.453485855496645,107.24376132855323,14
1767651041.331245,1,left_wrist,0.7315,0.02,-0.6666,-18.9,106.61,-28.56,0.09459650672589895,0.810023400063989,-0.40520819064673874,0.4131826648067751,-164.1743489678629,-48.24831678043879,-60.275717450754854,14
1767651041.331245,2,right_wrist,0.8974,-0.1645,-0.1088,5.11,0.98,-46.76,0.11405360963358802,-0.6174161093864534,-0.5746383890455121,-0.524956992366825,132.43498280414246,-51.19771479764872,109.73327547169477,14
1767651041.414051,1,left_wrist,0.6573,-0.0151,-0.5339,18.55,105.7,-43.33,0.1187736545800051,0.7992083553325918,-0.3797618641224119,0.45048834646698027,-164.93647289374076,-54.12324928315008,-58.56013268664272,14
1767651041.414051,2,right_wrist,0.8974,-0.1645,-0.1088,5.11,0.98,-46.76,0.10217920592896484,-0.5943481886107946,-0.5980597171619753,-0.5278581393508407,129.6004523196104,-48.56280392643296,114.32656403456778,14
1767651043.16927,1,left_wrist,0.4587,-0.2094,-0.5734,17.5,-57.12,16.03,-0.026283115694302715,0.9047614168762478,-0.30035296116910454,0.3008389520631176,-164.4003409185477,-31.910001997891523,-41.21449625414124,15
1767651043.16927,2,right_wrist,0.8974,-0.1645,-0.1088,5.11,0.98,-46.76,-0.12820718995225974,-0.09543056667074692,-0.8687489543447285,-0.4687549228694948,122.16872881653136,7.659902445521815,163.22697835014546,15
1767651043.223553,1,left_wrist,0.3684,-0.0971,-0.7291,18.2,-54.46,9.52,-0.05100793597550533,0.920707331389266,-0.3051705529022223,0.23783846205970774,-164.8274151182114,-24.005666592052982,-39.9197256165786,15
1767651043.223553,2,right_wrist,0.8974,-0.1645,-0.1088,5.11,0.98,-46.76,-0.13494497865765265,-0.0789371006043248,-0.8718767493514042,-0.4641009812785325,122.67928648736135,9.32539507438451,164.5484096213528,15
1767651043.275371,1,left_wrist,0.2577,-0.1288,-0.8213,-9.31,-65.59,8.61,-0.05524866502139552,0.927192619781351,-0.30816307135299537,0.20566222864356407,-165.85220034313716,-20.32383633902293,-39.31806243447412,15
1767651043.275371,2,right_wrist,0.8974,-0.1645,-0.1088,5.11,0.98,-46.76,-0.1416602647833836,-0.062359607250385904,-0.8747018897640753,-0.45928232364008403,123.23157799973947,10.984280506083095,165.89612559778058,15
1767651043.3291671,1,left_wrist,0.08,-0.143,-1.039,2.94,-66.57,4.83,-0.0656986752111133,0.9328034698979198,-0.3086401333740309,0.1740765311372152,-166.11847147354396,-16.51126707603375,-38.6398619930502,15
1767651043.3291671,2,right_wrist,0.8974,-0.1645,-0.1088,5.11,0.98,-46.76,-0.14835010040831753,-0.04570280038163973,-0.8772205215854773,-0.454299084585718,123.82728115783705,12.63539164039064,167.27281853867314,15
1767651043.380148,1,left_wrist,0.1698,-0.1893,-0.8603,-24.78,-45.29,2.31,-0.06235431608753372,0.9369335417997721,-0.3106856088669701,0.14745144949694744,-167.6073873724477,-13.742529398521322,-38.18999956949898,15
1767651043.380148,2,right_wrist,0.8974,-0.1645,-0.1088,5.11,0.98,-46.76,-0.15501149283600685,-0.028971550486669145,-0.8794288275048615,-0.4491514485166175,124.46824711025462,14.277468130692116,168.68129772178892,15
1767651043.471148,1,left_wrist,0.1508,-0.144,-0.7457,60.97,-51.31,6.23,-0.09371117038261184,0.9377805351607704,-0.3081190123940338,0.1298019977520579,-164.91348667237713,-10.702132501758951,-37.798357380932465,15
1767651043.471148,2,right_wrist,0.8974,-0.1645,-0.1088,5.11,0.98,-46.76,-0.16823675633931098,0.004694010525443937,-0.8828994108229339,-0.4383639931040534,125.89426729872682,17.528949287766043,171.60549386654031,15
1767651043.524705,1,left_wrist,0.0346,-0.2396,-0.954,0.91,-35.56,4.9,-0.11232779040900424,0.9406010298400269,-0.3083477869546571,0.08702765334005697,-164.56347901551737,-5.419351105207217,-37.03537413836255,15
1767651043.524705,2,right_wrist,0.8974,-0.1645,-0.1088,5.11,0.98,-46.76,-0.17479442287568894,0.021617794019274664,-0.8841542898162771,-0.43272482308364235,126.6839311484229,19.135273849466937,173.12749610585308,15
1767651043.621139,1,left_wrist,-0.06,-0.0298,-1.0209,-3.22,-57.05,5.18,-0.11572807377845894,0.9424577216242169,-0.30804846846763345,0.05904741285749133,-165.24298074640197,-2.292423773306027,-36.49753592487865,15
1767651043.621139,2,right_wrist,0.8974,-0.1645,-0.1088,5.11,0.98,-46.76,-0.18778399613115926,0.055619866077134664,-0.885685170869806,-0.42095769311879416,128.42949350012196,22.300375459909052,176.30812344325588,15
1767651043.6725838,1,left_wrist,-0.2499,-0.0932,-0.8135,-6.37,-19.11,-3.99,-0.11521409585016325,0.9438661195821529,-0.30619337103217703,0.04569551354684513,-165.78820397062307,-0.8998849357757388,-36.058660408487334,15
1767651043.6725838,2,right_wrist,0.8974,-0.1645,-0.1088,5.11,0.98,-46.76,-0.1942094476818826,0.07268668203639356,-0.8859541558654616,-0.4148307731959571,129.39112189595062,23.855204924644074,177.97392701006208,15
1767651043.727239,1,left_wrist,-0.0727,-0.081,-0.9511,18.13,-23.59,8.05,-0.13003769650358196,0.9418212803216431,-0.3090814738762082,0.023054629206600646,-164.96712348700208,2.1180085904407298,-36.05751541831162,15
1767651043.727239,2,right_wrist,0.8974,-0.1645,-0.1088,5.11,0.98,-46.76,-0.2005843063041719,0.08978944127619788,-0.8858876201429539,-0.40854242959236897,130.41610105380565,25.388632342357926,179.69509023927054,15
1767651043.778145,1,left_wrist,-0.325,-0.1669,-0.9292,14.84,1.61,4.34,-0.13617595938583074,0.9402341370219536,-0.31142892130086164,0.020685807726860593,-164.3807801193658,2.631905229085207,-36.29127025692355,15
1767651043.778145,2,right_wrist,0.8974,-0.1645,-0.1088,5.11,0.98,-46.76,-0.20690524708070815,0.10692201590139419,-0.885482256210214,-0.40209336625082737,131.5077284823306,26.898227251497413,-178.52443881577116,15
1767651043.82905,1,left_wrist,-0.2064,-0.0512,-1.1234,22.96,29.68,6.72,-0.13840653529983882,0.9379655951250441,-0.3163096321674555,0.031818075776284434,-163.74704174593398,1.5970470326629809,-37.043182924532154,15
1767651043.82905,2,right_wrist,0.8974,-0.1645,-0.1088,5.11,0.98,-46.76,-0.2131689085001305,0.12407812259629074,-0.8847348485154597,-0.3954843660173807,132.6694459847356,28.381348984780825,-176.68059258332556,15
1767651043.914124,1,left_wrist,-0.1781,-0.2401,-1.2019,16.87,59.85,-5.25,-0.13541996621079633,0.9367490198772097,-0.3181529928897878,0.05423448742105139,-163.2465976903849,-0.8846631231072195,-37.64886733875302,15
1767651043.914124,2,right_wrist,0.8974,-0.1645,-0.1088,5.11,0.98,-46.76,-0.22551077325460947,0.15843502774212373,-0.8822015384338651,-0.38179009771781974,135.21746009728918,31.256467168049653,-172.7860722323709,15
1767651043.9697611,1,left_wrist,0.0015,-0.0712,-1.0799,-4.9,84.77,-12.81,-0.11670462658372859,0.9368297974503476,-0.3180558329082569,0.08700832084420637,-164.03213311003523,-5.093816476343773,-38.21982640810514,15
1767651043.9697611,2,right_wrist,0.8974,-0.1645,-0.1088,5.11,0.98,-46.76,-0.23158208451259954,0.17562249199202853,-0.8804097235043649,-0.37470681498776726,136.61105263411957,32.641995724070114,-170.72695412122124,15
1767651044.0237598,1,left_wrist,0.0932,-0.0859,-0.8638,-17.22,125.09,-14.7,-0.07006811367881229,0.9306101439589852,-0.3160881616730557,0.1707146550717837,-165.65398691187397,-15.869199574417781,-39.53063161615147,15
1767651044.0237598,2,right_wrist,0.8974,-0.1645,-0.1088,5.11,0.98,-46.76,-0.2375823358109739,0.19280682278220282,-0.8782640530287986,-0.36746757129937535,138.08920838986754,33.9880899815803,-168.58768743075746,15
1767651044.080668,1,left_wrist,0.2235,-0.2625,-0.8316,17.15,140.07,-3.36,-0.062173266220446756,0.9178866350305679,-0.3178821342109908,0.22928052457460987,-163.67088235389906,-22.41915933763931,-41.461240232922016,15
1767651044.080668,2,right_wrist,0.8974,-0.1645,-0.1088,5.11,0.98,-46.76,-0.2435080072399535,0.20998097785650383,-0.8757618699105375,-0.36007358492293207,139.65542050789043,35.29084864261264,-166.36424464683245,15
1767651044.167306,1,left_wrist,0.4548,-0.1244,-0.7828,-13.79,139.02,-0.56,-0.03305103175818281,0.9026602145095571,-0.3210028859983287,0.28472673499695084,-163.82039833854304,-29.52505008874354,-43.44274932353481,15
1767651044.167306,2,right_wrist,0.8974,-0.1645,-0.1088,5.11,0.98,-46.76,-0.2551214033695705,0.24426986021415575,-0.869678003191969,-0.3448267328640971,143.06470533857924,37.74936384548323,-161.65006321629724,15
1767651044.227185,1,left_wrist,0.6364,-0.0459,-0.5861,8.89,143.5,-19.88,0.014420255233662098,0.8629328886758113,-0.30733117915959274,0.4008571219237477,-161.91291896144304,-44.482322906018716,-46.6543333853665,15
1767651044.227185,2,right_wrist,0.8974,-0.1645,-0.1088,5.11,0.98,-46.76,-0.26080196747188766,0.2613697780918683,-0.8660916916712714,-0.3369767862642695,144.91308111828255,38.89594151775056,-159.15300922072052,15
1767651044.2793229,1,left_wrist,0.6315,-0.1161,-0.345,1.12,136.08,-34.51,0.039780689469629295,0.8408352470583552,-0.2915871305387978,0.4543022444956505,-161.26937469642255,-51.923288146580056,-47.43373866687199,15
1767651044.2793229,2,right_wrist,0.8974,-0.1645,-0.1088,5.11,0.98,-46.76,-0.2663936352578278,0.27842990644526466,-0.8621396253610198,-0.3289779394934575,146.8597990910045,39.980855480845435,-156.55946558815444,15
1767651046.124851,1,left_wrist,0.2342,-0.144,-0.7623,-1.47,-67.27,8.61,-0.07764906948808249,0.9509211083407008,-0.13803615399627814,0.2658301862273059,-165.36582765319756,-28.95550857356052,-20.316662360796176,16
1767651046.124851,2,right_wrist,0.8974,-0.1645,-0.1088,5.11,0.98,-46.76,-0.37854191457446834,0.8025833290746154,-0.4586746134812253,0.04672919590204975,-137.46619631441516,15.798019432682961,-53.313614186806774,16
1767651046.181516,1,left_wrist,0.144,-0.3021,-0.7466,36.75,-97.23,5.46,-0.1019255220329746,0.9601471279811779,-0.13375504115811224,0.22324486456040454,-163.80507265640964,-23.667588044005313,-19.276336603105328,16
1767651046.181516,2,right_wrist,0.8974,-0.1645,-0.1088,5.11,0.98,-46.76,-0.378246457216414,0.8115863813315444,-0.4414558219705451,0.058085458496174726,-136.74743393687095,13.867386973651364,-51.56667381600332,16
1767651046.27145,1,left_wrist,0.142,-0.2167,-0.6944,59.64,-78.05,14.91,-0.134099636319841,0.96393250234152,-0.13148841810924314,0.1885794643423055,-160.96189430406687,-19.16505781223469,-18.77847884401206,16
1767651046.27145,2,right_wrist,0.8974,-0.1645,-0.1088,5.11,0.98,-46.76,-0.37704207740658396,0.8284158775516833,-0.40625019472976953,0.08079099558259092,-135.50534575543887,9.932609913405484,-48.174623167973536,16
1767651046.328129,1,left_wrist,0.0581,-0.1508,-0.6817,15.61,-52.57,6.65,-0.15012536134057194,0.9705882997091507,-0.13186933898506803,0.13428032538575302,-160.41978082124348,-12.771767221064296,-17.686966294361685,16
1767651046.328129,2,right_wrist,0.8974,-0.1645,-0.1088,5.11,0.98,-46.76,-0.37613167567009387,0.8362263048249198,-0.38828187588360563,0.09212879320155987,-134.97824686719414,7.932662674451787,-46.521428094018646,16
1767651046.3782752,1,left_wrist,-0.0264,-0.1781,-0.9848,0.98,-69.65,3.43,-0.15269576428533727,0.9746704968786042,-0.12916177739156687,0.10009326323376178,-160.88257961552398,-8.955713453878442,-16.608622211523212,16
1767651046.3782752,2,right_wrist,0.8974,-0.1645,-0.1088,5.11,0.98,-46.76,-0.37501517124593,0.8436235109823652,-0.37008285570117383,0.10344889061385257,-134.51168423679673,5.913651674766965,-44.89153285932776,16
1767651046.430418,1,left_wrist,-0.0776,-0.2128,-0.9296,-2.59,-40.25,-5.18,-0.15226945368352682,0.977255006891708,-0.12504452237923114,0.0784253301106103,-161.3762763738314,-6.615286085125244,-15.66917775644252,16
1767651046.430418,2,right_wrist,0.8974,-0.1645,-0.1088,5.11,0.98,-46.76,-0.37369237904539715,0.850600015291883,-0.35166333335079486,0.11474545657866898,-134.10441045769443,3.8774624054918667,-43.281080312132474,16
1767651046.5236921,1,left_wrist,-0.1459,-0.1186,-0.956,3.57,-46.83,2.1,-0.15399678429466201,0.9788581028759755,-0.1232323496661716,0.054181111622997644,-161.60485216782993,-3.9058105747667127,-14.983561082136152,16
1767651046.5236921,2,right_wrist,0.8974,-0.1645,-0.1088,5.11,0.98,-46.76,-0.3704284237329534,0.863262200086523,-0.3142054905677034,0.13724454994499483,-133.4640595018211,-0.23919768688393664,-40.103295451325636,16
1767651046.620136,1,left_wrist,-0.3314,-0.1645,-0.7696,5.32,-23.73,7.42,-0.15931019685291675,0.9789076655863839,-0.1258558966181989,0.022810890410733132,-161.47943484978038,-0.2612270105185164,-14.69498351894753,16
1767651046.620136,2,right_wrist,0.8974,-0.1645,-0.1088,5.11,0.98,-46.76,-0.366343456863602,0.8741580555731338,-0.27599763531107674,0.15957904246021173,-133.0525559017976,-4.403202378180595,-36.95783521184486,16
1767651046.6737962,1,left_wrist,-0.3836,-0.041,-1.0653,30.59,-10.15,10.29,-0.16872043922397598,0.9767836665107228,-0.1319874061642069,0.0025311736373053854,-160.69880474486197,2.2691122535049812,-15.005004721499308,16
1767651046.6737962,2,right_wrist,0.8974,-0.1645,-0.1088,5.11,0.98,-46.76,-0.3639954800136026,0.8789277243348478,-0.256642069055827,0.17066984008891856,-132.9323847594541,-6.498649932957446,-35.38774404185727,16
1767651046.730198,1,left_wrist,-0.3836,-0.041,-1.0653,30.59,-10.15,10.29,-0.17958020435568942,0.9742424992041336,-0.13630880659581032,-0.00473415171689868,-159.56098077563226,3.3354179240018156,-15.327925201015065,16
1767651046.730198,2,right_wrist,0.8974,-0.1645,-0.1088,5.11,0.98,-46.76,-0.36144573747301373,0.8832373726429409,-0.23713533625002822,0.18170182918993974,-132.86971896234164,-8.60076699198448,-33.81426587208577,16
1767651046.820035,1,left_wrist,-0.2865,-0.1571,-0.9589,8.96,74.13,0.35,-0.17632980725375808,0.9736056519098722,-0.1430546767983689,0.02313424062119769,-159.51418807740708,0.30953349362660176,-16.661711455911142,16
1767651046.820035,2,right_wrist,0.8974,-0.1645,-0.1088,5.11,0.98,-46.76,-0.3557487044687963,0.8904551272659228,-0.1977205918758974,0.20356594298370995,-132.92009293818174,-12.81800867496585,-30.641196465388678,16
1767651046.870309,1,left_wrist,-0.2279,-0.222,-0.975,3.08,94.36,-11.55,-0.1696242651299232,0.9727863397345066,-0.14609985502422074,0.0597426001022422,-159.61981276251035,-3.822711230806967,-17.769865682325747,16
1767651046.870309,2,right_wrist,0.8974,-0.1645,-0.1088,5.11,0.98,-46.76,-0.3526062242357218,0.8933534294520118,-0.17783973164702568,0.21438640480280258,-133.03554041361903,-14.929532504867247,-29.033316347057244,16
1767651046.93092,1,left_wrist,-0.0932,-0.0913,-0.9794,-12.04,108.99,-13.79,-0.1533165641456999,0.9714540196816495,-0.14891408034039513,0.10293549183492184,-160.5781382698951,-8.878068357664223,-18.952307016594357,16
