timestamp,node_id,node_name,ax,ay,az,gx,gy,gz,qw,qx,qy,qz,roll,pitch,yaw,rep_number
1767649663.1025972,1,left_wrist,-0.1854,-0.6661,-0.3548,13.51,-23.45,64.54,-0.53128160863751,0.7824332023599788,0.2193570445770822,-0.2396260068578875,-108.89992977808107,8.157919500313202,37.15650277469335,1
1767649663.1025972,2,right_wrist,-0.242,0.7432,-0.181,6.02,-6.16,-77.21,0.26618349167245275,0.044184986374217645,0.7832384817749569,0.5601174130546487,104.37071480175233,21.559839249059696,156.73139475021733,1
1767649663.1579509,1,left_wrist,-0.2059,-0.7623,-0.4036,-0.42,-23.45,43.75,-0.5208642562001806,0.7863295042830525,0.20909035885263946,-0.2582006180121881,-109.26664423729474,10.850448565607307,37.49447496492744,1
1767649663.1579509,2,right_wrist,-0.305,0.795,-0.2362,-6.93,7.21,-57.89,0.27546542042127,0.023136704721558928,0.7853018195467987,0.5539716123261621,104.87388525140203,24.017323477502476,158.04298198564473,1
1767649663.216295,1,left_wrist,-0.3499,-0.61,-0.3767,27.44,-8.54,28.21,-0.5220522934215428,0.7806907583634151,0.1817552189513742,-0.2914590590858366,-107.19471329863575,15.38521518781407,37.58672843442901,1
1767649663.216295,2,right_wrist,-0.3665,0.7354,-0.2391,21.63,1.68,-44.38,0.28557868117203355,0.00893917387923426,0.793005745349752,0.5380583573114378,106.71971260787309,26.315357962382457,158.98191022386476,1
1767649663.305152,1,left_wrist,-0.3821,-0.7374,-0.3284,-12.67,-6.44,16.73,-0.5118762090464192,0.7858369284174758,0.17692982187352344,-0.29856139515928165,-108.11162380145558,16.74476684835631,37.55887869419864,1
1767649663.305152,2,right_wrist,-0.4085,0.8101,-0.2464,26.18,4.34,-23.52,0.28857855473689936,0.0014399590814536064,0.8057143751676915,0.5172472232037041,109.67681513519985,27.61539594929082,160.1515601372968,1
1767649663.357174,1,left_wrist,-0.3606,-0.7852,-0.4138,31.29,-4.06,17.15,-0.5166233117980226,0.7818431254739975,0.1668465512168415,-0.3065679520154385,-106.99863399572367,17.877473028164207,37.37023529701847,1
1767649663.357174,2,right_wrist,-0.4421,0.8325,-0.2542,1.96,3.5,-19.32,0.29193698695928366,-0.004993147609675429,0.8045792630644284,0.5171074100888369,109.56830836255162,28.355240300738377,160.49073580741046,1
1767649663.412194,1,left_wrist,-0.3933,-0.9165,-0.4041,22.75,0.77,17.85,-0.5046827822240918,0.7886947466592158,0.15561149748610353,-0.3147077180001112,-108.11714160601663,19.837141127644653,36.77238796503005,1
1767649663.412194,2,right_wrist,-0.4548,0.8316,-0.2611,7.77,3.43,-19.6,0.29503500430045765,-0.010452752299152039,0.8047836694358295,0.5149449792125397,109.76252547348918,29.054667034333516,160.83135519398604,1
1767649663.4628081,1,left_wrist,-0.4499,-0.5422,-0.3831,-11.62,2.03,9.59,-0.4959342150982392,0.7942207821268746,0.1515730257530054,-0.3166831561620346,-109.18629325650987,20.652070094317118,36.36862538612243,1
1767649663.4628081,2,right_wrist,-0.4699,0.791,-0.2874,5.04,1.47,-16.31,0.29899879005333035,-0.017569369300521775,0.8077080107013915,0.507837385644093,110.66163201253725,30.05639719712142,161.45349762201414,1
1767649663.515381,1,left_wrist,-0.3338,-0.9394,-0.3953,9.45,-0.77,1.19,-0.4974584433659335,0.7939321707208877,0.15149182870293207,-0.31505083915870324,-109.09858945325492,20.458950562108203,36.24896487730784,1
1767649663.515381,2,right_wrist,-0.4812,0.751,-0.2582,-3.99,-3.36,-13.23,0.3057108227347717,-0.023039693263994934,0.8042468877145206,0.5091139450050818,110.11039629346341,31.010397273250337,161.33986513408055,1
1767649663.5688388,1,left_wrist,-0.4651,-0.4319,-0.4431,5.95,-2.31,6.72,-0.49471624795907304,0.7949907650784013,0.1471463220414477,-0.31873731716733406,-109.24293181492541,21.17360902266451,36.09308954932176,1
1767649663.5688388,2,right_wrist,-0.4812,0.8555,-0.2684,8.61,-3.92,-8.12,0.3072471401783316,-0.02154695852745486,0.8043012541233368,0.5081677046468817,110.12728816199406,31.07351455904668,161.08808401348557,1
1767649663.619183,1,left_wrist,-0.3933,-0.3089,-0.2586,5.88,26.18,-24.36,-0.49838849901821175,0.7974185185065447,0.14670916486750693,-0.30693489754845427,-109.58263945249284,20.076519988586934,35.08939758212501,1
1767649663.619183,2,right_wrist,-0.4807,0.6695,-0.2567,4.41,-3.08,-3.99,0.31254781672761567,-0.024637983710709903,0.8049133207102909,0.5038068857812524,110.46885332611252,31.86862585372885,161.08757759788904,1
1767649663.704344,1,left_wrist,-0.3933,-0.3089,-0.2586,5.88,26.18,-24.36,-0.5020149451219432,0.7996498646145074,0.14626105800298214,-0.2952097420615732,-109.8868083112538,18.98244180072475,34.11201436314195,1
1767649663.704344,2,right_wrist,-0.3416,0.0283,-0.1513,-26.67,19.18,89.88,0.2837006033156073,0.0028949664023101497,0.8059629960724999,0.5195471449346338,109.62268178224544,27.01966178768673,160.35760524438246,1
1767649663.757631,1,left_wrist,-0.2533,-0.0244,-0.0346,-21.63,62.72,-98.07,-0.5089769316229067,0.805671401147669,0.16718649976163466,-0.25275432883718424,-111.37731045804989,13.714601094602417,32.8297253140261,1
1767649663.757631,2,right_wrist,-0.042,0.0205,-0.184,9.52,27.86,228.76,0.21967390458217206,0.07728762148087515,0.8100848443108611,0.5380822838835152,109.70670133402469,15.827068515207625,157.92165839888943,1
1767649663.8091679,1,left_wrist,0.0122,0.2045,0.1366,100.73,128.59,-187.74,-0.5716083168115901,0.7788765757782525,0.19230727348683652,-0.17214274431361892,-106.7141689506111,2.7688664658011026,29.7980135404207,1
1767649663.8091679,2,right_wrist,0.3211,0.2035,-0.0473,-87.64,70.35,299.11,0.12318343896542251,0.15885873109770088,0.7779847332235944,0.5952558263383004,105.12902282201377,0.1459038201658188,156.80685548498815,1
1767649663.862411,1,left_wrist,0.9838,-1.0106,-0.3445,71.89,155.82,-277.76,-0.6520231183464651,0.6981218487843238,0.2894501095774929,0.06091281849731497,-99.23651015746225,-27.548899125527726,21.48359198443169,1
1767649663.862411,2,right_wrist,0.5954,0.7735,-0.2987,169.96,52.85,347.34,-0.0007271622246473186,0.27113035568914295,0.7887553516049006,0.5516817894163334,114.21914642850285,-17.475770819071908,153.41233458899683,1
1767649664.913088,1,left_wrist,-0.0966,-0.609,-0.284,35.07,-54.67,128.45,-0.5687539106516187,0.7538021343239214,0.18310618341506307,-0.27344735691236893,-101.9970134276944,11.768958040122783,36.84892975443515,2
1767649664.913088,2,right_wrist,-0.1898,0.4182,-0.1513,14.98,-8.75,-153.79,0.29856169672518007,0.03828256879440462,0.8152132049165545,0.4947957040079908,111.81577417200215,26.673052369704994,156.39117872842257,2
1767649664.964642,1,left_wrist,-0.1918,-0.6525,-0.2045,9.94,-51.87,114.52,-0.5502662468493371,0.7554008030744657,0.15580607877806207,-0.3198455097521323,-101.52337090911692,18.164933793838703,38.18493556349333,2
1767649664.964642,2,right_wrist,-0.2645,0.65,-0.3304,10.64,-5.88,-116.76,0.3218451247458911,0.0013064279497914475,0.8194355621241145,0.4742777334533536,113.78523091454092,31.750642688951523,158.80557219978806,2
1767649665.018201,1,left_wrist,-0.4099,-0.5485,-0.2347,-10.22,-30.73,86.45,-0.5291051308818079,0.7605949050812781,0.13357336583340293,-0.3517119656464399,-102.10005320045313,23.183172807678464,38.74959071109302,2
1767649665.018201,2,right_wrist,-0.3884,0.5558,-0.2733,31.01,-12.18,-87.22,0.34324963139145714,-0.023762533456925305,0.8254301903442172,0.44752657286651343,116.72684464402126,36.00996487018393,160.65195704736587,2
1767649665.1035929,1,left_wrist,-0.55,-0.6207,-0.183,-34.16,-5.18,65.17,-0.5046483992298121,0.7718409871566738,0.11525517948257068,-0.36919876395004303,-104.16187904668655,26.974814303701674,38.15250089990402,2
1767649665.1035929,2,right_wrist,-0.5719,0.5846,-0.3192,-23.31,-0.98,-52.15,0.3699387258360316,-0.0651386788146404,0.819917195135198,0.43201630151040177,118.13232845354356,41.52296496678494,163.48539290260715,2
1767649665.155309,1,left_wrist,-0.5324,-0.4943,-0.325,8.75,-1.75,56.07,-0.49478230416621116,0.7741780401924517,0.09317823950011833,-0.3836100223552665,-104.46491031066925,30.11644439047084,37.27465057631619,2
1767649665.155309,2,right_wrist,-0.5695,0.5651,-0.3284,19.67,-4.06,-37.73,0.37713470209119876,-0.0749431613407529,0.8237952097010482,0.41655058698847425,120.3337515228925,43.14120932722014,164.84849222901093,2
1767649665.2117708,1,left_wrist,-0.5563,-0.3675,-0.326,-3.43,2.73,37.38,-0.48379821610222096,0.7786816254749028,0.07820251475311582,-0.39176342214448834,-105.43328040951371,32.30658436987853,36.34112766587821,2
1767649665.2117708,2,right_wrist,-0.6154,0.5802,-0.2904,2.03,-5.95,-20.93,0.3846061142687385,-0.08041478560686785,0.8205054999159126,0.4151895033965116,120.12040534988695,44.26017171912482,164.83040972174663,2
1767649665.269194,1,left_wrist,-0.5534,-0.3709,-0.2879,-4.06,2.03,-18.41,-0.4772012734489147,0.7834838585122293,0.07743775120558868,-0.39042974112859824,-106.5182062339006,32.53971029674907,35.87035782460977,2
1767649665.269194,2,right_wrist,-0.5915,0.5183,-0.3328,1.47,-4.06,-2.24,0.38485883771970714,-0.08080642916743336,0.8220292492949656,0.4118518050680367,120.659785683376,44.37014769919432,165.0708814521896,2
1767649665.3551779,1,left_wrist,-0.4685,-0.264,-0.265,31.92,13.65,-58.8,-0.4947885512159131,0.7787147773022791,0.08676655443492937,-0.3758445825447134,-105.24870144890541,29.966215810735115,35.82441883305685,2
1767649665.3551779,2,right_wrist,-0.4075,0.1742,-0.2704,10.15,0.7,92.4,0.37155645712615565,-0.04060033631023573,0.8290111169132124,0.4159783406544905,119.80646564002036,40.52852863521067,161.4503202697575,2
1767649665.419229,1,left_wrist,-0.2406,-0.0527,-0.12,52.29,62.09,-168.28,-0.5473714084588029,0.7699823538045834,0.14629399875518873,-0.29344468296358056,-103.82423220245745,16.962165087045037,34.84727608710089,2
1767649665.419229,2,right_wrist,-0.2743,-0.0673,-0.121,-12.67,13.79,174.72,0.33580004281283593,0.015666247688684732,0.8303173686119141,0.44448393369349265,116.87165778463704,32.93685564957521,157.25175140431693,2
1767649665.5038762,1,left_wrist,0.0556,-0.2001,-0.2377,14.14,71.4,-237.16,-0.5815049336195441,0.7582045174841617,0.20768674006219776,-0.20938992297881912,-103.69184998338288,4.357477861532531,34.06129956035682,2
1767649665.5038762,2,right_wrist,0.3231,0.8725,-0.2054,-33.88,63.35,306.53,0.17311066425251412,0.19676136841917577,0.8031360123132313,0.5350609381607555,111.61236094752677,3.870647618332161,149.83791710698338,2
1767649665.5637069,1,left_wrist,0.672,-0.4685,-0.3821,118.86,133.77,-235.69,-0.680117613231936,0.6678441391932558,0.30150046963998084,-0.022840856459096955,-94.57767471779738,-22.30911202820438,27.961307349849996,2
1767649665.5637069,2,right_wrist,0.6808,0.9365,-0.1474,-59.64,79.87,283.01,0.08034883531684077,0.27253101068626767,0.7628397383327253,0.5808153290831843,108.5688996854191,-11.185950672920779,148.7354715019895,2
1767649666.6157818,1,left_wrist,-0.2367,-0.489,-0.2074,-77.84,-37.17,117.32,-0.5345440468023825,0.7637670031679866,0.1877467903844413,-0.3093117676394896,-104.26774689338063,15.769404147892159,39.912695985737415,3
1767649666.6157818,2,right_wrist,-0.1547,0.6388,-0.2211,55.02,-9.66,-146.3,0.3407628056401192,0.01171919799525912,0.8075403832379503,0.48127112954189,111.19543955274332,32.620980018159145,155.67566507134944,3
1767649666.7034829,1,left_wrist,-0.2679,-0.9706,-0.1513,-3.22,-19.04,100.87,-0.5203018761449576,0.7673051344823804,0.15855862837464976,-0.3396880181062664,-104.11064243777061,20.872649920878363,39.69664203599147,3
1767649666.7034829,2,right_wrist,-0.509,0.466,-0.2445,17.64,-6.86,-85.26,0.3843454910755879,-0.05387422052273487,0.806966658002086,0.4451751618474208,114.47452287902237,41.934061720221365,159.93285654956085,3
1767649666.7570071,1,left_wrist,-0.4363,-0.3343,-0.3001,40.88,-10.78,76.93,-0.5178792810817059,0.7632771730863407,0.1269384400427673,-0.36482275108760553,-102.59964527758939,25.17878180210284,39.173035616358035,3
1767649666.7570071,2,right_wrist,-0.5592,0.5373,-0.204,-18.13,-4.27,-62.37,0.4001280760553811,-0.0788668917333434,0.798819467692955,0.4422273105262544,114.16346474704152,45.15477908226214,161.14553664155866,3
1767649666.818212,1,left_wrist,-0.5612,-0.6525,-0.1562,11.06,1.54,29.26,-0.49903346615408917,0.7685179012399074,0.09590808196288468,-0.3887768961065512,-103.34441734907621,30.121895926439958,38.24563098899539,3
1767649666.818212,2,right_wrist,-0.5592,0.5373,-0.204,-18.13,-4.27,-62.37,0.41314990357310616,-0.1013651271848333,0.7904064012911011,0.4407833810006753,113.77279355021511,47.94248701145454,162.2716795313559,3
1767649666.9036539,1,left_wrist,-0.5427,0.0117,-0.2777,43.96,9.8,-19.53,-0.5141009052984029,0.761277215833332,0.09024755812002482,-0.38472410644224747,-101.62878921475962,29.536024174421357,37.77696452567869,3
1767649666.9036539,2,right_wrist,-0.5963,0.3714,-0.2089,55.79,-1.12,28.98,0.41741666983569053,-0.097020818645539,0.7943313994718685,0.4305669661106093,114.96514734538228,48.303796012208394,162.0211831420587,3
1767649666.965386,1,left_wrist,-0.4519,-0.7017,-0.1571,-10.15,29.89,-72.45,-0.5192968422029417,0.7733261677444476,0.12232139447042294,-0.3425418287078976,-104.29426341857943,23.75026301735042,36.5392121784971,3
1767649666.965386,2,right_wrist,-0.447,0.5402,-0.2196,-22.19,-0.56,77.56,0.39857831847927117,-0.07111230519578553,0.7934483990907926,0.4544425178922372,112.05728235193321,44.19763956781287,159.64186188006857,3
1767649667.058511,1,left_wrist,-0.3245,0.2191,-0.182,-9.8,59.64,-134.54,-0.5357500024490224,0.7771877668786765,0.1535569904672754,-0.29218377875686635,-105.46376925515649,16.835626439550765,35.20248761831674,3
1767649667.058511,2,right_wrist,-0.0264,0.3406,-0.0859,38.78,18.76,258.51,0.30409356068676635,0.08554615804322906,0.8142727671442898,0.4869998171252924,111.95698143095194,24.324766691821633,151.44964017791125,3
1767649667.1093838,1,left_wrist,-0.0371,-0.3528,-0.06,-22.33,74.62,-209.09,-0.559808531078926,0.7724172702744012,0.21114232472116504,-0.21308422706629304,-106.47772319528512,5.323635009823764,34.555154508833105,3
1767649667.1093838,2,right_wrist,0.3509,0.1679,-0.0371,-126.28,63.63,295.12,0.2185222064916639,0.16053010022559427,0.776459781962262,0.5688482567316979,105.10202157899383,9.016150874812757,149.7263016936592,3
1767649667.168525,1,left_wrist,0.4714,-0.1674,-0.425,26.11,160.72,-282.59,-0.6933921333450077,0.6642336238245405,0.2792863090188815,-0.00044720329572627465,-92.38735272866882,-22.750298387949023,23.76563399961006,3
1767649667.168525,2,right_wrist,0.4734,0.8237,-0.0815,58.1,63.21,315.84,0.1103104126737227,0.25726969623201,0.7655680256448497,0.5792663587389562,107.88675614771799,-7.420772130598649,148.2563487828966,3
1767649668.211225,1,left_wrist,0.1161,-0.6412,-0.3084,32.69,-65.31,170.87,-0.5693618510339217,0.7461986323788025,0.2561486693085667,-0.23108990206125754,-104.19343161386091,3.049309862162467,40.2660877146336,4
1767649668.211225,2,right_wrist,-0.0961,0.6939,-0.2128,-16.66,-7.84,-177.1,0.319576212011905,0.09154320298304472,0.806273754967214,0.48929900751462396,110.50221430727998,25.198007681016335,149.41821096662613,4
1767649668.264801,1,left_wrist,-0.2855,-0.6598,-0.2176,-33.11,-39.13,99.89,-0.5103475240654121,0.7730808256434766,0.20163147880215157,-0.31817634805051387,-106.7795359989439,16.62747126465754,41.628106828994696,4
1767649668.264801,2,right_wrist,-0.2845,0.3406,-0.2699,12.25,-9.03,-136.08,0.35100847812317426,0.045873651922947144,0.8136009925499755,0.4612397221257078,112.7421689399913,31.927394717649918,152.00042807789148,4
1767649668.3153448,1,left_wrist,-0.4143,-0.2572,-0.2089,49.28,-19.53,71.26,-0.5119344374238296,0.7665540112550538,0.1724068091937324,-0.3472664276200189,-104.542420240564,20.847079432538507,41.55182729182116,4
1767649668.3153448,2,right_wrist,-0.3465,0.5217,-0.285,24.08,-8.47,-86.45,0.36854674829175416,0.02093275742206061,0.8203651064310662,0.43673356424784787,115.3552168290585,35.90207618668223,153.9079724936102,4
1767649668.4036648,1,left_wrist,-0.4363,-0.4734,-0.347,-43.47,-7.7,42.49,-0.4866199993513986,0.7802089941671753,0.16467520852500298,-0.35687109346252216,-107.2150579643817,23.365772801945656,41.167815672705814,4
1767649668.4036648,2,right_wrist,-0.5134,0.6612,-0.3065,-9.45,-1.96,-35.84,0.38159550346765314,-0.005205252161778821,0.820104432614339,0.4263642769856707,116.40132833659453,39.07484217624169,155.91105600419664,4
1767649668.456023,1,left_wrist,-0.4919,-0.692,-0.346,8.19,-7.56,28.49,-0.48089575286438613,0.7812228868972186,0.15332189917048802,-0.36731794279578206,-107.21077408834194,25.24252050779166,40.952003051743596,4
1767649668.456023,2,right_wrist,-0.5998,0.6012,-0.3294,10.36,-3.71,-26.25,0.3894903173164384,-0.014702810864215071,0.8222322569321381,0.4147471949630448,117.73346125719183,40.7453981323833,156.76341889514708,4
1767649668.514924,1,left_wrist,-0.5622,-0.4299,-0.3167,-6.58,3.43,-2.38,-0.4731170451100677,0.7848570346430783,0.1424216381831112,-0.3739996975598121,-107.79534907958829,26.891883813938232,40.35102646545081,4
1767649668.514924,2,right_wrist,-0.6202,0.6666,-0.3157,2.03,-9.45,-21.42,0.397027260508361,-0.0188878371922216,0.8190660163568937,0.4136948934524995,117.32815781568111,41.7599085542139,156.49063832420794,4
1767649668.569435,1,left_wrist,-0.5441,-0.4441,-0.2381,15.54,15.26,-35.0,-0.48204271931303344,0.7829852744412291,0.14590481371822878,-0.3650762414884571,-107.325030459626,25.533194222403225,40.03624161582537,4
1767649668.569435,2,right_wrist,-0.5544,0.3987,-0.2869,6.37,-4.76,11.9,0.398416958439403,-0.01533899982203467,0.8203567758001833,0.40993097310532955,117.68272422053273,41.779366561501156,156.15382092098088,4
1767649668.659443,1,left_wrist,-0.4363,-0.2089,-0.1771,6.51,31.01,-74.06,-0.4948264326489705,0.7826541191325164,0.16086694949859912,-0.34164478031401824,-107.3807538250913,22.059976457275294,39.53240693040559,4
1767649668.659443,2,right_wrist,-0.2816,0.0708,-0.1547,-7.56,25.06,149.45,0.35392144666883524,0.04910575592574596,0.8239649236974157,0.4397840820665429,115.52456654659723,32.68676051788841,152.22360232361987,4
1767649668.71649,1,left_wrist,0.062,-0.0264,-0.1893,11.9,115.71,-192.92,-0.5472617967788685,0.7767145846299869,0.23141513399372599,-0.2089641490019219,-108.32929679630709,4.089903689165306,36.13607500039257,4
1767649668.71649,2,right_wrist,-0.083,0.1098,-0.06,-2.38,53.69,232.12,0.28852621327480643,0.11991054926972207,0.8244943976363609,0.47178710526400425,114.62661291118903,21.261923848039682,149.71485315888768,4
1767649668.804275,1,left_wrist,0.346,-1.1644,-0.3265,-43.68,126.56,-212.59,-0.5627354424323989,0.7711328472142267,0.2780565181481285,-0.10661860294072413,-110.35153878047542,-8.540606233029267,33.70985355138741,4
1767649668.804275,2,right_wrist,0.3138,0.7823,-0.3245,15.4,88.48,269.57,0.11166097585300414,0.26851752003557766,0.7823337504369349,0.5508031144000346,111.77888340298152,-6.954914031477606,146.82669481113865,4
1767649669.9626088,1,left_wrist,-0.2084,-0.6027,-0.2874,31.15,-41.44,113.89,-0.5255181191702749,0.7461762480732211,0.254711242584425,-0.3196465174786137,-104.40802294166915,12.082185101822393,47.079617271762515,5
1767649669.9626088,2,right_wrist,-0.3021,0.6207,-0.2943,19.6,-47.6,-119.49,0.3782246060562652,0.1002730769389927,0.8556446717520713,0.3387678454591877,126.45820596043632,35.40224771135139,148.33780576239266,5
1767649670.0203562,1,left_wrist,-0.4812,-0.6071,-0.246,-23.1,-16.94,87.92,-0.469187311364201,0.7706910572267436,0.20245954617161388,-0.38066874488134794,-107.10030139705107,23.37660340596863,46.813215853568195,5
1767649670.0203562,2,right_wrist,-0.4504,0.5841,-0.3284,-13.16,-22.75,-96.32,0.40198286914260467,0.06629679318238907,0.8516297679267101,0.329759376683528,126.75717987581363,39.863230840050726,150.4945912109764,5
1767649670.1052952,1,left_wrist,-0.551,-0.5724,-0.2181,-6.02,-6.86,63.63,-0.45316849621408584,0.7768298540113636,0.1804982364587258,-0.39823872060742355,-107.7926029774089,27.073635219254264,46.07926541162905,5
1767649670.1052952,2,right_wrist,-0.6012,0.3362,-0.3499,21.63,1.19,-33.88,0.42717982181273395,0.022173515237530316,0.8481214334243756,0.31259521625295905,128.67621800911093,45.29499736358223,154.334344451382,5
1767649670.168083,1,left_wrist,-0.5885,-0.2025,-0.2811,-27.51,2.38,16.59,-0.4320778602621423,0.7862189774693223,0.15512254108444132,-0.4136489325332386,-109.39706747856982,31.090225881202436,44.6080114750112,5
1767649670.168083,2,right_wrist,-0.6012,0.3362,-0.3499,21.63,1.19,-33.88,0.43302603957079083,0.010897477756384001,0.85185519354782,0.2944697323287933,131.45868606107393,46.9982614218604,156.3499349305023,5
1767649670.255989,1,left_wrist,-0.5392,-0.164,-0.164,-6.09,14.14,-29.54,-0.4333984160956877,0.7886869701658918,0.16099486068792512,-0.40523984360915255,-109.9738662522284,29.97783466350162,44.321194223761076,5
1767649670.255989,2,right_wrist,-0.3162,-0.0303,-0.1313,-25.2,31.36,121.94,0.4003260061553702,0.054026922009225486,0.8558435455280666,0.32303561115122814,128.29583193720774,40.56630737757966,152.47047494928728,5
1767649670.31247,1,left_wrist,-0.4128,0.2484,-0.0834,36.33,45.08,-108.29,-0.4655664187650975,0.7818852458444534,0.18126106238687034,-0.37289113600538115,-108.47437312749926,24.47763585497091,43.86339338435292,5
1767649670.31247,2,right_wrist,0.2464,0.2821,-0.1059,-52.57,122.78,315.84,0.304961915853812,0.14585111257052527,0.8527613099227741,0.3981505131724773,122.90520897055166,23.827102653075528,147.49338970282818,5
1767649670.362628,1,left_wrist,0.4558,-0.4431,0.04,109.83,128.66,-249.48,-0.5856606618269774,0.7340385624654503,0.26750390545940167,-0.21594128499666174,-102.75270021518965,0.21116018912515097,40.21498154837349,5
1767649670.362628,2,right_wrist,0.2464,0.2821,-0.1059,-52.57,122.78,315.84,0.202325424913611,0.23446450359597776,0.8298719111611533,0.4641157507053101,119.39058711018627,6.786559596242576,144.47719460333528,5
1767649670.418339,1,left_wrist,0.4197,-0.8301,-0.2108,20.72,135.66,-283.57,-0.6296828742299131,0.70045111667939,0.32144014659137504,-0.09769310724645015,-101.24725751432709,-15.542448195295114,36.51969228869832,5
1767649670.418339,2,right_wrist,0.5456,0.5998,-0.1791,-85.19,144.9,325.71,0.08825495365344783,0.3133822228988657,0.7806818731666575,0.5334214641684307,115.06249720002057,-11.334204824034424,143.4828746778421,5
1767649670.4690912,1,left_wrist,0.852,-1.5392,-0.3606,15.54,107.52,-270.55,-0.6556448813639039,0.6560232434241792,0.3736846649339584,0.01109345851066743,-99.33287605200474,-30.302414578642068,33.437686459539805,5
1767649670.4690912,2,right_wrist,0.8101,0.978,-0.4738,2.45,131.67,303.38,-0.031239324482347088,0.3843282274768505,0.7355319999556807,0.5570534940304975,115.38377816691096,-28.303227730542265,142.94301810772157,5
1767649671.465656,1,left_wrist,-0.1923,-0.5636,-0.2738,4.34,-36.61,127.68,-0.5041728495146018,0.7570014585579679,0.26791955814492296,-0.31776979075561135,-107.2374593512793,12.177963419048346,47.967676036148085,6
1767649671.465656,2,right_wrist,-0.2108,0.4812,-0.2025,21.14,-29.33,-146.93,0.3704754661838425,0.12856135591265896,0.8137179046907987,0.4290490395134096,114.24283671459047,29.512062641450047,142.719280378998,6
1767649671.515915,1,left_wrist,-0.306,-0.4787,-0.3328,-27.79,-35.07,93.73,-0.47377000311239986,0.7706686063603474,0.2468536802111805,-0.3473832809558811,-108.95670240749203,17.549584181137828,48.097817227424024,6
1767649671.515915,2,right_wrist,-0.3889,0.4538,-0.2411,3.22,-12.81,-108.15,0.39720603413331124,0.09027053354346494,0.8180624772999796,0.40602017247383804,115.73358121781547,35.21003248832077,144.86256641337948,6
1767649671.605379,1,left_wrist,-0.4397,-0.5441,-0.2899,-16.8,-29.89,63.98,-0.45168752420539904,0.7776364180166334,0.23148959904585126,-0.3710425142555065,-109.9072940231196,21.5892695232235,48.38918053656073,6
1767649671.605379,2,right_wrist,-0.5612,0.55,-0.2913,6.51,-7.77,-44.45,0.4262803606818463,0.052892653534240684,0.823564210087859,0.3704448854572334,118.92585164573853,41.52531319172946,147.43723316388136,6
1767649671.66307,1,left_wrist,-0.5402,-0.3675,-0.2103,-7.63,-0.21,13.02,-0.4275299758890962,0.7860282176390192,0.21583695951372722,-0.39088638720140295,-111.36050744172049,25.463874313913024,48.24584407410043,6
1767649671.66307,2,right_wrist,-0.5924,0.4924,-0.304,5.46,-3.71,-27.3,0.4342760118665076,0.041899791056700476,0.824676169305284,0.3599416186087522,119.99494489586826,43.32305939714853,148.35028230518301,6
1767649671.754323,1,left_wrist,-0.5085,-0.121,-0.2347,-8.82,18.2,-30.66,-0.4281184080511019,0.7892462950500941,0.22207890870751126,-0.3801129736601619,-112.18707662836593,24.19562435746086,47.827188264029736,6
1767649671.754323,2,right_wrist,-0.4368,0.2708,-0.1708,-11.9,16.87,82.11,0.4165661803049078,0.07172913830035246,0.826302765527441,0.3722247813171105,119.11281923795826,39.42153074035372,146.29661786282193,6
1767649671.804565,1,left_wrist,-0.407,-0.2533,-0.0712,20.16,37.38,-85.4,-0.45110563002809184,0.7828221794348397,0.23864762501148304,-0.35600625980202166,-111.18148952905314,20.002955663508544,47.68345320451855,6
1767649671.804565,2,right_wrist,-0.2328,0.1,-0.183,-40.46,45.22,158.06,0.3751742088437179,0.11175956175478537,0.8228539769024624,0.41190465652948194,116.46212402463924,31.692387958058003,144.5920432037213,6
1767649671.858476,1,left_wrist,-0.2845,0.0752,-0.0727,39.97,87.36,-142.94,-0.4926615744575462,0.7726058786151114,0.26161569331663787,-0.3031863426885159,-109.77461855692934,12.164027919463486,45.983018962190116,6
1767649671.858476,2,right_wrist,-0.1435,0.5705,-0.2255,3.01,50.19,216.58,0.3134065868002934,0.18281595859592648,0.8164541373424243,0.44917399551763937,115.25392759050655,20.33642673782835,141.78382528173262,6
1767649671.9158552,1,left_wrist,0.4519,-1.2356,-0.1205,73.71,98.42,-242.27,-0.607303064642968,0.7002792828499904,0.3482344269687727,-0.13973080390555498,-103.25687666270395,-13.136192115952193,42.46241149303631,6
1767649671.9158552,2,right_wrist,0.1557,0.245,-0.2601,-40.81,81.27,290.78,0.22441943748824014,0.26496704444011604,0.7900636124530711,0.5052008211748423,112.97267893682917,4.984608305658157,139.61762099163283,6
1767649671.96858,1,left_wrist,0.591,-0.5675,-0.4241,83.51,136.5,-266.56,-0.6622781013770191,0.6400926003576751,0.3877713945531857,-0.03609051080378379,-97.81263830144063,-27.86711302349025,37.99649560542852,6
1767649671.96858,2,right_wrist,0.4587,0.5236,-0.2674,-8.33,85.54,317.87,0.120650288438955,0.353661433821837,0.751043518816271,0.5443351274451733,112.73033761080963,-11.758877814948027,137.4073420794773,6
1767649673.0039449,1,left_wrist,0.0356,-0.7183,-0.2577,29.4,-56.42,179.69,-0.5294625626174875,0.7204456993534739,0.31917417129083325,-0.31425346052258024,-104.08956917471959,6.593448308882895,52.93420371079031,7
1767649673.0039449,2,right_wrist,-0.284,0.3177,-0.224,33.32,-8.61,-132.72,0.4012343402615491,0.11311198428055899,0.7943315913729063,0.4418755550536603,109.93442143857014,32.51112667185697,140.6854037049063,7
1767649673.0565681,1,left_wrist,-0.1059,-0.429,-0.2103,-42.07,-41.58,142.17,-0.4866677533997265,0.7448802727954631,0.289012862454021,-0.35324133724290063,-106.58546019956303,14.178200857233945,53.0072997846677,7
1767649673.0565681,2,right_wrist,-0.3514,0.568,-0.242,20.09,-14.21,-98.35,0.42055366603415956,0.08691818278027369,0.8015850333754484,0.4159823046186997,112.0803683858191,37.00654127476376,142.21968593422068,7
1767649673.118465,1,left_wrist,-0.4377,-0.2733,-0.2757,-34.3,-14.7,60.97,-0.43612470112592633,0.7670257036206325,0.2474731347570114,-0.40027973047187004,-109.03292298110522,23.465162118737762,52.60636212905168,7
1767649673.118465,2,right_wrist,-0.4992,0.693,-0.1664,-2.03,-13.3,-75.6,0.43975338787185275,0.06318121944871814,0.7991909029320147,0.40486910481649724,112.1040273704547,40.67243324588301,142.94062721219154,7
1767649673.2045062,1,left_wrist,-0.4973,-0.6168,-0.2611,-11.76,2.66,27.79,-0.4245499487216988,0.7737875836978364,0.23697076137033435,-0.4060233670751362,-110.03743378246163,25.286183099635586,51.89477974710474,7
1767649673.2045062,2,right_wrist,-0.5651,0.4978,-0.2899,4.55,-1.96,-20.65,0.45611447642322467,0.03747618490951436,0.8010530785416011,0.385835567723893,113.68713645659423,44.57356947038539,144.66309396838398,7
1767649673.262814,1,left_wrist,-0.5505,-0.1137,-0.2411,-19.04,19.95,-41.58,-0.42661531846474066,0.7771128307232552,0.23812546309213714,-0.3967257014659779,-110.65721625813846,24.420190789899443,51.097920442871576,7
1767649673.262814,2,right_wrist,-0.5934,0.1513,-0.2699,40.32,-1.19,26.88,0.4526546213801675,0.052321370781471664,0.808121624129758,0.37323679952090344,115.59117662813577,43.831784024448126,144.15256284292906,7
1767649673.3132439,1,left_wrist,-0.3494,-0.1825,-0.0956,57.82,44.03,-113.75,-0.46749706144744935,0.7616327285028703,0.2555877262555849,-0.36883193814903426,-107.89503182306443,18.835727582549495,50.870827064168964,7
1767649673.3132439,2,right_wrist,-0.3318,0.3138,-0.2528,42.21,9.45,122.5,0.4253462639977512,0.10216573998967045,0.8149370724397156,0.38015823710516117,116.29581304318855,37.9942640186582,141.56235711577318,7
1767649673.367004,1,left_wrist,-0.1557,-0.0346,-0.1181,11.34,69.51,-176.05,-0.5020414575718007,0.7508489302825064,0.2953732146964331,-0.3113437373911549,-107.85157494492259,9.843932429147484,50.12774887728945,7
1767649673.367004,2,right_wrist,-0.2313,0.0068,-0.1279,-41.3,29.82,189.49,0.3852821731676648,0.15401460153974164,0.8038443219097765,0.426229346344392,112.91102636056151,29.21726585556818,138.69897825987346,7
1767649673.453003,1,left_wrist,0.2274,-0.712,-0.102,71.61,89.04,-233.17,-0.5674728366530174,0.7106519396619149,0.3422921446926745,-0.23618740016653056,-104.16536994487501,-3.0259888676375795,49.07909940707628,7
1767649673.453003,2,right_wrist,0.5231,0.6676,-0.3518,1.89,87.5,302.68,0.21433960299412247,0.33256825116601063,0.7668212702778527,0.5054127346576891,113.406001722858,-0.42675008990251817,133.3878042703271,7
1767649674.554971,1,left_wrist,-0.0098,-0.7501,-0.2972,17.01,-62.79,167.65,-0.5210044662346518,0.730448438017665,0.34087067790959613,-0.2807251440511724,-107.4544905391088,3.14827937963435,52.343714672452585,8
1767649674.554971,2,right_wrist,-0.2347,0.5124,-0.2045,6.3,-13.16,-160.65,0.33222904136514314,0.05110203034549588,0.8412540850901039,0.4234430432624653,119.40373194949093,31.04428740950024,154.6117379406433,8
1767649674.6157172,1,left_wrist,-0.3582,-0.6808,-0.184,-23.45,-34.93,109.48,-0.4577277231466157,0.763149041265745,0.2795116484373283,-0.36050258066487784,-109.62905761666454,17.118800643570015,52.34635617120118,8
1767649674.6157172,2,right_wrist,-0.3592,0.5666,-0.2801,20.72,-11.76,-126.7,0.35872448328757855,0.011066481643623836,0.8433155933258165,0.40001635982496647,121.7614953639871,36.59696537330245,157.62204318066796,8
1767649674.6706188,1,left_wrist,-0.449,-0.0473,-0.2933,41.02,-18.9,67.62,-0.45457313310989345,0.7617449620898591,0.2522398043350866,-0.3866302632934617,-107.96302491623904,21.082045430823094,52.05209270775254,8
1767649674.6706188,2,right_wrist,-0.4748,0.4265,-0.2752,23.45,-14.42,-79.59,0.3810731948252539,-0.014573045945523742,0.8442528431043385,0.3765740079025437,124.28631359211975,40.87567961055183,159.69443021943536,8
1767649674.756407,1,left_wrist,-0.4729,-0.4563,-0.3118,-36.82,-6.65,38.15,-0.4313909448597988,0.7738482851532358,0.2448556670529468,-0.3938354816042135,-110.25734870040759,23.4707462068472,51.59024225915754,8
1767649674.756407,2,right_wrist,-0.6032,0.4646,-0.2045,25.97,0.0,-16.66,0.40080594969935796,-0.036530393398535414,0.842701615469901,0.3575948941584082,126.41345195748103,44.559196914092624,161.58510425904535,8
1767649674.822552,1,left_wrist,-0.5192,-0.0498,-0.344,-11.83,8.47,-19.74,-0.43262765463919955,0.7751676146514792,0.2362875829180447,-0.3951160080225417,-110.07965807832859,24.0863627872109,50.872552702151836,8
1767649674.822552,2,right_wrist,-0.5441,0.4982,-0.2928,-10.78,4.69,21.35,0.39590305187060815,-0.02975735397418117,0.8405414619891108,0.3685991373853199,124.83252063281819,43.43118975861697,160.54822457330548,8
1767649674.909405,1,left_wrist,-0.4885,-0.3587,-0.2245,4.34,14.63,-62.58,-0.4431511337770723,0.7714753027038916,0.2512894793633181,-0.3811778161322439,-109.88699127289487,21.43343907583683,51.21227632196069,8
1767649674.909405,2,right_wrist,-0.447,0.1503,-0.2098,4.13,10.85,118.58,0.3684913446729901,0.02486226447466059,0.8416442200748353,0.3939936592394678,121.51987974655283,36.919049727892464,155.44676096527135,8
1767649674.964869,1,left_wrist,-0.1405,-0.0171,-0.0698,35.14,79.17,-189.63,-0.5181307048785835,0.7418939902132761,0.31306317049408217,-0.2883146392877736,-107.36330363340457,5.933984260671775,50.12104331822419,8
1767649674.964869,2,right_wrist,-0.2157,-0.0371,-0.1879,-22.82,27.86,203.56,0.3232449587186484,0.08870643802269014,0.8383988879034985,0.4298036403736978,118.44997974904918,27.7596604066981,151.17796026218883,8
1767649675.016704,1,left_wrist,0.2694,-0.7842,-0.0732,84.07,89.74,-245.0,-0.5867599875482672,0.6935153899067759,0.36056990276451634,-0.2115146949864171,-102.93473057093661,-7.455642440545303,49.00081891864431,8
1767649675.016704,2,right_wrist,0.1527,0.5592,-0.2191,11.41,71.54,290.43,0.2366480958618341,0.18409505957117908,0.8317323259154806,0.46725584618458954,117.57107387292191,12.804010656454603,147.25953420466166,8
1767649675.069406,1,left_wrist,0.5758,-1.1409,-0.2704,24.99,113.61,-245.28,-0.6314335270002249,0.6525956310873539,0.40308473432283715,-0.11372484434653124,-100.92153481644951,-21.137648054792653,45.89237214735538,8
1767649675.069406,2,right_wrist,0.466,1.1204,-0.1362,-31.15,77.49,275.31,0.15132588000453048,0.26464537781685604,0.8033525327620274,0.5115545035925921,115.5303676244044,-1.582997970894403,144.53177404803841,8
1767649676.2129862,1,left_wrist,-0.2411,-0.6822,-0.2689,-36.75,-37.94,104.44,-0.4734511214470067,0.7290853574897708,0.33787509981354624,-0.3607201048189176,-107.32802011379802,11.891370302032525,58.48921216264284,9
1767649676.2129862,2,right_wrist,-0.2469,0.5973,-0.1498,32.55,-4.27,-130.48,0.3586824241020544,-0.0020294393901134178,0.8313607341933495,0.4244786563038603,118.49418563126076,36.73478995093275,157.92925689471176,9
1767649676.265294,1,left_wrist,-0.3577,-0.6695,-0.2445,12.25,-28.49,92.33,-0.45536102872849843,0.7363759389045531,0.30955095635273544,-0.39316029242392764,-106.81020556146119,17.284265951062448,58.47870298638758,9
1767649676.265294,2,right_wrist,-0.3963,0.6773,-0.2259,65.1,3.01,-94.64,0.3737756115503751,-0.024780720666213573,0.8416883375001853,0.38889388091043586,123.31556087216708,40.42704454843917,160.90685188804335,9
1767649676.363477,1,left_wrist,-0.4792,-0.4221,-0.2933,-34.23,-26.53,74.13,-0.4241384117026511,0.7500760326318286,0.29447162575887775,-0.4132541767636133,-108.7530617142071,21.72490864720214,58.52686947673901,9
1767649676.363477,2,right_wrist,-0.6529,0.4387,-0.2669,-1.82,-7.07,-42.35,0.403348190828575,-0.06773082247043502,0.834876466699563,0.3683803170556855,125.73212845207985,46.33534699918274,164.53734873057832,9
1767649676.414973,1,left_wrist,-0.5495,-0.4119,-0.2957,18.83,-6.16,29.68,-0.4031551480501156,0.7560261857965123,0.26523838060156507,-0.44219784536621853,-108.58538325357421,27.049613162001325,58.28280297587177,9
1767649676.414973,2,right_wrist,-0.6529,0.4387,-0.2669,-1.82,-7.07,-42.35,0.4158505570825059,-0.08348539614792229,0.8300761566684114,0.3620387782196721,126.40417167126223,48.66190695270406,165.75670471842466,9
1767649676.500865,1,left_wrist,-0.6022,-0.3811,-0.3382,-6.72,-0.28,7.49,-0.39567059513276476,0.7599982828657599,0.2618915891965481,-0.4441398267398305,-109.31766480969321,27.894528053683864,58.003278791415795,9
1767649676.500865,2,right_wrist,-0.6202,0.3006,-0.2294,17.15,0.91,25.55,0.4211281410367258,-0.07833283737840335,0.8310160576376494,0.35486246260146925,126.91083363103027,49.071112291024264,165.07826564119617,9
1767649676.558239,1,left_wrist,-0.6017,-0.2772,-0.2255,-2.03,10.5,-22.26,-0.3972409483602226,0.7611603095454211,0.2652985226801053,-0.4386927238766825,-109.67751505960331,27.197305908065516,57.771795353302316,9
1767649676.558239,2,right_wrist,-0.4802,0.1815,-0.2142,3.99,8.68,83.3,0.4076336683166758,-0.051405271146847904,0.8354144129408796,0.3650685541150523,125.22683830149911,45.94057821972335,162.27290669624335,9
1767649676.617093,1,left_wrist,-0.2723,0.1113,-0.0112,23.87,67.06,-149.87,-0.4588530399453487,0.7442826121399678,0.3106683720341943,-0.37280349195875556,-108.21215094783913,15.654749700944494,56.675183464469995,9
1767649676.617093,2,right_wrist,-0.0273,0.0366,-0.161,-47.81,49.77,251.09,0.3430036477444719,0.02352623008628996,0.8394738183832727,0.42080722710158047,119.60094789857959,33.78548968133932,156.7429079168717,9
1767649676.668048,1,left_wrist,0.0776,-0.3006,-0.0415,14.42,107.8,-228.9,-0.5149176231493426,0.7215871763719116,0.3608594261463536,-0.28974516877278145,-107.58632424423894,2.666765792689825,55.09089622005854,9
1767649676.668048,2,right_wrist,-0.0273,0.0366,-0.161,-47.81,49.77,251.09,0.2748916523387705,0.0985657901674071,0.8328523788997982,0.4701874939256489,115.90581785165155,21.41986260008025,152.996567173277,9
1767649676.753299,1,left_wrist,0.4607,-0.9345,-0.2908,89.25,132.16,-256.2,-0.5927257059142569,0.670380973813137,0.3994371529916144,-0.19928760199207016,-102.86842834684336,-11.906553354286006,52.07033130335199,9
1767649676.753299,2,right_wrist,0.5505,0.9579,-0.3128,40.6,101.57,347.97,0.06047822054074726,0.3035073432129096,0.7908605722680315,0.5279822276250856,116.52499567219591,-12.993074984643886,146.06729680263211,9
1767649677.807619,1,left_wrist,0.0434,-0.8677,-0.1405,29.61,-33.18,176.61,-0.5306492831771399,0.7006212782287933,0.3647108062905388,-0.30745274520085913,-104.35953380195949,2.5074227329876657,56.94527006794142,10
1767649677.807619,2,right_wrist,-0.2884,0.3167,-0.244,43.82,-13.51,-134.61,0.3692299665603293,0.05945695197530536,0.8181424275256663,0.43678034632761786,114.50429782774599,33.51987034433395,149.76274655967043,10
1767649677.865582,1,left_wrist,-0.144,-0.5446,-0.2367,-48.37,-45.78,131.32,-0.4600712452362633,0.7384689170534937,0.30114976774371843,-0.39026519860282044,-106.56633028033117,17.41536859562541,57.40497449808323,10
1767649677.865582,2,right_wrist,-0.2884,0.3167,-0.244,43.82,-13.51,-134.61,0.39704838241960916,0.020086560142175438,0.8281753621958717,0.39506288305960013,119.0650202052103,39.92471293162776,153.0981894549712,10
1767649677.916445,1,left_wrist,-0.3699,-0.7052,-0.2196,-45.92,-31.92,100.1,-0.4208737757234077,0.7553660633385499,0.2798984195668503,-0.41706624172752693,-108.91263283397475,23.233020752816092,57.374507623205545,10
1767649677.916445,2,right_wrist,-0.4616,0.5885,-0.3079,48.93,-19.32,-97.86,0.4168326551672924,-0.0006771009622559894,0.8335727948943576,0.3625003099757039,122.83892764442959,44.06002719230951,155.23056482044578,10
1767649678.005541,1,left_wrist,-0.467,-0.3626,-0.2655,22.33,-18.69,70.98,-0.40912193384979495,0.757903356667792,0.2534232131432912,-0.44042981306313467,-108.1995336988265,27.402884300505136,56.994596797533916,10
1767649678.005541,2,right_wrist,-0.5646,0.4831,-0.2938,31.99,-15.26,-45.99,0.4451875143045023,-0.033201394373671485,0.8293117440806164,0.3360770382650218,125.58617637127732,49.52726429243167,157.90342615738186,10
1767649678.0559978,1,left_wrist,-0.5353,-0.2289,-0.3523,-32.76,-5.6,18.41,-0.3901516887913167,0.7668013984830974,0.252601851475389,-0.4427071036801365,-110.27050139880546,28.805041199934095,56.75346572085483,10
1767649678.0559978,2,right_wrist,-0.6285,0.5451,-0.2054,4.13,-7.84,-23.45,0.4524261136275486,-0.03843986210613378,0.8263583665278722,0.3331138525767441,125.55909475495913,50.654945292339896,157.9617786537237,10
1767649678.114309,1,left_wrist,-0.5466,-0.0156,-0.242,-8.19,1.61,-38.08,-0.3932351932109967,0.7640409724361762,0.25453641168641394,-0.4436425254468927,-109.76621095067867,28.53769178392652,57.13070444500696,10
1767649678.114309,2,right_wrist,-0.5675,0.1083,-0.2347,7.14,1.33,20.23,0.45120399689345697,-0.03269155478816803,0.828122786716085,0.33099677574636144,125.77137030617946,50.259354502359024,157.5102606454998,10
1767649678.2025568,1,left_wrist,-0.4314,-0.2762,0.0005,3.15,37.03,-85.12,-0.4136843249100667,0.7602294155919929,0.27361011508215183,-0.41958791679109525,-109.5934784935963,24.30473784555622,56.864988508005325,10
1767649678.2025568,2,right_wrist,-0.182,-0.019,-0.1264,-23.59,41.93,193.06,0.3871624038752985,0.05571590856170192,0.8367830993561396,0.3831384282352495,120.71753311240028,37.24669716809353,150.67099599597913,10
1767649678.2543519,1,left_wrist,-0.246,0.2284,0.0229,51.52,91.14,-167.86,-0.4695124613761651,0.7454092275263392,0.3011080708962826,-0.36504391759376104,-107.6467588968446,15.157080619093026,55.106418572076734,10
1767649678.2543519,2,right_wrist,0.0273,0.0156,-0.182,-8.82,84.77,286.16,0.3024811229823143,0.14397478647023335,0.8380326150040578,0.43067129842801166,118.8728540142731,22.517554522423488,147.0935756798784,10
1767649678.308956,1,left_wrist,0.0786,-0.2323,-0.0708,-10.29,117.46,-243.67,-0.5187380466721393,0.7278131166179646,0.3580130495968272,-0.2702324231693866,-108.41192337895642,1.2564495604893422,53.29136990325665,10
1767649678.308956,2,right_wrist,0.2499,0.4797,-0.0859,60.76,104.79,326.62,0.19396974496035396,0.2509533906139078,0.8320912336618753,0.4549970468502589,120.86382744194054,5.418798363890714,143.35818061760776,10
1767649679.403866,1,left_wrist,0.1874,-0.6891,-0.3382,1.12,-108.01,191.24,-0.45239238236410867,0.7599617270811141,0.35866589650435166,-0.29859350367271237,-114.57337998335039,7.430520837783632,55.30685638764228,11
1767649679.403866,2,right_wrist,-0.0264,0.4499,-0.2967,21.21,-22.05,-192.5,0.44505987950174614,0.13487726937199918,0.8055335421899461,0.3672132054700143,115.1518370446874,38.167599174989135,136.2007459637234,11
1767649679.45591,1,left_wrist,-0.0756,-0.3777,-0.2572,-11.2,-87.43,155.47,-0.4103973677242926,0.7747848531061347,0.3252781484445163,-0.35422670439534076,-115.44346040209066,16.374374642923936,55.93348690430801,11
1767649679.45591,2,right_wrist,-0.2157,0.4089,-0.3143,24.92,-30.38,-149.66,0.47360483066557774,0.09368493336760796,0.8124880294399581,0.32677943577726865,118.59499209772427,45.102277207559275,139.14080551047695,11
1767649679.5154262,1,left_wrist,-0.4865,-0.3909,-0.1879,-1.26,-38.43,83.86,-0.34517284040275553,0.7900651012849456,0.27521003727569165,-0.4253378437931605,-117.15704832105648,28.822588348669864,56.253935911188705,11
1767649679.5154262,2,right_wrist,-0.4324,0.4534,-0.2513,38.36,-23.38,-110.95,0.4922147273726663,0.06817446381508856,0.8175501858975688,0.29101305499896024,122.51319271705147,49.91955237963482,141.82446610470387,11
1767649679.6050591,1,left_wrist,-0.5968,-0.121,-0.2542,5.25,-20.93,50.75,-0.3315638239998421,0.7923472233638763,0.2575152720784893,-0.44264793333810887,-117.26368021372183,32.052508031076634,55.873788797873296,11
1767649679.6050591,2,right_wrist,-0.6242,0.3431,-0.2733,-4.55,-17.71,-54.46,0.518620977139286,0.023431074155092595,0.8146401206200016,0.2585434986830266,126.39100783700326,56.393971206097426,146.39288507905835,11
1767649679.655214,1,left_wrist,-0.6407,-0.3548,-0.2518,-16.17,-8.61,28.07,-0.31655574213656507,0.7966556443030992,0.2496001743715208,-0.45036873722993775,-118.37847776089173,34.024880408236456,55.474743730809585,11
1767649679.655214,2,right_wrist,-0.6159,0.3309,-0.3162,21.42,-14.84,-24.22,0.5235733599421992,0.02144896933954522,0.8160104458291025,0.24400375155086645,128.3363534535946,57.56659749644138,147.20196681259029,11
1767649679.712877,1,left_wrist,-0.6212,-0.0581,-0.2796,33.88,7.21,-3.71,-0.3358878920839198,0.7915590385362304,0.23216550347660106,-0.45465678424331885,-115.91366258406522,34.319849705036965,54.57082769241373,11
1767649679.712877,2,right_wrist,-0.5841,0.2001,-0.2494,-7.84,-2.31,26.04,0.521946812179656,0.026585491316911323,0.8154643591816367,0.24876216716256497,127.39734720325498,56.93279069006622,146.2615305189481,11
1767649679.767432,1,left_wrist,-0.3884,0.0581,-0.0425,44.66,62.3,-102.06,-0.37515808317594757,0.7863749518306908,0.24705893053665598,-0.4240668963773419,-114.1705938383442,28.788570764659074,53.74733320586686,11
1767649679.767432,2,right_wrist,-0.3743,0.0761,-0.1313,-23.31,19.11,106.61,0.5050161804939659,0.054253443203001885,0.8154316341498302,0.2776445053798875,123.48214859470843,52.512487319290486,142.68670713755904,11
1767649679.818155,1,left_wrist,-0.2401,-0.4094,-0.0044,10.99,101.22,-163.45,-0.4206216771276527,0.7811738951037916,0.2831983408334904,-0.36420248501053565,-113.8025167410453,19.31565312721827,52.51408939558236,11
1767649679.818155,2,right_wrist,-0.1557,0.0688,-0.1708,-32.41,43.26,189.28,0.4633143835208391,0.10824953958524812,0.8160274347884605,0.3282088433830686,119.18697800010882,43.24328201334913,138.69812917271977,11
1767649679.908075,1,left_wrist,0.0317,-0.04,-0.2006,95.9,148.26,-213.15,-0.4994259793294659,0.7575460627083301,0.3126434950374775,-0.28098344979137374,-110.21071631887298,6.513149914573152,49.39767050802847,11
1767649679.908075,2,right_wrist,0.2523,0.4904,-0.164,-19.25,80.85,320.46,0.3100947247146603,0.28508925644623523,0.7803184368095596,0.46224291745591617,112.95031312480297,12.731604745529909,131.4061459933374,11
1767649679.966996,1,left_wrist,0.8486,-1.2517,-0.4153,70.91,155.26,-252.84,-0.6115672365394893,0.6786207897910429,0.4010739451195165,-0.06781614410375174,-105.34921362996381,-23.485968827544372,43.15415616566467,11
1767649679.966996,2,right_wrist,0.9501,1.4118,-0.5319,22.47,124.67,317.94,0.19502432280127843,0.36942941853368155,0.7525048072341112,0.5091403866590449,114.00873330218336,-4.7420191569990235,130.78411906124586,11
1767649681.057664,1,left_wrist,-0.0059,-0.551,-0.3475,-2.03,-73.08,176.12,-0.4920758098651573,0.7105004300844344,0.35848036729432503,-0.352905599927104,-105.64254661396545,8.550445732844452,60.03637144455905,12
1767649681.057664,2,right_wrist,-0.0917,0.4036,-0.1401,28.21,-11.76,-191.03,0.47666135790894976,0.029298568769416267,0.7820065169354056,0.40050137479790865,108.95964497803352,46.222861562909024,141.82303470887732,12
1767649681.11679,1,left_wrist,-0.3626,-0.5754,-0.2186,-53.27,-44.17,111.16,-0.39921212362262315,0.7496057311866915,0.30982678619924997,-0.42746729778805925,-110.0911462750199,23.17187322023857,61.2235948040489,12
1767649681.11679,2,right_wrist,-0.5212,0.2957,-0.2582,9.59,-1.05,-76.86,0.4898036499766673,0.00331780135692352,0.7858567716263032,0.3775056438687705,111.51365777594424,50.1143742019898,144.2095144260737,12
1767649681.201055,1,left_wrist,-0.5187,0.022,-0.2298,10.29,-30.31,75.46,-0.38079574519819726,0.7534683717813493,0.28624833082106993,-0.4531466719134801,-109.75818934818128,27.7011021523359,61.28100491456139,12
1767649681.201055,2,right_wrist,-0.6046,0.4934,-0.2333,-4.13,1.4,-42.42,0.5043463839282051,-0.03542321743341721,0.7893241082169385,0.3483494981663432,115.80049348806664,55.17146143706519,148.84690969372957,12
1767649681.259331,1,left_wrist,-0.5012,-0.2669,-0.2962,-31.29,-10.43,37.73,-0.35774055808852806,0.7631441970745434,0.2795811978455567,-0.45985539181486473,-111.7921706029519,30.12160159652196,60.89446682215988,12
1767649681.259331,2,right_wrist,-0.6471,0.446,-0.3606,30.87,-15.05,-16.38,0.5095900128856128,-0.03158075644253606,0.7926499855840001,0.33320665501073393,117.53247671213404,55.985790846107875,148.8300422443869,12
1767649681.31735,1,left_wrist,-0.5431,-0.1508,-0.1942,-1.89,24.64,-58.03,-0.3721194097408646,0.7601730953040943,0.29396297022946394,-0.4441281146288469,-111.67039939976556,27.1582579181672,60.90328035905409,12
1767649681.31735,2,right_wrist,-0.6071,0.1469,-0.2128,3.29,-10.57,39.76,0.5086673041461351,-0.0185209048953987,0.7919438368501964,0.33725288590247604,116.33080249570517,54.901456110773445,146.92808476643302,12
1767649681.404547,1,left_wrist,-0.4172,-0.0132,-0.0532,21.77,61.39,-106.54,-0.4051176395498946,0.7545799483956337,0.31261716598135525,-0.41080324626096876,-111.05498602841791,21.51066009100085,59.86851684714125,12
1767649681.404547,2,right_wrist,-0.2567,-0.041,-0.0703,14.77,29.75,191.17,0.45274648142294427,0.07467248669489328,0.798767588916716,0.38912078097439207,112.62156283900258,41.6950001830072,140.82928738075105,12
1767649681.4627469,1,left_wrist,0.164,-0.0737,0.0083,74.55,143.85,-238.07,-0.5472180816067207,0.7001317845952453,0.3714659560313394,-0.26903698420823174,-104.85993750533346,-1.7089904684775012,54.58306575348164,12
1767649681.4627469,2,right_wrist,0.0708,-0.1928,-0.042,-13.16,64.19,298.27,0.3763294376237544,0.1635884594166907,0.793243861218886,0.4498656988057826,110.44682446126342,26.7344684773832,137.95463327361492,12
1767649681.5226839,1,left_wrist,0.4685,-0.5797,-0.183,73.5,171.78,-301.63,-0.6266122683099306,0.6444297045661829,0.41145103363225044,-0.15091543327035423,-100.28962803892927,-18.73138242733275,49.43509031740185,12
1767649681.5226839,2,right_wrist,0.8223,1.221,-0.1591,53.97,116.34,387.03,0.24945235587155196,0.2815178313786912,0.7818952257125239,0.4971529832696697,112.55436981373384,6.325481629917819,136.17304440410507,12
1767649682.56944,1,left_wrist,-0.164,-0.4416,-0.3289,1.05,-53.41,125.37,-0.475612182159009,0.717501515701309,0.34433934714786385,-0.37471995030162547,-105.8339759607075,12.132917788441263,60.45914499314324,13
1767649682.56944,2,right_wrist,-0.2782,0.4836,-0.1932,34.86,-9.59,-150.01,0.4154653800175504,0.08814477806736842,0.8122475859762937,0.39984106240106226,114.86914471569158,37.188102398004645,143.3601055593855,13
1767649682.661639,1,left_wrist,-0.3416,-0.5588,-0.2547,-0.98,-20.93,94.78,-0.4527994648536555,0.7298843986205248,0.3167691982373294,-0.40236635585828723,-106.20318575267683,17.48739672789725,60.09528689289975,13
1767649682.661639,2,right_wrist,-0.5617,0.5788,-0.2147,-42.35,-0.07,-74.41,0.4517717635499815,0.021142976656106365,0.8115761079585785,0.369864122601618,117.18916083687591,45.861151668493875,148.05130067133084,13
1767649682.713025,1,left_wrist,-0.507,-0.3401,-0.3767,-29.4,-14.28,34.51,-0.4076406764508123,0.7528123091075803,0.2941218051559608,-0.4249647866478305,-109.5355247176488,23.5810180212175,59.453694302847865,13
1767649682.713025,2,right_wrist,-0.6612,0.324,-0.2586,3.85,-3.29,-51.52,0.46328889092618275,0.0012915540090364783,0.8120811077991978,0.35480418513351386,118.91382320612028,48.72393795000419,149.898907173757,13
1767649682.766907,1,left_wrist,-0.5524,-0.3606,-0.2865,-1.75,-4.48,7.98,-0.4014276047282987,0.7550731062604372,0.29028209006918415,-0.4294843309707366,-109.84613900936283,24.552675337632206,59.433268286320825,13
1767649682.766907,2,right_wrist,-0.609,0.4641,-0.265,23.73,-4.41,-18.62,0.4661650383421457,-0.0007031034685993853,0.8167797174215756,0.33994198899475386,121.07476856140003,49.639622245321355,150.81469298045502,13
1767649682.850759,1,left_wrist,-0.5485,-0.2606,-0.2367,-8.05,11.48,-22.19,-0.4010131407983893,0.7573472241765543,0.2946807498127689,-0.4228201729209045,-110.53233657925566,23.834844937513623,59.17083392566765,13
1767649682.850759,2,right_wrist,-0.4792,0.1552,-0.2069,6.23,7.14,82.6,0.4532282666855926,0.03398388492349497,0.8210310586273072,0.3454522175525919,120.3725335830255,46.11638289383753,147.84360383336622,13
1767649682.908594,1,left_wrist,-0.4377,-0.1937,-0.1698,14.7,29.75,-68.46,-0.41903465594490696,0.7525053239886065,0.30686755475429184,-0.4049419690832966,-110.04999363886728,20.625957900330995,58.879617836137584,13
1767649682.908594,2,right_wrist,-0.1386,0.1835,-0.1166,-9.24,31.15,245.7,0.39911709229616465,0.1170293033954999,0.8182935684532809,0.3967433989517839,116.27050588223972,34.078532042930036,142.1500762383123,13
1767649682.96302,1,left_wrist,-0.0898,-0.4372,-0.0551,-6.65,90.72,-194.04,-0.4990210004590861,0.7225317609503495,0.3754524697222167,-0.29658276837720626,-109.05692510965314,3.087651531414811,57.11624385931954,13
1767649682.96302,2,right_wrist,-0.1386,0.1835,-0.1166,-9.24,31.15,245.7,0.3419216418503744,0.1966362783831868,0.8070076491227106,0.4395024677011384,114.2350795256439,22.273147294602687,138.10657934879814,13
1767649683.0557592,1,left_wrist,0.2396,-0.6744,-0.1786,83.16,109.62,-223.58,-0.570651574354189,0.6755022844428282,0.41061123524053417,-0.22237773695639687,-104.68000005716881,-9.68309584521105,55.10719138518509,13
1767649683.0557592,2,right_wrist,0.5061,0.8457,-0.1654,28.77,85.33,325.15,0.1482996946839151,0.3777791404482142,0.7417371867462866,0.5339626086127852,113.10651620360461,-10.570257169520337,133.01234691690962,13
1767649684.165616,1,left_wrist,-0.2699,-0.4524,-0.2225,-24.92,-59.64,110.81,-0.3940225855825516,0.7302493759614544,0.40812734017175833,-0.38067587940802455,-114.27477687066822,13.553538523290781,67.18004555860952,14
1767649684.165616,2,right_wrist,-0.2162,0.4909,-0.2006,33.74,-27.02,-152.18,0.40369895686321766,0.11162270751086821,0.8212336488508795,0.38748266721308117,117.22319493198162,35.2088555451361,142.60623231769335,14
1767649684.219341,1,left_wrist,-0.3865,-0.4514,-0.2747,-33.39,-40.46,88.83,-0.35767766407455576,0.7458197490172424,0.3896801059154085,-0.40493086527428684,-116.1119233808716,18.98079046967819,67.07405339832856,14
1767649684.219341,2,right_wrist,-0.4153,0.2747,-0.203,-28.84,-18.34,-105.91,0.4316172735465582,0.06885519573819902,0.8177165739962249,0.3745732182203719,117.2961985605126,40.86648533729514,144.7968887112377,14
1767649684.270738,1,left_wrist,-0.4968,-0.3816,-0.3201,-12.88,-25.62,55.37,-0.33554946919353695,0.7540284062318887,0.3756742387645227,-0.4215644466128871,-117.0087320688441,22.558625499348427,66.90093415265596,14
1767649684.270738,2,right_wrist,-0.6364,0.5031,-0.2708,6.44,-1.47,-36.19,0.44097400806004955,0.05465910415726988,0.8190005994672288,0.36303212615483493,118.39376404342248,43.049498636065195,145.89884365403515,14
1767649684.356684,1,left_wrist,-0.5217,-0.5134,-0.3675,-0.63,-15.33,28.77,-0.3237761095333044,0.7574868426811472,0.3663446176020437,-0.43263649316075614,-117.2555719255093,24.721353293414694,66.84140938474728,14
1767649684.356684,2,right_wrist,-0.6115,0.5192,-0.3177,1.33,-5.32,-17.85,0.4532494930085247,0.03471866314369707,0.8211479903206091,0.345073165443873,120.40184783013474,46.08824721490605,147.77552534708263,14
1767649684.415939,1,left_wrist,-0.5856,-0.0547,-0.2811,-6.44,6.23,-20.09,-0.3139190420831392,0.7606099576047068,0.36403894797132447,-0.4363518898436235,-117.95887701006369,25.799908985511088,66.8365682901896,14
1767649684.415939,2,right_wrist,-0.6554,0.4236,-0.2523,18.2,-3.43,7.0,0.45636289854532824,0.03885904484219548,0.8222340674497248,0.3378668640016949,121.00012204959717,46.40365710590241,147.32498179011998,14
1767649684.500287,1,left_wrist,-0.4651,-0.1767,-0.225,24.64,28.84,-67.76,-0.33595382198105395,0.7530258170943172,0.37562495546682295,-0.42307569194684946,-116.80847552961534,22.630614339208122,67.0553526035297,14
1767649684.500287,2,right_wrist,-0.4534,0.0825,-0.203,24.92,16.59,113.19,0.4277168038806881,0.0991594969140044,0.829254676694985,0.3457779793875642,120.96450028519806,39.85134854114047,143.16542049386297,14
1767649684.5562172,1,left_wrist,-0.3553,-0.1659,-0.1259,17.57,51.31,-116.9,-0.368476863387727,0.7407156191587753,0.40060345930684654,-0.3938045721846842,-115.90086105649473,16.748319532092637,67.34320035408284,14
1767649684.5562172,2,right_wrist,-0.1581,0.0986,-0.2045,-13.93,36.26,199.43,0.3819059561952176,0.16189208792559676,0.8245174338390465,0.3848503524555758,118.52100272104852,30.342490854483426,139.46230904658458,14
1767649684.613153,1,left_wrist,0.0659,-0.2635,-0.2191,37.31,112.7,-210.91,-0.490562208004139,0.6808365890541421,0.46846175937411083,-0.27632198444448425,-111.54722669143118,-4.781669605822777,65.80736530471425,14
1767649684.613153,2,right_wrist,0.0527,0.3538,-0.1679,-23.31,68.95,266.77,0.3081278221193726,0.24320208805802218,0.8068647568353036,0.44145130397054766,115.98952215495217,16.410138470528064,136.15353879193185,14
1767649684.702975,1,left_wrist,0.3133,-0.7974,-0.286,-21.07,132.02,-235.48,-0.538106279575679,0.6463955252990805,0.5108877004643531,-0.17778699128111772,-112.17985695761907,-18.661856180015484,64.03713845608205,14
1767649684.702975,2,right_wrist,0.7901,1.2776,-0.3328,-51.66,117.39,299.11,0.11864707425138091,0.3961350456163922,0.7254921846799025,0.5501463326920107,112.332073856868,-15.290281314259149,133.01159085388676,14
1767649685.767332,1,left_wrist,-0.1825,-0.3777,-0.2562,-4.55,-37.94,149.38,-0.40700510555062624,0.7049004175370811,0.42208021418510877,-0.3991372423180092,-111.02605993179851,12.657728235794274,70.53853601916278,15
1767649685.767332,2,right_wrist,-0.1986,0.4451,-0.2303,20.51,-18.62,-160.02,0.3971710327094913,0.10338970823663876,0.8201261758989482,0.39869636894833443,116.47456482308642,34.68181234814462,143.74671895559905,15
1767649685.85687,1,left_wrist,-0.3128,-0.3162,-0.304,-6.93,-30.31,103.81,-0.3767610020959693,0.7215460641112512,0.3950128955811105,-0.42589580532077265,-111.87208361658222,18.478934697088572,69.95052423317993,15
1767649685.85687,2,right_wrist,-0.5104,0.3099,-0.2606,21.77,-0.07,-69.44,0.4333879807200842,0.04265715576032426,0.8316866612630912,0.34445975484352265,122.39768156597546,43.74885806902448,149.23362026410146,15
1767649685.907091,1,left_wrist,-0.4773,-0.3719,-0.2967,-15.26,-24.22,69.37,-0.35091382241616315,0.7330113033956905,0.3777264586257877,-0.44370783268435743,-112.96064974313408,22.667758025865076,69.64997339554785,15
1767649685.907091,2,right_wrist,-0.5749,0.6066,-0.2967,19.11,-17.5,-47.04,0.44605505183852395,0.03374442714251703,0.8305439150884848,0.3318026664685605,123.30476504502077,45.93437089651234,149.588570422191,15
1767649685.962173,1,left_wrist,-0.529,-0.2733,-0.3494,2.73,-7.0,37.45,-0.3393343710768072,0.7394242288672984,0.36440876390056226,-0.45311173805406235,-113.34310216859619,25.009640996968635,69.06595762429743,15
1767649685.962173,2,right_wrist,-0.6178,0.345,-0.2596,-17.57,-8.26,-25.97,0.4560028460289284,0.019471616819798615,0.8261725411108708,0.3303349706984514,122.99168027249915,47.78338268942933,150.24845193915255,15
1767649686.020824,1,left_wrist,-0.5622,-0.1684,-0.3797,33.46,7.07,-19.32,-0.3388561039309331,0.7421296513592784,0.36052090327863434,-0.45215572505638146,-113.55900400133827,25.263822388951155,68.519503293699,15
1767649686.020824,2,right_wrist,-0.53,0.2821,-0.286,-7.7,9.94,53.62,0.44528772100300573,0.033445231223983025,0.8276954727584629,0.33988301871006765,122.15336772070607,45.59325668711491,149.22328260755197,15
1767649686.104446,1,left_wrist,-0.4538,-0.2869,-0.2743,-6.3,18.48,-54.11,-0.34642524531506397,0.7399867165568647,0.3744417955122258,-0.4384091131595793,-114.06415064585916,22.917273976364303,68.65976892064876,15
1767649686.104446,2,right_wrist,-0.4329,0.1166,-0.2625,0.49,15.68,113.19,0.41260479036831443,0.0833565902508543,0.8297608377458288,0.36647771824520353,120.00362914609686,38.581698246335364,145.67927426461065,15
1767649686.158334,1,left_wrist,-0.3806,-0.2323,-0.1283,47.67,44.73,-100.45,-0.38523962428567404,0.7250072572104203,0.3882389285158009,-0.4185993827723104,-111.76090029797307,17.92941667692398,68.53963499771933,15
1767649686.158334,2,right_wrist,-0.0181,0.2557,-0.2006,-54.95,62.93,261.8,0.3433167620840482,0.15937791507305235,0.8178015876809689,0.43351221925751793,115.38598906318796,25.045979946185355,141.95397961745138,15
1767649686.220962,1,left_wrist,0.0698,-0.2977,-0.2323,77.7,105.35,-223.3,-0.5104152162042807,0.6651178980585886,0.45149011516269816,-0.30537053665937736,-107.03096371480733,-3.134498274907591,66.01991698150628,15
1767649686.220962,2,right_wrist,-0.0181,0.2557,-0.2006,-54.95,62.93,261.8,0.26927870912176466,0.23303661131356038,0.7940518200870763,0.4926100096603905,112.15532341153995,11.422961009315502,139.592078351184,15
1767649686.306806,1,left_wrist,0.4075,-0.8569,-0.3787,15.96,113.26,-251.09,-0.567397814515714,0.6214485434310318,0.4959725772092595,-0.21417896863755143,-106.07129900442452,-17.255010888738106,64.15774008654034,15
1767649686.306806,2,right_wrist,0.59,0.876,-0.2152,-4.48,119.63,307.44,0.06158786830345853,0.38873623427681053,0.7224295094434303,0.5684950998236001,111.70641382306871,-20.67113312540397,137.53348118434738,15
1767649687.520855,1,left_wrist,-0.2933,-0.7837,-0.3806,-26.32,-45.99,100.66,-0.3767010394011171,0.7191054091095518,0.39918894486027223,-0.4261829698672212,-111.80793745860392,18.19133071099382,70.44179553566707,16
1767649687.520855,2,right_wrist,-0.4207,0.4729,-0.224,5.88,-9.03,-120.89,0.4139107304957498,0.05952141075057964,0.8108216035919652,0.4095160997949774,114.29023210930359,38.496408040478414,146.1871798112034,16
1767649687.605068,1,left_wrist,-0.4485,-0.57,-0.3299,-0.35,-27.58,76.51,-0.3535749059225982,0.7287775528841224,0.3774701250538099,-0.44875869797243717,-112.12131336356519,22.77806311926181,70.20372304464415,16
1767649687.605068,2,right_wrist,-0.5495,0.5885,-0.3333,16.52,-3.5,-40.6,0.4346611004340873,0.03296777469566737,0.8262288519011008,0.3568315259155684,120.72446519932232,44.00580129335077,149.53488691191353,16
1767649687.664242,1,left_wrist,-0.4758,-0.367,-0.3621,-60.69,3.29,26.11,-0.30667198059636347,0.7534499222423883,0.35854298622916847,-0.45794370616475677,-116.40393415299582,28.045015634688966,68.4997986316646,16
1767649687.664242,2,right_wrist,-0.5705,0.3226,-0.3475,3.99,-12.74,-18.76,0.4425393507386004,0.02676710984139237,0.8261405457386759,0.3477560115443003,121.48759675586791,45.445429454088156,149.88450128948335,16
1767649687.718902,1,left_wrist,-0.5915,-0.1659,-0.284,26.11,11.83,-11.48,-0.3157176444926165,0.752060659263616,0.35339264879985116,-0.4580838018509651,-115.50171216825764,27.76647821478007,68.06467483206484,16
1767649687.718902,2,right_wrist,-0.6315,0.3562,-0.2723,14.07,-2.31,13.16,0.44389754359709976,0.03180960770740701,0.8275794154446908,0.34213364461593854,122.02065257800085,45.475826354356684,149.45224226323992,16
1767649687.7697349,1,left_wrist,-0.5041,-0.039,-0.263,-24.99,24.57,-64.54,-0.32033682438244726,0.7519271547054657,0.3741444518144709,-0.43818466670749795,-116.90050554731442,24.787965886243132,68.276910233242,16
1767649687.7697349,2,right_wrist,-0.5934,0.5627,-0.2708,-7.0,3.08,32.9,0.43831385069962997,0.043451325583314514,0.82486137103997,0.35439620364216107,120.3455984395081,43.81232031452429,148.0037077299896,16
1767649687.853559,1,left_wrist,-0.3338,-0.4104,-0.1059,40.32,42.98,-105.84,-0.3601182131771866,0.7355043211037438,0.3928015430733307,-0.418396001337252,-114.46186212756166,19.42387577506131,68.7829871749078,16
1767649687.853559,2,right_wrist,-0.2489,-0.0986,-0.1488,-6.86,41.65,176.47,0.3793846442859936,0.11888595891126015,0.8263807270266375,0.3987835433573783,117.74111089708096,32.155086301736354,143.87864347477733,16
1767649687.905546,1,left_wrist,-0.2435,-0.0595,-0.0839,-6.72,76.79,-159.32,-0.3962717689745293,0.7226461985210824,0.4300509873464648,-0.3685204270581974,-114.9709929493696,11.057010501003367,68.57528257321317,16
1767649687.905546,2,right_wrist,0.0991,0.1279,-0.2133,-28.35,50.05,280.63,0.30729082615143904,0.2071004328704414,0.8102952035040467,0.4539861694439351,114.8094733916599,18.056283611893466,139.72373678905305,16
1767649687.9637928,1,left_wrist,0.4763,-1.0472,-0.2835,64.26,141.61,-235.41,-0.5345897000906213,0.6419978110853258,0.5071926391114268,-0.2116796871451206,-110.6053772349025,-15.693077433481838,65.71829914274743,16
1767649687.9637928,2,right_wrist,0.4529,0.6529,-0.0478,-66.64,75.74,322.21,0.21782451268985117,0.29580956714517526,0.768367387785515,0.5240808516292852,110.84811730773956,1.4143320331663234,136.9132994366316,16
1767649689.2038069,1,left_wrist,-0.2889,-0.5173,-0.2289,-1.4,-32.62,126.42,-0.39436137601110055,0.6712961978974822,0.4488678718730938,-0.4385865403761675,-108.23968517322061,13.580461554017655,77.38340455460616,17
1767649689.2038069,2,right_wrist,-0.4782,0.4909,-0.1845,12.74,-9.03,-102.83,0.4484183606584211,0.014278269162323833,0.7924893432990525,0.4131316323057082,111.01607632652114,44.34169613889204,146.65303162248682,17
1767649689.2541099,1,left_wrist,-0.3919,-0.3836,-0.2669,-49.35,-21.42,98.91,-0.35248566604942455,0.6964623834393606,0.43071070298755065,-0.4529705222369644,-111.1634899162368,19.105897467828118,76.62307015836916,17
1767649689.2541099,2,right_wrist,-0.5866,0.6666,-0.2181,38.57,-5.95,-75.67,0.46168059490617613,-0.00040411134185955506,0.7976798823750673,0.38801761588258005,113.77887289823157,47.464639399726096,148.06130243313805,17
1767649689.306222,1,left_wrist,-0.4802,-0.5363,-0.2796,-16.66,-9.8,71.4,-0.3277230435489805,0.7118221330386897,0.4113066210987293,-0.46554669055164494,-112.49093945500971,23.152735483493714,75.63050071212791,17
1767649689.306222,2,right_wrist,-0.6222,0.3811,-0.2435,-3.71,0.21,-56.07,0.4722800073747039,-0.023449946127429684,0.7977160928755849,0.37423352312170227,115.46602609310584,50.447573235169706,150.24062147605878,17
1767649689.365224,1,left_wrist,-0.5436,-0.3782,-0.305,-1.33,2.24,8.82,-0.3089687778878525,0.7249477316931388,0.3950557053180671,-0.4721441202631929,-113.8656310924005,26.131949369909854,74.36087411315985,17
1767649689.365224,2,right_wrist,-0.5993,0.5905,-0.2523,16.52,-6.58,-23.87,0.4757713441255771,-0.02430333485827099,0.7992455757210771,0.36641163425032336,116.35922056894648,51.10759042975793,150.4334397697838,17
1767649689.415599,1,left_wrist,-0.5461,-0.1357,-0.304,5.39,14.28,-34.72,-0.3163755762328499,0.7231576893551344,0.4011396554014421,-0.4647971901316611,-113.88407108451848,24.734985676750707,74.27854026841398,17
1767649689.415599,2,right_wrist,-0.5866,0.2908,-0.2001,-7.56,-3.5,17.22,0.4762251001607444,-0.022300338327854465,0.7977321456524572,0.36923674340466067,115.73711872730327,50.92016753843582,149.90561600789655,17
1767649689.46991,1,left_wrist,-0.4299,-0.2782,-0.2269,21.77,25.76,-72.73,-0.33863445162580486,0.7140838117737003,0.41380647975844803,-0.45185751653010514,-112.90242818745784,21.411891600472824,74.47545069977238,17
1767649689.46991,2,right_wrist,-0.508,0.2284,-0.1386,19.6,3.78,80.71,0.4646024850343821,0.006413880358194358,0.8015790553081147,0.3762637520808748,115.08334639897961,47.73180918609968,147.64936732320436,17
1767649689.5527492,1,left_wrist,-0.2894,0.0156,-0.162,8.89,56.49,-145.46,-0.37596289052526805,0.6982076612724409,0.44663951312492445,-0.41433212765109617,-112.67423097425223,14.048312041230112,74.59568938870076,17
1767649689.5527492,2,right_wrist,-0.1147,0.1474,-0.1396,-31.71,43.05,222.95,0.37476106435745854,0.11699805112786747,0.7991937469254046,0.45514278589172236,110.50076379412387,29.50580643077546,142.63768843515845,17
1767649689.602893,1,left_wrist,0.0429,-0.3065,-0.1708,24.29,84.7,-199.57,-0.4354785108211831,0.666890837253186,0.48944932097000937,-0.35504146237123646,-111.65521314529657,2.70871996801869,74.39103760370661,17
1767649689.602893,2,right_wrist,0.1493,0.9174,-0.2547,41.93,52.78,279.86,0.29302718470752037,0.2120652741810801,0.794876519051255,0.4871701016789185,111.4762097350311,15.0236147715195,139.85867424527862,17
1767649689.655806,1,left_wrist,0.183,-0.7954,-0.2655,20.37,121.38,-239.4,-0.5037648197185209,0.6240461380316867,0.5308139552461933,-0.27390503634945357,-110.4231978965041,-11.125111811732046,73.02761956099233,17
1767649689.655806,2,right_wrist,0.467,0.8501,-0.2176,-67.41,100.45,306.32,0.19402115764633934,0.2877067079131051,0.7559280642287862,0.5551156657118386,107.96944613693447,-1.4949549214160431,139.41307257802427,17
1767649690.866575,1,left_wrist,-0.3182,-0.4363,-0.3675,-35.0,-58.38,109.55,-0.3490454339136754,0.6994532580050283,0.4770052635254596,-0.4017442015750473,-116.44726608397254,13.23876760179314,76.8088935238514,18
1767649690.866575,2,right_wrist,-0.3577,0.5695,-0.2562,-7.42,-17.64,-133.84,0.4063179100273698,0.09119882597583467,0.815004437398423,0.40293460654614865,115.2746738601183,36.07242847614828,143.91208027462613,18
1767649690.952087,1,left_wrist,-0.447,-0.673,-0.286,-12.46,-34.58,81.13,-0.3213693097746583,0.7123009968788776,0.45694918079673025,-0.42490764025787303,-117.06542410761541,18.157211116958436,76.5321865387906,18
1767649690.952087,2,right_wrist,-0.5783,0.5431,-0.2206,-7.84,-2.66,-85.82,0.4460235911098778,0.018769749576086313,0.8153607179708114,0.3686428519101141,118.1291698042537,45.52053102213726,149.13425432976,18
1767649691.003627,1,left_wrist,-0.4748,-0.449,-0.3562,9.1,-23.66,66.64,-0.3030733629435933,0.7213768388052284,0.4357360044141878,-0.4448551759467292,-117.00955935741604,22.191070661585815,75.96980736353548,18
1767649691.003627,2,right_wrist,-0.5919,0.6432,-0.3109,21.21,-3.08,-62.44,0.45405859438661733,0.004067400307822883,0.8185740504265806,0.35178228080249774,120.40756623463915,47.773981574191644,150.9708691044772,18
1767649691.0544178,1,left_wrist,-0.5183,-0.5397,-0.3401,-70.28,-18.76,51.66,-0.2635467832631699,0.7376626193956765,0.4329954777861843,-0.4459953690282661,-120.86773836608572,25.45227259316683,75.42611678210376,18
1767649691.0544178,2,right_wrist,-0.6539,0.5085,-0.2474,-14.42,-9.87,-55.72,0.46844900918957283,-0.017364295975352367,0.8121367467968321,0.34740165733174894,120.26147910448854,50.61990878766495,152.0599482975825,18
1767649691.110924,1,left_wrist,-0.6002,-0.5773,-0.3655,28.35,-20.37,39.06,-0.25808422227036215,0.7383884164266192,0.4147819590798365,-0.4648989214054864,-119.53907771589992,28.19374813710525,75.3000670108946,18
1767649691.110924,2,right_wrist,-0.6573,0.3192,-0.2528,11.41,-2.17,-25.62,0.4752837700123118,-0.02668972961566266,0.813265453846561,0.33465250316660394,121.99592840524895,52.27225482399189,153.32564447297435,18
1767649691.163927,1,left_wrist,-0.6071,-0.3392,-0.2469,-12.04,4.83,-12.53,-0.24399534165108555,0.7428735781060682,0.412099434379084,-0.4677383631784937,-120.656349516506,29.5933047010666,75.1545905295311,18
1767649691.163927,2,right_wrist,-0.6495,0.3475,-0.2923,-5.81,-2.52,5.32,0.4756413914432662,-0.027994016000060754,0.8132385206275812,0.3341028440189717,122.10838445149768,52.403373241766516,153.49265049125756,18
1767649691.218894,1,left_wrist,-0.5588,-0.1464,-0.2845,20.51,26.18,-48.72,-0.2614421176807066,0.7386549479052481,0.4188817861703484,-0.4588844476036002,-119.84368227977076,27.31536594663137,75.1356822213767,18
1767649691.218894,2,right_wrist,-0.6364,0.1937,-0.2089,16.31,-0.49,56.35,0.470127142124935,-0.007340529561503085,0.8157706376530582,0.3368157561728973,121.38848974202637,50.53172354206892,151.35531366965145,18
1767649691.306774,1,left_wrist,-0.4714,-0.0971,-0.1791,10.15,39.55,-97.58,-0.2879555308789755,0.7281617375836387,0.44148847619091086,-0.43812101244520457,-119.18316802493489,22.56850713728563,75.81576074803868,18
1767649691.306774,2,right_wrist,-0.2933,0.0478,-0.1508,-17.57,37.24,196.7,0.4093209783433183,0.08660706340350499,0.8175378045740961,0.39571137379263827,116.10213662365491,36.92205088474138,144.3845936869617,18
1767649691.369816,1,left_wrist,0.0537,-0.3479,-0.2484,17.78,137.41,-202.02,-0.42617491598123236,0.6781077309934502,0.49662905144812974,-0.33452119725517376,-114.40171736511816,1.7409785079390458,73.55821695183202,18
1767649691.369816,2,right_wrist,-0.0532,0.4016,-0.1913,1.54,51.66,268.8,0.33827335503656714,0.17534273407839265,0.8110756821826695,0.4438268813964924,114.21727867709626,23.146715126283617,140.51394342601324,18
1767649691.451714,1,left_wrist,0.3948,-1.16,-0.2713,16.45,129.5,-236.67,-0.49332282426480933,0.6358600834525195,0.5372955793680081,-0.25224592310430577,-113.25071367160213,-12.083332718168645,72.41842367135712,18
1767649691.451714,2,right_wrist,0.5412,0.6612,-0.2801,54.18,110.88,299.88,0.12422490730457003,0.3468566252692422,0.7712761234206085,0.5190296671224892,115.88653520236662,-9.69680118542899,137.65281433144003,18
1767649692.6646988,1,left_wrist,-0.2118,-0.4631,-0.2625,-38.08,-38.57,128.52,-0.34920426582737324,0.6698353614219231,0.48001053912173974,-0.4460570049318623,-111.78828422995267,15.208126861703967,81.5832565366364,19
1767649692.6646988,2,right_wrist,-0.4612,0.55,-0.2318,24.78,-13.72,-117.32,0.4279930917972539,0.03279530314998339,0.8147806319871905,0.3897164394834818,116.44856495645539,42.21227057712901,148.49639996308167,19
1767649692.717115,1,left_wrist,-0.4329,-0.591,-0.325,-28.42,-28.42,62.16,-0.288160454216958,0.6957920673040774,0.4583273349415081,-0.4719883534025066,-114.97988726153807,23.120604761038212,81.60148580623938,19
1767649692.717115,2,right_wrist,-0.5148,0.5578,-0.283,6.37,-8.05,-87.64,0.44184319334319666,0.00672355996920743,0.8162049494824049,0.3722080959329763,118.45292989308334,45.74689075625048,150.85190205427674,19
1767649692.801165,1,left_wrist,-0.5363,-0.2923,-0.3094,24.71,-6.93,36.19,-0.28282278725109783,0.7003433988629824,0.4411728413639918,-0.4846616538611117,-114.20028517116161,25.423887753596652,81.02219569166105,19
1767649692.801165,2,right_wrist,-0.5954,0.551,-0.2557,76.44,-8.96,-27.3,0.4617884821746799,-0.0033807659720028463,0.8275615179772429,0.3191894454950687,125.14667650709006,50.038390435569944,153.23862834087078,19
1767649692.8525271,1,left_wrist,-0.529,-0.6095,-0.3396,3.57,-14.07,9.52,-0.2753566585279547,0.7005073910132945,0.4370594792607194,-0.49238919294437744,-114.00433518868513,26.689165893753326,81.43498972446471,19
1767649692.8525271,2,right_wrist,-0.632,0.589,-0.3406,41.79,-3.5,14.0,0.4587130834702901,0.013382494591815565,0.8325593256942256,0.31023891614569404,126.17175165478328,49.069792344593516,152.06579812646459,19
1767649692.9030888,1,left_wrist,-0.5905,-0.3909,-0.3021,22.75,1.05,-16.94,-0.28231364065184544,0.6965729157792925,0.43510913431044,-0.49574713568941076,-112.94098800348304,26.4216476678662,81.66428560105487,19
1767649692.9030888,2,right_wrist,-0.5851,0.4143,-0.284,17.99,-0.14,45.43,0.4544401950287289,0.0340378885416096,0.8325120756533128,0.3150383709602573,124.96652774792015,47.32474557175207,149.60048388178154,19
1767649692.971762,1,left_wrist,-0.5139,-0.1762,-0.1391,7.84,27.93,-81.83,-0.3081614590765547,0.6837738609075341,0.4603358515643407,-0.4749533935492475,-112.68346710977032,21.457187330162107,82.28008320395026,19
1767649692.971762,2,right_wrist,-0.6129,0.2025,-0.2162,10.29,11.76,77.35,0.4419116716356128,0.06002616585409234,0.8343701904785595,0.3239403017931664,123.94347835460634,44.31047049106277,147.30980251878754,19
1767649693.055253,1,left_wrist,-0.2542,0.0327,-0.0917,42.0,78.4,-134.96,-0.36058439719219804,0.667443469192937,0.4787931215272073,-0.44187696784452235,-111.12423071164994,14.156135996222456,81.04069273775546,19
1767649693.055253,2,right_wrist,-0.264,0.2552,-0.1732,-44.73,34.65,196.49,0.3739370666179647,0.15803724683991086,0.8215326118667657,0.40034918066580677,117.25707090539935,29.200207826687425,140.17337856943018,19
1767649693.1197078,1,left_wrist,0.2572,-0.7052,-0.286,99.4,115.43,-218.05,-0.5127130372641152,0.5881765455094184,0.5333274386192052,-0.326704049481929,-105.32509352736604,-9.356015227821608,77.25648569747946,19
1767649693.1197078,2,right_wrist,0.0595,0.3216,-0.1127,-27.16,56.56,262.92,0.30434208305871757,0.23880140435010597,0.8014618508557366,0.4560796941136437,114.4636571119033,15.664992553532255,136.69640352117074,19
1767649694.351798,1,left_wrist,-0.2655,-0.4763,-0.2704,-33.32,-65.31,136.01,-0.31065605407262625,0.6460410593448468,0.5346218526721058,-0.447552500109271,-114.7888231278753,14.247296062814945,88.35921698086366,20
1767649694.351798,2,right_wrist,-0.4641,0.385,-0.246,4.83,-11.41,-126.63,0.4747326024036379,0.06067329796057361,0.797883630726492,0.3665097801537738,113.59327340619097,45.4867246768208,140.6195244715544,20
1767649694.409154,1,left_wrist,-0.3933,-0.4953,-0.2133,-0.35,-47.46,101.08,-0.27653468761176137,0.6607371464885765,0.5096833941976335,-0.4766317524848492,-114.76379866735556,20.362977225540995,88.40530147954887,20
1767649694.409154,2,right_wrist,-0.5412,0.2962,-0.2074,32.69,-16.8,-84.84,0.49449236188136103,0.03769230513148904,0.8019050756019183,0.3331738943836229,116.81568667895897,50.170664449870145,142.49529964923985,20
1767649694.4684732,1,left_wrist,-0.5388,-0.4275,-0.3089,-3.99,-13.79,44.17,-0.2279721729660841,0.6846927488300829,0.4816808713132073,-0.49720022753773596,-116.9149782910884,27.46709402710928,87.31586894658402,20
1767649694.4684732,2,right_wrist,-0.5514,0.7037,-0.2752,-45.36,-10.85,-56.21,0.5045746565227891,0.01276034152128111,0.7935983877667083,0.3397693167624926,115.20821387169339,52.39046772635278,143.48545807407868,20
1767649694.554793,1,left_wrist,-0.5841,-0.3494,-0.3465,-11.27,-8.05,26.39,-0.21306755986753484,0.6915398604901994,0.4751606272483527,-0.5005968583583422,-117.90552144476749,29.332874207937813,86.89308582524052,20
1767649694.554793,2,right_wrist,-0.6578,0.4597,-0.283,14.21,-6.65,-7.35,0.5116069789295631,0.002362188094194682,0.7968146360176599,0.3214640804289299,117.66583978486122,54.468204520177174,145.07766787367223,20
1767649694.6166148,1,left_wrist,-0.6168,-0.1571,-0.2411,-0.49,8.61,-23.52,-0.21066954672767774,0.6923483377216223,0.4765921113004499,-0.49913132618764866,-118.28428174071365,29.362839189311547,86.87864593131877,20
1767649694.6166148,2,right_wrist,-0.672,0.3445,-0.2484,11.06,-6.72,22.47,0.5110252390736846,0.011089992447773917,0.7981363714887408,0.3189177787517943,117.79189992142219,53.96541711958883,144.25550211344543,20
1767649694.710504,1,left_wrist,-0.5436,-0.1547,-0.2396,31.29,26.32,-60.34,-0.23492196286298075,0.6840547386670022,0.4835137357517528,-0.493046907718939,-116.81364529503543,26.574824376555732,87.0364557664296,20
1767649694.710504,2,right_wrist,-0.4802,0.0595,-0.1606,18.13,22.26,141.68,0.47774318590856735,0.08112032232764706,0.8030680412087515,0.34678907539386167,115.5262336853685,45.32100424688382,138.96273433276525,20
1767649694.770284,1,left_wrist,-0.2015,-0.2503,-0.1786,59.57,85.75,-164.5,-0.34273675430415595,0.6439219621473281,0.5230095756749872,-0.4408593967079045,-112.63561352858069,12.078338724960435,86.23516225480839,20
1767649694.770284,2,right_wrist,-0.2054,0.6061,-0.205,-42.7,33.04,194.74,0.43372249968035,0.1377958270826578,0.7931156727490469,0.4048019675711344,111.24050957182092,35.199429545117724,135.79700766702456,20
1767649694.856961,1,left_wrist,0.0381,-0.5226,-0.2835,32.62,96.11,-189.98,-0.41015783080697704,0.6106291361278117,0.5556951946654747,-0.38743446228390405,-111.30820452674944,0.9919581426090224,85.28455897881217,20
1767649694.856961,2,right_wrist,0.612,1.0209,-0.1659,-42.56,84.14,266.42,0.28536731588164477,0.2777478007229452,0.7593584009090992,0.5145837863641338,108.1159546517779,8.484572773329141,133.66172496117102,20
1767649694.916022,1,left_wrist,0.6076,-1.1756,-0.3021,55.72,140.0,-209.93,-0.5413744186813,0.5273287721781793,0.6106139179076266,-0.2366194161264808,-109.34191915993682,-24.30469605623332,81.01564626104562,20
1767649694.916022,2,right_wrist,0.612,1.0209,-0.1659,-42.56,84.14,266.42,0.1982940683521149,0.34140042175186436,0.7208167742620408,0.5696914888134473,105.88582800683228,-5.918773080079642,133.7838019990332,20
1767649696.062745,1,left_wrist,-0.2728,-0.5475,-0.304,5.32,-41.23,129.92,-0.2845309018601408,0.6351377042214584,0.5489998268859048,-0.46286223937819415,-115.22010309861173,15.99465546888958,91.86498627916765,21
1767649696.062745,2,right_wrist,-0.2557,0.3767,-0.1508,27.65,-29.68,-152.67,0.48365092887399,0.07800874362136084,0.7703312051754289,0.4081497877629179,105.77741425644903,42.958174969747475,135.2769955257136,21
1767649696.116676,1,left_wrist,-0.3948,-0.3133,-0.3831,-14.21,-42.49,100.31,-0.245656244070259,0.6540407444806102,0.5278521659057204,-0.4829656356897273,-116.40992729517957,21.864821996805144,91.46748571049862,21
1767649696.116676,2,right_wrist,-0.4509,0.4636,-0.162,49.42,-27.23,-108.78,0.5076266978249994,0.05681832738348337,0.7782103814351401,0.3653428739625336,109.16527278481784,48.46617350841277,136.15030545047597,21
1767649696.209673,1,left_wrist,-0.4778,-0.5417,-0.3231,-30.31,-33.81,77.49,-0.2088764937036344,0.6691459137876204,0.5132329499122021,-0.49518309297049384,-118.19434505209617,26.6343382825133,91.10438463473236,21
1767649696.209673,2,right_wrist,-0.6393,0.4192,-0.2196,33.39,-9.17,-55.51,0.5285302162224054,0.019939969323282188,0.7838200889209396,0.32539864223326853,113.37078255702703,54.64359531922499,139.5761823682274,21
1767649696.259976,1,left_wrist,-0.5817,-0.3665,-0.3162,-4.27,-19.6,55.02,-0.1873280715062127,0.6790996883380781,0.4977145673574099,-0.5059763002010221,-118.85960108911564,30.049292809141388,90.49404041260844,21
1767649696.259976,2,right_wrist,-0.6466,0.5285,-0.307,13.09,-8.47,-29.47,0.532193323115211,0.01580563593612863,0.7858732462704675,0.3145213657298345,114.75369952701296,55.74397564791662,140.29237871305418,21
1767649696.318136,1,left_wrist,-0.6046,-0.1357,-0.1728,-17.71,4.76,-21.35,-0.16865739504399438,0.6840482098761126,0.5008353519063046,-0.5027889019689555,-120.78529148078265,31.260138379899637,90.48698572542853,21
1767649696.318136,2,right_wrist,-0.6378,0.1728,-0.2338,13.93,-1.82,18.76,0.5306731430503161,0.022931952236252624,0.788416886795524,0.31025627056900373,115.43615770284879,55.34125916666119,140.01261967597526,21
1767649696.368618,1,left_wrist,-0.4153,0.1157,-0.123,17.99,37.66,-80.08,-0.1965893477179755,0.6744169581110295,0.5162391760627411,-0.48990969379483496,-119.86339173056737,27.24733508723689,90.83969530266867,21
1767649696.368618,2,right_wrist,-0.4997,0.0737,-0.1547,2.31,-0.14,91.98,0.5192571799021822,0.05210936088369132,0.7879194997471303,0.32686305625836337,113.46357970532878,51.64679139854399,137.20384126190567,21
1767649696.454085,1,left_wrist,-0.3304,0.203,-0.0996,27.79,80.85,-155.82,-0.2529726293907408,0.6537017131330332,0.5466917514671563,-0.45804699311735,-118.54767312989448,18.79941976720313,91.05063534287164,21
1767649696.454085,2,right_wrist,0.1815,0.7954,-0.2103,-3.92,53.62,296.1,0.4156744172371712,0.19781186275994606,0.7786321818188033,0.4264002477040416,109.3412424138073,28.595369647886088,131.01179958222326,21
1767649696.511416,1,left_wrist,-0.021,-0.407,-0.2279,26.95,98.77,-205.03,-0.32660811167288806,0.616963216167641,0.5879805574104409,-0.40861032218099685,-117.13130668797302,6.898834132111474,91.46418484047719,21
1767649696.511416,2,right_wrist,0.4314,0.8413,-0.2767,-70.7,101.64,313.46,0.3221531937595487,0.27225684882918477,0.7479689322419233,0.5124802478310773,105.83309490380935,11.704759986978631,131.13738228366108,21
1767649696.569821,1,left_wrist,0.5441,-0.7818,-0.4109,39.97,150.36,-230.72,-0.4916285517789836,0.5145226377191665,0.6451412594461235,-0.2781376955942505,-112.70758330932377,-20.372579481798578,89.21372081553872,21
1767649696.569821,2,right_wrist,0.4314,0.8413,-0.2767,-70.7,101.64,313.46,0.2211755318711965,0.34090032806001375,0.7004570554920548,0.5867096929840763,102.3909102704064,-5.173452148797969,132.25846615555028,21
1767649697.7070541,1,left_wrist,-0.0864,-0.6076,-0.2904,-0.49,-64.54,130.83,-0.31183260817930114,0.5613603768101859,0.6117325182072343,-0.46197216148969045,-112.4760280651832,7.882930014221384,100.19168686149723,22
1767649697.7070541,2,right_wrist,-0.266,0.6695,-0.2552,20.09,-28.98,-145.39,0.4444397438861973,0.12030977213920575,0.787782093114054,0.4091433080853503,109.77080037874403,36.998597018588356,136.1548024033409,22
1767649697.7581801,1,left_wrist,-0.2533,-0.5007,-0.2904,15.61,-45.78,110.88,-0.2766431355897319,0.581218205970647,0.5856943153403062,-0.49256079985865064,-111.92667273062989,14.389594891354953,100.18669701485426,22
1767649697.7581801,2,right_wrist,-0.4865,0.5558,-0.2357,-22.82,-15.61,-113.68,0.47068955116768474,0.07788901927780387,0.7874907834901509,0.3901831787962849,110.15125006950574,42.88627697078254,138.0307073213421,22
1767649697.812306,1,left_wrist,-0.3514,-0.4914,-0.3172,-29.82,-34.58,89.32,-0.23672985896286253,0.6020948303299498,0.5719470684438838,-0.5042988598676579,-113.75133888175873,19.662413602571686,99.96037347734642,22
1767649697.812306,2,right_wrist,-0.5661,0.3787,-0.2499,27.51,-17.78,-75.6,0.4890491871289863,0.05816099965077711,0.7920675337560947,0.36066218634289615,112.60020340078317,47.118867503050495,139.17123214920377,22
1767649697.868522,1,left_wrist,-0.5392,-0.3997,-0.3211,-14.35,-17.64,40.18,-0.18826077108314487,0.623988792557216,0.5475357009757751,-0.5247861707315981,-115.04538481913622,26.664307963829124,99.6883583174732,22
1767649697.868522,2,right_wrist,-0.5998,0.6422,-0.2733,-18.34,-9.17,-51.24,0.49743778665924493,0.04082516734476855,0.7891775333451629,0.3578935246383585,112.34878602261503,49.10506315845481,140.0365733029153,22
1767649697.920032,1,left_wrist,-0.5661,-0.366,-0.3226,2.59,-8.33,17.43,-0.17886554023007764,0.6282336302617282,0.5412158616047064,-0.5295422697706463,-115.18270720178816,28.147484401786155,99.57450988532308,22
1767649697.920032,2,right_wrist,-0.669,0.3011,-0.2259,18.34,-3.15,-20.23,0.5028142621199806,0.03538638346188255,0.7924427137891763,0.3434532967328654,114.01965617100653,50.58757023701591,140.77722176971795,22
1767649698.0031419,1,left_wrist,-0.6134,-0.1454,-0.2333,-5.88,4.13,-24.57,-0.1801842361401084,0.6257058341766765,0.5472446132311293,-0.525879438097162,-115.49334183135808,27.44403340788903,99.86534911075843,22
1767649698.0031419,2,right_wrist,-0.3928,0.0605,-0.1708,12.6,18.41,142.66,0.4718432437967992,0.08285326915758616,0.7960576503579546,0.3698533579403966,112.85461525914147,43.625496339890034,138.36350572334902,22
1767649698.068175,1,left_wrist,-0.3587,0.0327,-0.1918,14.98,54.6,-124.39,-0.2427381190635526,0.5959716536421714,0.5846962131474857,-0.4939902144167375,-114.44469545695353,17.755288885975872,100.39213364733992,22
1767649698.068175,2,right_wrist,-0.1508,0.2684,-0.1337,-19.6,34.51,215.67,0.4201928621028869,0.15004392111089676,0.7893277813476035,0.42176585206524375,110.18305004957223,32.46423162334343,135.50592095709953,22
1767649698.153462,1,left_wrist,-0.0952,-0.2835,-0.1293,24.29,84.98,-183.75,-0.3120781573487628,0.5610057982848282,0.6178068122639983,-0.45408640225930597,-113.32055533275287,7.116208025955203,100.20227580280675,22
1767649698.153462,2,right_wrist,0.0171,0.4646,-0.0547,-49.14,59.15,275.73,0.28908736318438244,0.28816045613679314,0.741819878530202,0.5320670218906378,105.58585262364123,7.022560492729721,132.20800326993592,22
1767649698.223609,1,left_wrist,0.3977,-0.5944,-0.2991,-46.34,135.87,-251.16,-0.4917244641076934,0.4649146386281309,0.6601949106390991,-0.32588972084665135,-108.90805651720983,-20.25788541101057,95.14459301318146,22
1767649698.223609,2,right_wrist,0.3811,0.8511,-0.102,-33.74,92.19,288.54,0.19188994387524358,0.35488565725382987,0.7011670893825684,0.5878768004283297,103.75571022944713,-8.52055784454493,132.99983010318445,22
1767649699.353832,1,left_wrist,-0.0098,-0.5539,-0.3655,-7.63,-61.6,155.19,-0.30291451183066515,0.5396443652800452,0.6367579496609723,-0.45996311926875333,-113.31491187459956,6.353741486409577,103.6211009921949,23
1767649699.353832,2,right_wrist,-0.2835,0.5251,-0.3011,15.33,-11.34,-136.99,0.415188749847298,0.16883017641254028,0.7875391658936095,0.4229618608294917,110.24686321707603,30.739617943735286,134.10863019581166,23
1767649699.416408,1,left_wrist,-0.3762,-0.4207,-0.3343,-16.59,-31.85,95.69,-0.22766820424185297,0.5853881640257257,0.5892909540888652,-0.5081575126128854,-113.69881253286783,19.063336484260685,102.89807932034734,23
1767649699.416408,2,right_wrist,-0.4802,0.5031,-0.2757,-2.8,-20.09,-113.12,0.4439240861957915,0.13069160052486592,0.7922308660297316,0.3977704943271459,111.19697363639918,36.827668102623576,135.58038870915811,23
1767649699.466722,1,left_wrist,-0.4929,-0.5226,-0.3074,5.39,-18.27,62.93,-0.20634279531463126,0.5988257707139825,0.5718049234826971,-0.5214110438334578,-113.74964344745428,22.860767370118552,102.38678826630016,23
1767649699.466722,2,right_wrist,-0.5344,0.4797,-0.266,3.99,-10.64,-79.66,0.4620665526328965,0.10330018980663348,0.7963246239904174,0.37641820486047745,112.62259042712166,41.158309675124436,137.11341639359074,23
1767649699.556681,1,left_wrist,-0.5822,-0.3626,-0.347,-3.08,-13.65,48.79,-0.18685998825310562,0.6103658112808203,0.5593801972627742,-0.5288012066172079,-114.34602682851188,25.879047563895767,101.87060714905817,23
1767649699.556681,2,right_wrist,-0.6588,0.4841,-0.2767,6.65,-2.17,-37.31,0.479872481816955,0.06861399282960479,0.8030771114062054,0.34652802818571604,115.67954880843708,46.318971657661955,140.12481378992888,23
1767649699.607571,1,left_wrist,-0.5578,-0.5446,-0.4211,-15.54,-8.68,32.76,-0.1689910532516872,0.6200382387650498,0.5538254474130819,-0.5294071969549715,-115.65733779175366,27.990315889964332,101.36375968203424,23
1767649699.607571,2,right_wrist,-0.6481,0.487,-0.2991,13.16,-4.2,-16.03,0.48313489580693497,0.0645174333919952,0.8063858062904167,0.33490312727038873,117.14105866121096,47.389418232766744,140.8254084463713,23
1767649699.658754,1,left_wrist,-0.6124,-0.3392,-0.3318,17.43,-4.83,13.44,-0.16532930168016208,0.6230587573781966,0.5448504239577616,-0.5362853926533286,-115.0924571468847,29.216770339320515,101.1601375205329,23
1767649699.658754,2,right_wrist,-0.6305,0.3738,-0.2274,13.51,-2.03,15.54,0.4836788494812159,0.07022994985452881,0.807506734360618,0.3302353685936864,117.57464761058665,47.287196216493754,140.34537197935114,23
1767649699.7217999,1,left_wrist,-0.4704,-0.1186,-0.1786,14.84,27.37,-76.86,-0.1900732721121075,0.6089101747469702,0.5685395061287716,-0.519483763258356,-115.26467101231384,24.61441730276375,101.81850000432094,23
1767649699.7217999,2,right_wrist,-0.5778,0.2264,-0.1615,2.03,8.89,62.93,0.47391465687431183,0.08881172874095522,0.8073085201689971,0.34025039030145177,116.74512645158418,44.809692077586966,138.95138484149368,23
1767649699.80277,1,left_wrist,-0.3348,0.0473,-0.1381,42.91,61.67,-143.29,-0.24537843074069632,0.5843887560022781,0.5892871922111744,-0.5010187747791629,-113.28470860984051,17.240471293980914,101.87665085341996,23
1767649699.80277,2,right_wrist,-0.1244,0.1664,-0.1083,-44.45,52.64,211.19,0.3908002580087483,0.1861567866879634,0.7949705662891895,0.4250207146059509,112.08722679588645,27.587871024875255,134.8659221957981,23
1767649699.856255,1,left_wrist,-0.083,-0.5036,-0.1674,-60.48,89.32,-192.36,-0.29735630304249905,0.5557850000227009,0.6398738245608234,-0.43959498567723476,-116.05571262060911,6.205775581983535,101.92171597326909,23
1767649699.856255,2,right_wrist,0.4421,0.8891,-0.2054,-22.96,82.67,309.68,0.3006670923910566,0.2740643598435851,0.7710515338370691,0.48986483685210247,110.2376168366068,11.253524843602174,133.00721229558388,23
1767649699.916291,1,left_wrist,0.4573,-0.3079,-0.4978,29.96,150.64,-241.29,-0.49218275956751495,0.44373749158986026,0.6680416067218139,-0.33848719537167377,-107.85392945148921,-20.928227571885703,97.48707772093009,23
1767649699.916291,2,right_wrist,0.4421,0.8891,-0.2054,-22.96,82.67,309.68,0.2042390881696268,0.35630660155561794,0.731141912103463,0.5447600434294144,108.92612931172249,-5.1375862581749505,131.70818188033968,23
1767649701.115051,1,left_wrist,-0.3631,-0.5368,-0.325,-26.46,-41.79,96.04,-0.2537447985260565,0.5564564236707683,0.6189777522133046,-0.49278430174009613,-113.36542416907366,13.550435104594461,105.01983580428598,24
1767649701.115051,2,right_wrist,-0.367,0.4734,-0.2699,25.2,-25.62,-119.98,0.3978915899487478,0.07403664781833293,0.8421490379304626,0.35635074763591856,123.08286912641658,38.12666267961,148.73416294650596,24
1767649701.1667578,1,left_wrist,-0.4202,-0.5524,-0.3558,-4.27,-33.11,74.97,-0.22336999985287453,0.5720983472333221,0.6036930604800398,-0.5082952026006847,-113.80452788115751,18.173520597389913,104.98192416232772,24
1767649701.1667578,2,right_wrist,-0.5031,0.5661,-0.2733,12.39,-14.98,-93.45,0.41895882801080037,0.04434840301694438,0.8418697474127599,0.3372862997111493,124.85700876055945,42.49309175053371,151.01681940620284,24
1767649701.217997,1,left_wrist,-0.487,-0.4285,-0.347,-12.32,-15.26,53.2,-0.2002479136319929,0.5861805729639088,0.5931833825369108,-0.5142242542391466,-114.8327455202793,21.42537342624651,104.46878344004486,24
1767649701.217997,2,right_wrist,-0.5348,0.4255,-0.3255,-7.28,-13.86,-73.22,0.4366151827974428,0.015581666017466533,0.8397492790190837,0.3224058656752459,126.50672430834281,46.32324087264844,153.54035444907214,24
1767649701.270946,1,left_wrist,-0.5636,-0.4934,-0.3845,-2.1,-12.95,38.64,-0.18349376084824434,0.5957183420092377,0.5834111837283814,-0.5206544798848667,-115.29925541553159,23.967740597448742,104.11876559407632,24
1767649701.270946,2,right_wrist,-0.6383,0.5773,-0.2918,48.44,-21.21,-54.74,0.4524349237102913,0.009008816874218662,0.8408259747301519,0.2970406727114651,129.2062843149965,49.06786238157672,154.31797973391414,24
1767649701.352501,1,left_wrist,-0.5797,-0.428,-0.4143,-4.83,-6.79,21.91,-0.17135007855877538,0.6025925494097135,0.5781722683978204,-0.5227219127122202,-115.95847074435022,25.58419311339058,103.79326805772402,24
1767649701.352501,2,right_wrist,-0.6115,0.265,-0.2733,12.11,0.42,11.76,0.4593084766035343,0.0041264897877666155,0.8394602496860504,0.2903879897640499,129.8042107358913,50.24140054296071,154.66384782070725,24
1767649701.4058812,1,left_wrist,-0.5783,-0.2826,-0.2894,-9.66,1.05,-9.03,-0.16714218385180377,0.6033856397717785,0.5810602443552999,-0.5199598566468479,-116.58957381350677,25.672926970688845,103.86498887161983,24
1767649701.4058812,2,right_wrist,-0.6051,0.1874,-0.1747,1.05,9.59,57.68,0.4514343686379194,0.022276137976741103,0.8401358735462945,0.29980410015529957,128.2275536027524,48.174171851265974,152.48177571189103,24
1767649701.472085,1,left_wrist,-0.3992,-0.0834,-0.1161,18.62,46.9,-109.69,-0.22041820837692566,0.5774292842200681,0.608940244155933,-0.49717503375402794,-115.40451511866841,17.801715490660253,104.35028966673259,24
1767649701.472085,2,right_wrist,-0.4602,0.0683,-0.1874,6.93,23.94,128.45,0.4273907385874236,0.06498348227110728,0.8433987504154783,0.31904991991728643,125.98270876269677,42.80112259606271,148.59464352032677,24
1767649701.55679,1,left_wrist,-0.1884,-0.0976,-0.0981,23.87,88.9,-170.94,-0.282464013989955,0.5493488260073838,0.6348730123518417,-0.4640756472303732,-114.48544618971627,8.697707282743513,103.86384733856238,24
1767649701.55679,2,right_wrist,0.0151,0.408,-0.1825,2.66,70.7,271.04,0.3020845444662332,0.21923302579804105,0.8329321574079471,0.4085410989726819,120.74882638945316,18.911085549448945,139.68708767926125,24
1767649701.6120162,1,left_wrist,0.4192,-0.4187,-0.1981,37.03,166.81,-236.95,-0.48030052860018646,0.4493823567284958,0.6615975361438,-0.36007721374168816,-107.09622309143076,-18.17416861668754,98.15249360656559,24
1767649701.6120162,2,right_wrist,0.4748,0.8467,-0.3265,-38.36,97.44,294.63,0.2126193820733526,0.30317047578232065,0.8021978732836296,0.46835801805871624,118.1406838106335,3.275721569644752,136.63122990737358,24
1767649701.6698549,1,left_wrist,0.7803,-1.1785,-0.508,-44.31,157.71,-231.49,-0.5503455360643855,0.41139019465115917,0.6776550621517972,-0.26203342423998044,-107.63991884684096,-32.02524798806982,93.77072942321816,24
1767649701.6698549,2,right_wrist,0.5583,0.8755,-0.3797,15.96,94.64,286.65,0.11423514631830615,0.3843159662612954,0.7681306162887697,0.4992263271724728,119.08468668050295,-12.018427353998252,133.92441131678441,24
1767649702.774343,1,left_wrist,-0.3187,-0.489,-0.3314,-50.12,-38.5,105.07,-0.2767642496897399,0.5475073988513279,0.6406940951863968,-0.46167984002987694,-115.1745783557143,8.679307614191535,104.48573020449199,25
1767649702.774343,2,right_wrist,-0.0961,0.5319,-0.2547,2.24,-24.15,-159.74,0.40156822249131374,0.10990811312971528,0.8155740584852769,0.4018732691773447,115.48204519014037,34.51896440418477,142.46024810148026,25
1767649702.859614,1,left_wrist,-0.3187,-0.489,-0.3314,-50.12,-38.5,105.07,-0.22836824975395378,0.5766756306556604,0.6282349280451042,-0.46969568307189563,-118.03288977328934,14.76092200138464,103.79542952262622,25
1767649702.859614,2,right_wrist,-0.5856,0.4768,-0.2333,3.71,-15.68,-93.24,0.4500848307792602,0.04476356848129525,0.8161260178794932,0.35966399733554927,118.18190742893468,44.62407641201341,146.11361619284918,25
1767649702.92352,1,left_wrist,-0.5036,-0.4006,-0.4089,-3.36,-26.39,59.29,-0.1839032835123797,0.6037296004384219,0.5892859437001006,-0.5044127560097095,-117.41323512366424,23.098596407640684,102.77401008591107,25
1767649702.92352,2,right_wrist,-0.6173,0.6476,-0.3138,10.71,-9.24,-70.0,0.4616516137384577,0.026217208535073765,0.8167538017060164,0.34511399987261526,119.71366596922215,47.3931002208681,147.7267057728015,25
1767649703.002146,1,left_wrist,-0.5285,-0.6446,-0.3387,-22.68,-17.5,40.67,-0.16092741776805428,0.613386547268669,0.5826408071287754,-0.508319780953541,-118.64679749409122,25.85322535725611,102.56141044761557,25
1767649703.002146,2,right_wrist,-0.6315,0.469,-0.266,11.62,-7.28,-36.12,0.4829912225268553,0.0008251111684898277,0.8144125940931097,0.3216378782670116,121.89582989591057,51.82971366868065,149.67400540843568,25
1767649703.053282,1,left_wrist,-0.57,-0.2874,-0.3548,20.58,-5.46,17.64,-0.1569494259246046,0.6173840880706918,0.5722762744992085,-0.5164335689557407,-117.99986280777199,27.2606316293953,102.23654350470804,25
1767649703.053282,2,right_wrist,-0.6285,0.2128,-0.1869,21.49,-0.35,6.93,0.484803737192742,0.0051793750170690605,0.8168037816564357,0.31268209534626196,122.95402877016694,52.06792319209173,149.53866491498061,25
1767649703.114227,1,left_wrist,-0.4709,-0.1035,-0.2006,24.15,29.47,-70.84,-0.17486335485076837,0.6040577946278869,0.5952934186533809,-0.5001627071139937,-118.52713483015476,23.33237170417775,103.16135630759126,25
1767649703.114227,2,right_wrist,-0.5383,0.2045,-0.2089,-0.21,9.52,67.41,0.4740215683083417,0.02499097066140097,0.8186036819725775,0.32336823595529646,121.68974768554004,49.45617884055148,147.6856414407356,25
1767649703.164999,1,left_wrist,-0.2943,-0.0005,-0.1601,25.62,61.74,-132.37,-0.2224217919576298,0.5822003608251678,0.6177073577033407,-0.47959243796848816,-117.3826047337478,16.47844589098806,103.45610727896954,25
1767649703.164999,2,right_wrist,-0.4651,0.1947,-0.1669,-3.22,17.15,121.59,0.45274716920116054,0.06251556212955109,0.8192217895724907,0.34639206798309874,119.2865712452251,44.30605395475445,144.44862282996658,25
1767649703.218687,1,left_wrist,-0.0307,-0.1186,-0.1688,51.59,89.81,-205.45,-0.2997591386762357,0.5394527432576882,0.6488803617736949,-0.44507243531393237,-115.20662074404706,5.231233791660253,103.84328082894713,25
1767649703.218687,2,right_wrist,-0.2484,0.0449,-0.2235,-16.73,36.19,195.93,0.40870711608592536,0.12149094257414852,0.8177147908413066,0.38670526887091794,116.62554434568902,35.061077741433046,141.03023277939212,25
1767649703.301725,1,left_wrist,0.2669,-0.9272,-0.3255,13.16,97.65,-233.73,-0.3771317378530813,0.48502463759451087,0.6851914258857155,-0.39119747330846677,-114.41792572371598,-7.893607910902515,104.32309424612265,25
1767649703.301725,2,right_wrist,0.3479,0.9677,-0.0595,55.86,65.1,294.07,0.24105423729814915,0.32505159221408464,0.7968914672074215,0.4485513421802445,118.9119926119063,5.312249979733868,132.48284245350553,25
1767649704.503362,1,left_wrist,-0.1352,-0.4548,-0.3245,12.18,-55.58,147.84,-0.25242852454798176,0.5367151013772962,0.6431124299577882,-0.4843791308281943,-114.28209617853626,11.260341561593943,107.59290246703318,26
1767649704.503362,2,right_wrist,-0.2899,0.6817,-0.2772,-4.9,-19.32,-144.34,0.40605258662918786,0.0979392227720479,0.8288607764381893,0.37218143265997955,119.44626168003597,36.88564156786232,144.48769614893445,26
1767649704.571027,1,left_wrist,-0.386,-0.5275,-0.3289,6.44,-40.04,90.16,-0.17056422018399792,0.5812222077640761,0.6027750627498422,-0.5193754092386369,-116.0126374200821,23.460785976013366,106.86779027745764,26
1767649704.571027,2,right_wrist,-0.4314,0.4924,-0.2826,7.98,-14.07,-114.1,0.42986524060512976,0.05815023665754828,0.8326397673046656,0.34430428809266517,122.25212059010744,42.51654165880733,147.7934186515131,26
1767649704.6212978,1,left_wrist,-0.489,-0.2723,-0.3392,-17.29,-24.22,61.39,-0.1416319977602628,0.5953346712793453,0.5915248816481661,-0.5249907816088526,-117.35963855566163,27.22801314920511,106.39852413193532,26
1767649704.6212978,2,right_wrist,-0.5309,0.4807,-0.3216,22.61,-13.02,-82.67,0.4446270734142313,0.03358828603403141,0.8370023240156949,0.3171840194913951,125.72697696143567,46.30276221969283,150.68140770475404,26
1767649704.704034,1,left_wrist,-0.5646,-0.5407,-0.3211,-7.7,-18.55,39.62,-0.12184693271406598,0.6033593341305326,0.5819724922023212,-0.5314309524534241,-117.90638121129729,29.964579579334476,106.2359607008679,26
1767649704.704034,2,right_wrist,-0.6202,0.4407,-0.263,3.71,-5.18,-23.17,0.4669504650326722,0.008373122789425124,0.8310543028941428,0.30205280939209067,126.80111984099585,50.449543724561686,152.2987006030555,26
1767649704.769221,1,left_wrist,-0.5866,-0.4812,-0.3255,-61.95,8.89,-17.15,-0.09963558059430566,0.6111380055206846,0.5939460971498497,-0.5136254695478958,-121.72742086613879,30.62625341411979,105.72159023246961,26
1767649704.769221,2,right_wrist,-0.6242,0.327,-0.2747,5.04,3.92,12.53,0.4666422852355345,0.010766213827956414,0.8319938793003879,0.2998587185270096,127.078428630348,50.35661560202688,152.17864683127118,26
1767649704.851541,1,left_wrist,-0.4797,-0.307,-0.3543,75.88,25.13,-54.6,-0.13430747936218523,0.6012421919751717,0.5888376997873734,-0.5232011954166217,-118.16933816130435,28.097322166324115,105.85042517687418,26
1767649704.851541,2,right_wrist,-0.5119,0.2333,-0.2308,7.91,3.78,113.54,0.4415089897049748,0.0670117411607025,0.8311974879259485,0.3311947684096115,122.65391074460346,43.59643234000992,146.10727676791112,26
1767649704.913538,1,left_wrist,-0.4719,-0.2772,-0.1859,-9.03,28.63,-83.09,-0.15463802471008692,0.5880886608672474,0.6087497829525905,-0.5095709077530862,-118.34779479920168,24.272320778444417,106.6028554654012,26
1767649704.913538,2,right_wrist,-0.2479,0.2303,-0.1747,-13.93,20.58,188.86,0.4028550649625239,0.12994303443514135,0.8267005489143496,0.37065996123204514,119.17657373420785,34.73290912244154,141.33059521164955,26
1767649704.966676,1,left_wrist,-0.0429,-0.2255,-0.0581,65.52,107.52,-197.54,-0.30077712031621334,0.5200066556610589,0.6517230449827814,-0.46301541507908617,-113.07104282723762,5.134580429269914,106.22281469128075,26
1767649704.966676,2,right_wrist,-0.0571,0.3792,-0.1488,9.87,38.5,238.35,0.34494914543703464,0.21284753800929332,0.8162470028776958,0.41163921450564067,117.32710966918647,22.82356013005491,136.756331856408,26
1767649705.0209641,1,left_wrist,0.2113,-0.3299,-0.1469,29.05,147.07,-247.59,-0.39910015256054765,0.46948909355218255,0.6787076279108734,-0.39956853614529403,-111.54661773653169,-9.587782646690515,104.12312887452423,26
1767649705.0209641,2,right_wrist,0.2064,0.794,-0.224,28.49,79.1,291.13,0.2567682185285133,0.30616171072286363,0.7979601828323732,0.4512146223861422,117.71758293486437,7.671448700420298,133.37869560629346,26
1767649706.219889,1,left_wrist,-0.3333,-0.3987,-0.3558,-53.41,-56.77,96.32,-0.18565281847370224,0.5643536544332199,0.6292438189858306,-0.5010890140371946,-117.04338919858132,19.386632076638993,108.1648628648024,27
1767649706.219889,2,right_wrist,-0.3758,0.4177,-0.2625,-5.95,-22.96,-116.34,0.42118880836700623,0.07131984235501314,0.8278552240290346,0.36355081603632067,119.91217129601337,40.20391955498953,146.2487122340096,27
1767649706.3063838,1,left_wrist,-0.4397,-0.5773,-0.2552,14.21,-35.77,64.12,-0.16223340838523118,0.573764003384798,0.6106852169392095,-0.5210938067521729,-116.1722874921466,23.56709188113658,108.37555017894239,27
1767649706.3063838,2,right_wrist,-0.5051,0.6095,-0.2889,0.77,-11.27,-42.63,0.4510665030746504,0.034307668700223774,0.8253757916283528,0.33781177638772736,121.79304230316029,46.17181616680389,148.54314097264577,27
1767649706.371684,1,left_wrist,-0.4651,-0.3274,-0.364,-96.39,-3.92,5.32,-0.12557204398981542,0.5897004523140947,0.6127591775229527,-0.510892580363198,-119.96955542103422,26.657507895818295,107.78443626440271,27
1767649706.371684,2,right_wrist,-0.5319,0.6144,-0.3006,-0.07,-5.74,-24.71,0.4546299565317858,0.028979527090407912,0.8242315270409171,0.33632451511199835,121.82159717098864,46.88200436085759,148.8484954869574,27
1767649706.455602,1,left_wrist,-0.5114,-0.3128,-0.2952,16.87,12.25,-33.32,-0.1365207262086117,0.584561209359822,0.6152760741969867,-0.5109653964291514,-119.19683089672333,25.428551445598945,108.01472255407576,27
1767649706.455602,2,right_wrist,-0.5309,0.2752,-0.2996,-0.28,0.98,51.17,0.45157407121255944,0.04784774898267891,0.8256072328167781,0.33490916417205885,121.67217716539166,45.528281882799256,147.00694925373358,27
1767649706.506461,1,left_wrist,-0.4675,-0.2494,-0.3328,18.2,29.54,-61.81,-0.15861184767848438,0.5756769955933543,0.6239435896313434,-0.5041157361941603,-118.53832103421969,22.487754845027283,108.08848954304445,27
1767649706.506461,2,right_wrist,-0.5026,0.3182,-0.2445,21.56,7.0,99.61,0.4356913762355426,0.08412232539216277,0.8279106460558288,0.3430166485639059,120.98076864802465,41.58392180357567,144.13848068086986,27
1767649706.564991,1,left_wrist,-0.1347,-0.1552,-0.2094,82.6,87.29,-142.66,-0.2694671430226872,0.5316981288472059,0.6464472747168611,-0.47622524043010744,-113.97255258745885,9.092193877788073,107.04071578114021,27
1767649706.564991,2,right_wrist,-0.304,-0.0151,-0.1606,-32.62,33.81,179.48,0.39805366013343785,0.13490039546589513,0.8215020431143791,0.38534343139129723,117.53889842897007,33.369608136902194,140.74829341573536,27
1767649706.6157818,1,left_wrist,-0.0224,-0.3514,-0.3304,8.26,108.64,-192.08,-0.3391655379419808,0.49786609498173934,0.675309537887042,-0.42550336940963307,-114.08357135044378,-1.9711369279578632,105.9235514392265,27
1767649706.6157818,2,right_wrist,-0.0059,0.3162,-0.1879,5.25,54.6,248.43,0.33038071360455307,0.2169556238326863,0.8124194353237961,0.4286647903358523,116.25074266037336,20.53704692036096,137.24140485016835,27
1767649706.6703758,1,left_wrist,0.3045,-1.3806,-0.1976,48.79,111.65,-204.82,-0.4214041645472001,0.44650159780635956,0.6896811751589446,-0.3839202129219319,-111.12738124477174,-13.793722861328717,104.67987531052103,27
1767649706.6703758,2,right_wrist,0.3514,0.8062,-0.1742,-58.31,73.99,280.7,0.2523444002433264,0.293846433381053,0.7777494411963624,0.49505796021659554,112.61074978782534,5.830126652873337,134.71594876829403,27
1767649707.957956,1,left_wrist,-0.3211,-0.4631,-0.3157,-26.67,-41.58,101.99,-0.1613380503104926,0.5147583787167015,0.6594910024185464,-0.5235126195154639,-115.02022358298699,19.036051668390225,116.24231004015864,28
1767649707.957956,2,right_wrist,-0.4885,0.4333,-0.1967,2.52,-14.77,-91.28,0.46284519279350106,0.051687812664464046,0.8059423912210378,0.36545801340622663,115.54635583863146,45.09462958154113,143.32737846143678,28
1767649708.0083709,1,left_wrist,-0.3601,-0.7115,-0.3221,-19.6,-27.3,80.64,-0.1270922398434598,0.534239280236829,0.645085740087604,-0.5313194349534333,-116.14214381589342,23.81173230842786,115.70883952962794,28
1767649708.0083709,2,right_wrist,-0.6095,0.5641,-0.2684,2.94,-14.77,-42.77,0.4716272330493052,0.04244223468101636,0.8047987519436813,0.35786223415084034,115.89005871206025,46.781961226533255,143.65084617301738,28
1767649708.063127,1,left_wrist,-0.4494,-0.3811,-0.3357,12.11,-15.61,63.07,-0.10670091595956845,0.5499822618286576,0.627229549537489,-0.5410337497737285,-116.2045680459086,27.468830121216612,114.80746956428185,28
1767649708.063127,2,right_wrist,-0.6095,0.5641,-0.2684,2.94,-14.77,-42.77,0.48036389504829136,0.033218283977463015,0.8033873633956639,0.3503081761532125,116.23111786177186,48.466078718740164,143.98010473721516,28
1767649708.117196,1,left_wrist,-0.5495,-0.2826,-0.2952,23.24,3.99,-3.99,-0.09144750216394297,0.560218490788852,0.6182551150697125,-0.5436480567576536,-116.84979590889526,29.738855059403733,114.17475021012233,28
1767649708.117196,2,right_wrist,-0.6246,0.386,-0.2386,15.33,-7.35,-12.67,0.4864017818093585,0.030212926600563163,0.8049068139744343,0.3385638884116786,117.38636728022682,49.69024561599066,144.24664184022186,28
1767649708.2063549,1,left_wrist,-0.5407,-0.3094,-0.2747,-26.95,17.78,-40.32,-0.09511683804863297,0.5567362906144687,0.6321318342464544,-0.5304779297621016,-118.35430450728128,28.061554468841106,114.21860778652182,28
1767649708.2063549,2,right_wrist,-0.5988,0.3167,-0.2015,4.55,4.41,73.57,0.4714017345472939,0.06692872892292308,0.80866663902534,0.34548403268172173,116.99905759743841,45.73901101700643,141.55250169201804,28
1767649708.264151,1,left_wrist,-0.3348,-0.204,-0.1864,7.91,62.51,-121.94,-0.17155701492545655,0.5255370134811672,0.6601950191272685,-0.5084501694470243,-116.47118846996685,17.932515084368067,114.11744282836234,28
1767649708.264151,2,right_wrist,-0.4153,0.243,-0.1942,6.79,24.71,129.01,0.4434666716546742,0.10735738949791507,0.8110934714600704,0.36597688807706186,116.18759529105394,39.85188730191594,139.48357716347215,28
1767649708.352777,1,left_wrist,-0.122,-0.6227,-0.2152,33.88,86.59,-168.0,-0.24416312981542268,0.48962057227645134,0.682275013966956,-0.4849297542518992,-114.49653889895058,8.145672029866168,113.91633442365584,28
1767649708.352777,2,right_wrist,-0.0146,0.429,-0.1703,-13.58,61.39,245.0,0.3271593588022641,0.24042944876444428,0.7929045986607002,0.4543817024679039,113.0204597046224,17.476754133427438,134.64895037623697,28
1767649708.414319,1,left_wrist,0.2279,-0.8886,-0.3758,-130.9,130.62,-227.57,-0.39225585935062335,0.4175240865612926,0.7415661762078657,-0.34912545632008435,-117.9477691471176,-16.871773043170244,111.04331831313173,28
1767649708.414319,2,right_wrist,0.2362,0.7188,-0.1942,40.25,78.96,300.86,0.23071561880247016,0.33379951609268377,0.7719467288338212,0.48933264160450834,114.50852013530478,1.69175108958863,132.14343009760898,28
1767649709.515425,1,left_wrist,-0.0644,-0.9521,-0.2865,0.28,-71.75,156.31,-0.1876690357102443,0.43903993354778553,0.7009611409331625,-0.5297902874606351,-112.08386147020454,11.659834021989628,123.7459647874314,29
1767649709.515425,2,right_wrist,-0.0298,0.7008,-0.2928,29.54,-32.2,-194.53,0.41494241895247863,0.18433523148644496,0.7879485000939535,0.4159092119518314,110.96083973329412,30.03792135679121,132.75474958198117,29
1767649709.5681322,1,left_wrist,-0.2225,-0.3367,-0.3079,15.82,-56.28,133.7,-0.13888504002672072,0.4671094260277701,0.6754812977751217,-0.5533938435949759,-111.68799614366657,19.230084419819818,123.78416686692677,29
1767649709.5681322,2,right_wrist,-0.2596,0.4641,-0.2172,40.74,-32.34,-166.39,0.44855503823198273,0.14168225982709068,0.8023168880611252,0.3674399625230024,114.56274858561488,37.99895597253942,135.02399925350633,29
1767649709.6183538,1,left_wrist,-0.4714,-0.4846,-0.2352,-38.78,-45.29,106.82,-0.08775054869793314,0.49150649795635026,0.6631443728466924,-0.5576385428139478,-113.70904706983924,25.580790590703465,123.77526436515484,29
1767649709.6183538,2,right_wrist,-0.4436,0.4377,-0.1688,3.22,-27.3,-125.23,0.48054177820261923,0.10049574504391555,0.8025974500815375,0.3388473664536098,115.71974313862844,44.68896360816627,136.7660024727834,29
1767649709.6689742,1,left_wrist,-0.5392,-0.3372,-0.2723,40.88,-27.58,80.15,-0.06489194978691448,0.5084046489945896,0.6351492347655434,-0.5778401139677697,-112.03408747198816,30.339388668185105,123.36310361637332,29
1767649709.6689742,2,right_wrist,-0.5266,0.3611,-0.2323,-36.26,-16.24,-97.79,0.50291867257529,0.05836179647566877,0.7982977480857414,0.32617083696810667,115.89980198429109,49.89683829039154,139.15959661650854,29
1767649709.722878,1,left_wrist,-0.5632,-0.2582,-0.2767,-28.91,-15.54,54.74,-0.036344516446476134,0.5228575956202451,0.6292566418611312,-0.5738772425354922,-114.01309034099951,33.66747703969224,122.77961777138785,29
1767649709.722878,2,right_wrist,-0.6193,0.2904,-0.2796,9.03,-12.74,-57.82,0.5153426153580575,0.0396519787657289,0.7994670212599729,0.3061081366014068,117.9549931422605,53.10368418903225,140.86753274655433,29
1767649709.810667,1,left_wrist,-0.5934,-0.3943,-0.1801,-4.97,-11.69,19.74,-0.023452889361320655,0.5269703630444932,0.6240189264117293,-0.5765002844173742,-114.18286865179739,35.33296099650729,122.93178765571746,29
1767649709.810667,2,right_wrist,-0.6271,0.0893,-0.2176,6.23,6.65,41.86,0.5119176895970273,0.046619034469523105,0.8013115981289614,0.3060501060394868,118.19667841294383,52.36114034255433,140.54668586153701,29
1767649709.867058,1,left_wrist,-0.4216,-0.1122,-0.0015,-12.25,48.51,-113.54,-0.07013080550157959,0.5002784282088123,0.6614306828522203,-0.5543578412634437,-115.05011490123186,27.509340244049874,123.50571705587933,29
1767649709.867058,2,right_wrist,-0.4651,0.1952,-0.1728,2.24,20.16,102.06,0.49202820761367344,0.07718003904668788,0.8041897648238543,0.32439221112378974,117.06198281720683,47.8418374611074,138.6573227748385,29
1767649709.9529228,1,left_wrist,-0.1688,0.3728,-0.0586,68.95,119.42,-185.22,-0.16225704766252128,0.4724012423594059,0.6779919210172553,-0.5392927514221418,-112.45961657685247,16.828454909797788,121.56295481637058,29
1767649709.9529228,2,right_wrist,0.0146,0.2733,-0.1527,3.92,83.23,273.0,0.3719984387037497,0.22366242502470027,0.8027526295872892,0.4088771171449135,115.294871593786,24.478046748358057,133.2142066040031,29
1767649710.003537,1,left_wrist,0.1166,-0.4948,-0.2499,-5.04,140.91,-233.17,-0.2593124242640544,0.4318347931293413,0.7139886892122778,-0.4863084717976563,-113.1418146158427,2.849781258906296,119.5485865390829,29
1767649710.003537,2,right_wrist,0.3841,0.7623,-0.3484,-3.29,110.39,295.82,0.2747044668624841,0.30662120958317923,0.7830346941798831,0.466237661960253,114.75262174725088,8.296140466873293,131.91538531377495,29
1767649710.065454,1,left_wrist,0.5671,-0.7725,-0.55,14.21,161.0,-232.26,-0.4628663532415684,0.32531180282176575,0.731412404363184,-0.3807398911663583,-108.16699417906611,-25.427840683774413,113.48152935870885,29
1767649710.065454,2,right_wrist,0.5563,0.9067,-0.285,3.92,140.28,299.25,0.16042849310657473,0.37887575439325183,0.7512049773473974,0.5161462422036939,114.86451274457256,-8.631633909755264,131.9906358450926,29
1767649711.160267,1,left_wrist,-0.1566,-0.609,-0.285,8.26,-58.8,140.7,-0.21663435871864875,0.4062871388286569,0.6994483924414935,-0.5466006419279015,-108.1625164928041,8.111764736364321,125.57878984236265,30
1767649711.160267,2,right_wrist,-0.3314,0.3601,-0.1342,16.87,-22.75,-145.11,0.45996835390760393,0.11315681923299445,0.7847474496826718,0.39974502858840283,109.37672425652063,39.15719935830532,135.30879551794754,30
1767649711.2158542,1,left_wrist,-0.3548,-0.7369,-0.2303,21.07,-29.61,105.42,-0.13260684637011405,0.458750446080117,0.6583104376976759,-0.5818855730599969,-107.95263855647912,21.056450954820082,125.65091563297563,30
1767649711.2158542,2,right_wrist,-0.4514,0.51,-0.2342,45.85,-14.63,-105.07,0.4784642200542638,0.08884984966488045,0.7961443034780871,0.3596275050406806,113.31834474821716,44.26255687068235,137.30554941873493,30
1767649711.303255,1,left_wrist,-0.5056,-0.2806,-0.2796,11.62,-11.55,75.74,-0.10833984465364407,0.4794467215565538,0.6396765070957248,-0.5909376325120187,-107.92225476137372,25.343321104924623,124.87716587158815,30
1767649711.303255,2,right_wrist,-0.5998,0.325,-0.2826,-8.4,-7.56,-52.08,0.5038106285156035,0.046376647924993526,0.7966003036894479,0.3308353265354729,115.47957420649351,50.53250624456895,140.15722629392286,30
1767649711.366167,1,left_wrist,-0.5236,-0.2845,-0.3221,-4.62,0.21,17.01,-0.07941559440230091,0.5014479277471493,0.6284946742793874,-0.5892686853433377,-109.64942638245415,29.41623302866999,123.79297499363221,30
1767649711.366167,2,right_wrist,-0.5739,0.4738,-0.3479,30.73,-10.5,-21.98,0.5069716688400845,0.04777175815183121,0.8012340389556484,0.3141999378348144,117.59776075575049,51.47957112732633,140.620530873759,30
1767649711.417419,1,left_wrist,-0.5729,-0.2826,-0.2069,-28.7,9.38,-23.03,-0.07772003875098576,0.5009289582465588,0.6390037805682861,-0.5785360341292498,-111.29291441786536,28.70395923613804,123.65276894063729,30
1767649711.417419,2,right_wrist,-0.5797,0.2582,-0.2552,-9.24,-1.05,23.38,0.5045906988840474,0.051602625752224913,0.8007035180364946,0.31874640675490806,117.07758145890935,50.81943146318884,140.21063256815265,30
1767649711.507021,1,left_wrist,-0.4943,0.0761,-0.1498,-10.5,30.8,-85.54,-0.10223492908883006,0.4869936876016795,0.657788129990821,-0.5654201478135514,-111.93741387398109,24.595806260466265,123.7203648381605,30
1767649711.507021,2,right_wrist,-0.3777,0.1391,-0.1479,18.76,18.06,146.09,0.46276194262138864,0.129508628870875,0.8039915060705561,0.35025213443412967,115.53725829418913,40.797834666921645,135.30737755102675,30
1767649711.559532,1,left_wrist,-0.2284,-0.1693,-0.1259,-34.58,71.4,-146.72,-0.14717406833747967,0.4655787607347266,0.6915928222067131,-0.5322363943154065,-114.07355776328532,16.979340399114367,123.1611629603585,30
1767649711.559532,2,right_wrist,-0.0883,0.428,-0.1854,-56.98,51.24,203.49,0.4117279814342463,0.18355216035893798,0.7904046994505723,0.4147879998482335,111.44072375664828,29.90695693507123,133.21696948409738,30
1767649711.619893,1,left_wrist,0.3094,-1.423,-0.2059,-82.95,132.51,-199.78,-0.3223035609599043,0.39969814699567935,0.729864876534573,-0.4512860156064644,-112.78416259482496,-6.299159434907462,118.39809654210623,30
1767649711.619893,2,right_wrist,-0.0522,0.3631,-0.1142,23.52,68.11,258.23,0.33422965377515657,0.2654167470734454,0.7798350263946109,0.45793211343866946,111.83021574493478,16.152940295532478,131.43850382577793,30
1767649711.670284,1,left_wrist,0.3094,-1.423,-0.2059,-82.95,132.51,-199.78,-0.3895950114522499,0.36999670691303504,0.7565899361279552,-0.37267926220133,-116.16228284400593,-18.285195749231193,116.43047484220423,30
1767649711.670284,2,right_wrist,0.4748,1.0297,-0.3289,-26.25,70.77,286.65,0.2504824084639454,0.3445014938668992,0.7441886851637919,0.514548816583774,110.18508331426322,1.0478077863785413,129.5878905210413,30
1767649712.8094568,1,left_wrist,0.0024,-0.5973,-0.2547,-1.68,-64.47,161.42,-0.22870534998950579,0.39945663934153214,0.7187874516051306,-0.5210305706838598,-110.71981241905026,5.018487042288403,125.34328886799288,31
1767649712.8094568,2,right_wrist,-0.2079,0.4709,-0.2006,42.7,-3.64,-146.93,0.42963446819206585,0.14097581503547021,0.7974294937351059,0.3995575626086667,112.33259162567245,34.928271143425015,136.13248550490363,31
1767649712.868109,1,left_wrist,-0.307,-0.49,-0.2996,-12.32,-42.42,92.89,-0.1321435198144631,0.456709281832486,0.6972285824628214,-0.5364951312509593,-114.14281149465387,17.804864083710306,125.13273563687481,31
1767649712.868109,2,right_wrist,-0.3304,0.5812,-0.2401,28.84,-10.01,-109.27,0.4465718537644155,0.11290880364940979,0.8066828247854605,0.3702539691617395,115.09400553734751,39.55910141527406,138.30180760305555,31
1767649712.9218829,1,left_wrist,-0.4211,-0.3982,-0.3001,-22.33,-30.45,62.72,-0.09951294879640503,0.4722668394168065,0.6904221015957005,-0.5388678196341663,-115.48277984409137,21.81228614193623,125.12142426150997,31
1767649712.9218829,2,right_wrist,-0.5954,0.5217,-0.3138,6.65,-9.52,-64.54,0.4608011615501656,0.09065856002636197,0.8101052607996845,0.35095980030858226,116.76774101340061,43.07537295843589,139.91769510960205,31
1767649713.0050051,1,left_wrist,-0.5187,-0.5324,-0.3562,-25.76,-15.26,41.72,-0.07558797831944393,0.4846904931177768,0.6871828095646569,-0.5358557358596157,-117.09594645050527,24.554766392791848,124.77103712880438,31
1767649713.0050051,2,right_wrist,-0.6193,0.4504,-0.3035,-31.57,-4.48,-29.47,0.47986155721341334,0.05080006826346662,0.8101118161426015,0.3329730984918763,118.37442785770979,48.04352532892582,143.0518695097943,31
1767649713.06411,1,left_wrist,-0.5739,-0.405,-0.3479,11.97,-6.58,29.33,-0.06511623561316683,0.4939029558932018,0.6771508363807286,-0.5415593142107412,-116.91265635237673,26.536540295338696,124.25978441484399,31
1767649713.06411,2,right_wrist,-0.6193,0.4504,-0.3035,-31.57,-4.48,-29.47,0.4851802995416457,0.03325366728194518,0.8071215409231733,0.3347373428925775,118.04966086695039,49.546823254410974,144.3132130958072,31
1767649713.116273,1,left_wrist,-0.5895,-0.4138,-0.3362,3.29,1.96,-10.15,-0.05213824895256509,0.5000519398982103,0.6779322853946175,-0.5363184472119414,-118.28109037992765,27.754353008538526,123.9687905424908,31
1767649713.116273,2,right_wrist,-0.5949,0.3845,-0.2816,37.66,-10.08,1.82,0.48713496187419236,0.041654613594156537,0.8121715874357586,0.3183421659916112,120.0569128835506,49.88506822213512,144.10006404363358,31
1767649713.2050471,1,left_wrist,-0.4948,-0.019,-0.1679,15.61,20.09,-50.89,-0.06984829214279159,0.49117910195433423,0.6836158220238899,-0.5352884397842625,-117.52656549503409,25.48953254897907,124.22734295643481,31
