timestamp,node_id,node_name,ax,ay,az,gx,gy,gz,qw,qx,qy,qz,roll,pitch,yaw,rep_number
1767470478.121511,1,left_wrist,0.0634,-0.6617,0.8984,27.37,167.79,117.32,-0.733165642472501,0.08800111232794808,-0.32632945220296944,0.5901127295287221,-33.681219605107394,22.00243095361701,-84.39525781872885,1
1767470478.121511,2,right_wrist,-0.243,0.4943,0.7408,-15.82,145.04,-72.17,-0.17343727860660574,0.25166183613427867,-0.31152851811126797,-0.8997420813913592,34.86913965766869,34.11963992602092,169.18795561084553,1
1767470478.178271,1,left_wrist,-0.2562,-0.4807,0.7052,3.85,159.6,95.97,-0.72672346989489,-0.023900890736860345,-0.427393875056055,0.5372487517812253,-33.82409859991003,40.3064601713817,-85.6835689171352,1
1767470478.178271,2,right_wrist,-0.3621,0.4231,0.6651,-40.11,139.44,-63.07,-0.17368881409448228,0.3136864366149994,-0.297855685964703,-0.8847118206968485,33.74632988199202,41.186533530271305,170.78914220053883,1
1767470478.231018,1,left_wrist,-0.3889,-0.4094,0.631,-3.64,162.05,82.04,-0.7140729628689585,-0.0731885939310741,-0.47487646989116034,0.5091518160250923,-35.15275305629602,48.82664154448218,-87.3434327415961,1
1767470478.231018,2,right_wrist,-0.4904,0.3109,0.529,-14.98,137.83,-49.49,-0.17283978905551386,0.37139216281003923,-0.29272269187915323,-0.8640067675554105,34.3266611998263,47.98408567037036,173.02863135952325,1
1767470478.285578,1,left_wrist,-0.5119,-0.2503,0.5266,5.25,150.22,70.0,-0.6981022192369246,-0.12222559296311344,-0.5138945691400538,0.48334932267424824,-36.4250352693017,56.68433180704511,-89.52310199445935,1
1767470478.285578,2,right_wrist,-0.5744,0.2738,0.4431,-29.54,119.63,-38.71,-0.16870730073268958,0.42252414852480896,-0.28017390512213697,-0.8452891656004392,34.26749968987686,53.983231616792324,175.27352616587734,1
1767470478.372929,1,left_wrist,-0.6549,-0.141,0.3645,-15.75,154.35,56.35,-0.6763961491789166,-0.16569695789160666,-0.5577111832813838,0.45165363229390604,-40.88325884331269,64.70806007738835,-94.03541548945346,1
1767470478.372929,2,right_wrist,-0.7593,0.2572,0.2606,-50.33,85.4,-21.28,-0.14791398647772264,0.50493367486425,-0.2539638735267763,-0.8115822740398089,36.05245044014318,63.47249475674014,-177.8980742688608,1
1767470478.43229,1,left_wrist,-0.6666,-0.2523,-0.1679,3.78,68.04,23.45,-0.6380335939210403,-0.2281341926692815,-0.6041659374548484,0.41934644768096035,-52.425695126608595,74.2153395348076,-107.48610126163875,1
1767470478.43229,2,right_wrist,-0.7442,0.1435,0.0239,-26.81,57.61,-10.57,-0.13954633546176876,0.5310863490922926,-0.24636039262660495,-0.7986117122931995,37.94905217419611,66.49437706416481,-174.41865856315715,1
1767470478.522486,1,left_wrist,-0.7549,-0.1976,-0.0493,6.86,11.62,10.08,-0.6339055861197589,-0.23538012445240472,-0.6079107869358146,0.41617830316585974,-54.133020834650075,75.15809207624109,-109.50337665022123,1
1767470478.522486,2,right_wrist,-0.9243,0.3558,0.1039,-1.4,8.96,12.46,-0.12277594339770169,0.5440701993623075,-0.2461182580217602,-0.7926786795145923,41.81499781324202,67.36577487484098,-169.0401497870282,1
1767470478.581613,1,left_wrist,-0.9267,-0.246,0.0102,-11.2,-27.23,-6.23,-0.6384432935050877,-0.22045351081625966,-0.6088812230868745,0.41599767633893536,-54.37012135565685,73.92262041919685,-108.43629767471707,1
1767470478.581613,2,right_wrist,-0.9028,0.2996,0.1513,7.07,-6.93,16.8,-0.11829431332842405,0.5416538420277294,-0.2542858048129454,-0.792436937756809,44.07332849827651,66.72431415449789,-167.13426353880132,1
1767470478.6324852,1,left_wrist,-1.0404,-0.3899,0.2308,-1.47,-30.03,-6.72,-0.6445486754811506,-0.2092014901704533,-0.6013672536248661,0.42326016551719386,-51.68133386388846,72.23467975340884,-105.50857260631278,1
1767470478.6324852,2,right_wrist,-0.9179,0.2899,0.1298,10.43,-15.33,14.63,-0.11685933501373763,0.5367448962631076,-0.26204480457252394,-0.7934616137862,45.3896129320203,65.92576524340099,-166.40917971032275,1
1767470478.7204301,1,left_wrist,-1.0502,-0.3192,0.1781,-10.71,-14.21,-3.71,-0.6459555397736501,-0.20039601991557043,-0.6023340745065934,0.4240006350537893,-52.38691004261656,71.45932251246177,-105.53550637828101,1
1767470478.7204301,2,right_wrist,-0.9218,0.3148,0.205,18.34,-19.32,12.18,-0.11799718626205129,0.5170402963672504,-0.2709999557652713,-0.8033087948864532,44.53916217704973,63.46229034322225,-168.29256546439947,1
1767470478.772506,1,left_wrist,-0.9301,-0.2264,0.1425,-9.45,-25.13,-4.9,-0.6511317718833848,-0.19374951126566964,-0.5995721961472008,0.4230859536022677,-51.077313070745895,70.86457290916684,-103.58147871959852,1
1767470478.772506,2,right_wrist,-0.7725,0.223,0.0483,29.33,-44.8,23.1,-0.12191547952186542,0.5000206127145894,-0.28490253883580663,-0.8086696149098169,45.10533580034656,61.422514656352114,-169.43130938681134,1
1767470478.830503,1,left_wrist,-0.8223,-0.3172,0.1669,-15.61,-64.61,-16.45,-0.6680781586320026,-0.15459646840262123,-0.5881664462790857,0.42875603481203794,-48.841340081280904,66.70061838796302,-98.6580874383214,1
1767470478.830503,2,right_wrist,-0.6764,0.2562,0.0517,25.62,-82.04,38.01,-0.12391774220577173,0.4674899724662117,-0.299086435474211,-0.8225842345471345,44.41108349503517,57.48214787388751,-171.8966564060418,1
1767470478.882217,1,left_wrist,-0.7584,-0.2562,0.1484,-33.39,-84.07,-27.37,-0.6841778972561635,-0.12244110697875075,-0.5742640920968584,0.43258471165324774,-46.6863563454944,63.091436719868945,-94.28534766175432,1
1767470478.882217,2,right_wrist,-0.5788,0.386,0.2167,1.33,-132.79,44.73,-0.12280008723622203,0.41296487576378005,-0.3048011922689104,-0.849397659021752,41.34993402980844,50.93231833701657,-176.07573002282152,1
1767470478.932603,1,left_wrist,-0.7501,-0.2967,0.1303,-27.58,-104.51,-43.61,-0.7007270577846385,-0.08378102764004818,-0.5530478632041806,0.4428322378749669,-44.85895340423597,58.13269379617096,-90.42592459329539,1
1767470478.932603,2,right_wrist,-0.4934,0.4124,0.3562,19.46,-155.19,51.24,-0.12515756315814078,0.34365935462014563,-0.3151355804999275,-0.8757416275759391,39.50221655464056,42.90593983077718,179.79562028642812,1
1767470479.019306,1,left_wrist,-0.5812,-0.284,0.3172,-35.28,-141.89,-74.48,-0.7209806980677446,-0.02550392691748701,-0.5150630679912103,0.4628676038750359,-43.22881078009648,50.023760777313186,-86.34761596052587,1
1767470479.019306,2,right_wrist,-0.2006,0.5236,0.6695,112.35,-176.75,100.73,-0.1234030018529986,0.16675099360310938,-0.3772711273889025,-0.9025698320378047,44.12496361348185,23.21120249823983,173.94538393585816,1
1767470479.07042,1,left_wrist,-0.4534,-0.486,0.3753,-64.82,-144.55,-106.54,-0.7289097830405509,0.0520589815800048,-0.4814658963902508,0.48391216272972715,-45.582434607696364,40.65527868109723,-84.85449061392674,1
1767470479.07042,2,right_wrist,-0.0317,0.6803,0.8364,-4.06,-191.8,114.45,-0.10767425749387664,0.06803551673064769,-0.37091207218140226,-0.9198921988181192,43.019166312611546,11.832194556216812,171.3248631135771,1
1767470479.129139,1,left_wrist,-0.002,-0.4275,0.5392,-32.97,-151.41,-172.55,-0.711716069344608,0.23482300995518274,-0.3885402828215471,0.5360548845567976,-51.94364250886113,17.535982250956973,-82.56648954420538,1
1767470479.129139,2,right_wrist,0.059,0.7154,0.8091,172.34,-140.98,133.07,-0.07996400507844721,-0.022585953836424692,-0.43393389617876343,-0.8971047911633463,51.49066717264902,1.6546026151530913,170.6106935595399,1
1767470479.179438,1,left_wrist,0.02,-1.1078,0.6773,-182.14,-157.15,-203.35,-0.6638859820500078,0.36300756869022355,-0.3560950790409827,0.5483404075881202,-61.040139683400504,4.28453830107301,-81.63697104856946,1
1767470479.179438,2,right_wrist,0.2982,0.9292,0.6969,57.82,-172.27,158.97,-0.04732709787420931,-0.1258711303564363,-0.4463968215729048,-0.8846730933170773,54.59988891274885,-10.396337501120895,168.49880796444856,1
1767470479.2294788,1,left_wrist,0.2547,-1.0814,0.6891,-144.76,-97.72,-221.62,-0.5972395502278146,0.4612274030259008,-0.3211077663665583,0.5722447070272828,-68.14774393049821,-8.297519666970905,-81.93360942340384,1
1767470479.2294788,2,right_wrist,0.3728,0.8667,0.73,202.65,-103.81,183.05,0.016189990105241518,-0.20748584328285685,-0.5057442847494314,-0.8372038147911653,64.40918423561202,-21.33325115544246,168.68488564628143,1
1767470479.281196,1,left_wrist,0.3177,-0.913,0.4309,-241.71,-72.03,-230.86,-0.49402015965548934,0.569473493101446,-0.30894909588983227,0.5798227993599919,-80.11376382103498,-20.80161219578559,-81.59062917711786,1
1767470479.281196,2,right_wrist,0.6271,1.1102,0.449,153.02,-125.51,204.68,0.07826587843938035,-0.2983842878206653,-0.5403887244093316,-0.782829033432666,73.42666954217258,-33.487549269066754,166.12845999533727,1
1767470484.028288,1,left_wrist,-0.8989,-0.3133,0.0303,-10.64,-30.8,-10.5,-0.6065049555319433,-0.18582969801034846,-0.6158703485229231,0.46725022853159887,-63.791735946917285,67.0308017614265,-120.02034933332902,3
1767470484.028288,2,right_wrist,-0.8198,0.2147,-0.0878,27.09,-55.09,26.53,-0.20164051252918785,0.5265210972092959,-0.3470586957801295,-0.7494443939238464,56.38636383551726,68.30405785643586,-170.15162631037563,3
1767470484.081043,1,left_wrist,-0.7998,-0.3084,0.0224,-25.27,-59.99,-22.82,-0.6178297042100266,-0.16152648869533948,-0.6095010708788164,0.4697915438181934,-61.23185493789827,64.81026095150644,-115.67289004881944,3
1767470484.081043,2,right_wrist,-0.7437,0.3177,0.0102,39.13,-88.55,45.43,-0.20742568638244696,0.48850447556839444,-0.3645981008568349,-0.7651184136001485,54.13234691842355,63.99836825416063,-174.92175302083558,3
1767470484.1723971,1,left_wrist,-0.7666,-0.3484,0.0752,-51.24,-84.56,-46.2,-0.6315259306143971,-0.11800966088134376,-0.6027399570132853,0.47323700523090234,-59.77146102520008,60.80737913220441,-110.96281785416687,3
1767470484.1723971,2,right_wrist,-0.5095,0.385,0.1879,41.37,-140.91,97.58,-0.21020157983522295,0.35834436282663085,-0.41656590922913506,-0.8086268958755058,52.861728788525994,48.99561813787973,176.38221142851796,3
1767470484.2229261,1,left_wrist,-0.7056,-0.3884,0.1469,-63.21,-111.02,-67.76,-0.646180050104937,-0.0584651793747628,-0.5903903946639472,0.4800753561011091,-58.92844156970971,54.99803506353297,-105.99579114238709,3
1767470484.2229261,2,right_wrist,-0.4192,0.488,0.407,116.55,-153.79,130.48,-0.20778933266783514,0.2644618414444831,-0.46172036538587247,-0.8207909793834148,56.20496132701015,38.75686572793408,172.86277165539443,3
1767470484.2799292,1,left_wrist,-0.4782,-0.3231,0.1723,-106.61,-141.75,-162.12,-0.649945895564981,0.13374499134751608,-0.5599944498006554,0.4960734081969611,-65.20107242012305,36.52956628464412,-98.54275460056972,3
1767470484.2799292,2,right_wrist,-0.2279,0.7169,0.4402,47.53,-168.7,158.62,-0.18721902186693512,0.1627990244675675,-0.4798616817881649,-0.8415332921727046,56.91598234364037,26.980039559560367,169.73150558327163,3
1767470484.3692212,1,left_wrist,-0.2172,-1.0024,0.5124,-246.47,-155.96,-225.05,-0.615900670268709,0.291885625025505,-0.5465876082024812,0.48652968339610714,-75.40630054443542,22.90879238464491,-94.41687089574492,3
1767470484.3692212,2,right_wrist,0.242,0.934,0.5065,-30.31,-159.81,203.77,-0.11951644875269021,-0.05479739349781294,-0.5268597012926,-0.8397213343111296,63.95450470123049,1.9431417314568389,165.01235152237024,3
1767470484.419265,1,left_wrist,-0.1688,-0.3884,0.1347,-297.43,-72.94,-276.15,-0.5298250332789306,0.44543252885059775,-0.5438992589589914,0.47439318340022724,-89.33159673256785,8.842717325708085,-92.42162846781393,3
1767470484.419265,2,right_wrist,0.2489,0.873,0.5924,276.92,-81.9,225.89,-0.046304321200170265,-0.15253494921396488,-0.6088389967436972,-0.777112652805636,77.54658010666333,-10.409948562512916,164.8101277624371,3
1767470484.471342,1,left_wrist,0.5348,-1.2063,0.2064,-147.7,-65.1,-276.57,-0.4531406262851774,0.555104366805725,-0.49795956472666386,0.4884250061783527,-96.46961509258556,-5.218969307888299,-88.44899830990393,3
1767470484.471342,2,right_wrist,0.7213,1.0599,0.3128,45.5,-126.98,233.38,0.005142063039096379,-0.2602420662233801,-0.600392832239027,-0.756158761869151,80.98652334879638,-23.562122699838863,160.5833929823374,3
1767470486.1243992,1,left_wrist,0.1976,-0.6529,0.894,71.12,224.21,140.49,-0.736548831919231,0.05239170492735188,-0.3944987929508281,0.5469201311101662,-36.668542829215106,31.589317312942793,-83.90136688321996,4
1767470486.1243992,2,right_wrist,-0.0844,0.3987,0.5617,-9.45,209.3,-76.44,-0.27525749702509805,0.3425546308508835,-0.33558589681645973,-0.8332297048665425,34.46210228572025,49.07768903422005,159.55655056409915,4
1767470486.17791,1,left_wrist,-0.1591,-0.486,0.5085,24.08,184.03,95.48,-0.706982442842246,-0.08901478605341444,-0.5010576895439268,0.4911144318034006,-37.23052803834165,52.74137453325791,-88.53334993934926,4
1767470486.17791,2,right_wrist,-0.3109,0.2865,0.3621,-23.45,173.81,-59.22,-0.2657842453095278,0.4124009346170949,-0.3387634369451338,-0.8028222330387418,37.0371502028214,57.37797720777738,164.13841356395943,4
1767470486.2401311,1,left_wrist,-0.3133,-0.3045,0.3016,6.86,156.17,77.14,-0.6868486889521586,-0.13738186523548448,-0.5424702202309182,0.4637792166017566,-40.078755524812664,60.76449893737921,-92.19783755175261,4
1767470486.2401311,2,right_wrist,-0.4675,0.246,0.2338,-23.03,143.85,-46.06,-0.25336327634048617,0.46939805250999933,-0.3420989953117551,-0.7735895526107642,41.85958633543539,64.1046864160419,170.665405076603,4
1767470486.319426,1,left_wrist,-0.5197,-0.2811,0.285,15.89,123.69,59.5,-0.6672675854556537,-0.17742084454419224,-0.5710454733166362,0.4440527904720187,-43.505749804154036,66.87477973087397,-96.80726080861261,4
1767470486.319426,2,right_wrist,-0.6852,0.1947,0.1274,-23.1,85.33,-18.55,-0.2242389667720608,0.5489919179815461,-0.33383863827567345,-0.7327185840185754,54.34671364994375,72.5984856070971,-172.71147163903657,4
1767470486.371399,1,left_wrist,-0.6529,-0.2294,0.1581,16.59,106.54,36.4,-0.643295878475841,-0.21041679704277821,-0.5981944325471916,0.42902051830628996,-51.091518487633614,71.83786796373577,-105.59354570202255,4
1767470486.371399,2,right_wrist,-0.8306,0.2333,0.0791,-49.0,61.95,-8.4,-0.204787793497176,0.5762511205640194,-0.3241286135061463,-0.7217598268051867,61.527350694743454,74.70598679265905,-162.8126951338633,4
1767470486.422525,1,left_wrist,-0.793,-0.3182,-0.0288,4.27,85.19,17.57,-0.6209662016807227,-0.23132019961950273,-0.6221571379652089,0.4169081880907949,-62.827816516819006,74.91827680615523,-117.90751863851136,4
1767470486.422525,2,right_wrist,-0.8886,0.367,-0.1674,6.65,51.03,3.08,-0.19639584773231394,0.5926930571888966,-0.3339522092689947,-0.7061299688286445,72.70069442287668,75.51434899329819,-151.72261315756347,4
1767470486.479587,1,left_wrist,-0.8442,-0.042,-0.4421,-51.94,27.58,-3.01,-0.5958589573271597,-0.23430222841404041,-0.6653258412730297,0.38392198903884084,-88.79116742676736,76.60306629737534,-141.0187271300898,4
1767470486.479587,2,right_wrist,-0.9609,0.1845,-0.2133,1.61,11.62,1.96,-0.194269260456133,0.5984502833456977,-0.33685215533101154,-0.7004622318541758,76.65740949632841,75.75762987033866,-147.82160062198497,4
1767470486.571528,1,left_wrist,-0.9575,-0.3177,0.04,31.01,-39.13,0.21,-0.603313470214873,-0.23253656253978636,-0.6495797676306713,0.3999821611326569,-78.65905283244236,75.88810100793579,-132.23258463819877,4
1767470486.571528,2,right_wrist,-0.9262,0.1386,-0.0605,7.7,-3.92,8.75,-0.2000875745024667,0.6012913413526499,-0.3461155859866622,-0.6918220049125066,81.10188533654355,76.04371396941036,-144.69591111006673,4
1767470486.627029,1,left_wrist,-1.0404,-0.2572,0.2255,-21.84,2.38,7.56,-0.6081168219129699,-0.2284794690108819,-0.6509081787493436,0.3928226138910378,-78.3291464177968,76.20623472019484,-130.85986652492804,4
1767470486.627029,2,right_wrist,-0.957,0.283,0.039,-9.45,-22.54,9.17,-0.19493624685743402,0.59195523226809,-0.34671109937591355,-0.7009852182614942,77.03790940011821,74.8131963660438,-148.42231856470355,4
1767470486.683103,1,left_wrist,-0.9653,-0.3489,0.0249,-16.59,-11.83,-6.79,-0.6088138000783346,-0.21685459134510096,-0.6562486134346653,0.38943240801428686,-79.7625310662269,75.45868310377611,-130.97510211333244,4
1767470486.683103,2,right_wrist,-0.9804,0.2772,0.0664,4.2,-15.89,3.92,-0.19459934700556691,0.5834428120320271,-0.34980849854813423,-0.7066538003695075,74.43536081048197,73.88967636849532,-151.3231542930913,4
1767470486.769998,1,left_wrist,-0.937,-0.2411,-0.0078,-18.69,-22.61,-12.04,-0.6128166216552994,-0.20534692348138037,-0.6569921775349434,0.38813619761317186,-78.53598793266919,74.71720276710508,-128.63687187278782,4
1767470486.769998,2,right_wrist,-0.8379,0.1645,-0.1664,36.05,-51.66,23.03,-0.20939810010513824,0.5561340176129498,-0.3661695792886653,-0.7160916347295225,68.76612644266318,71.7751071285206,-159.9188219247464,4
1767470486.8205628,1,left_wrist,-0.9087,-0.3348,-0.0517,-22.47,-35.35,-22.4,-0.6182205403759516,-0.1857559182983336,-0.6559549956765128,0.3911791736805975,-76.0481118966702,73.01424118386235,-124.76928213563771,4
1767470486.8205628,2,right_wrist,-0.693,0.224,-0.1742,64.12,-95.48,54.39,-0.2220411832870902,0.5134782498003768,-0.3917112088156079,-0.7304793828675974,64.28246167361222,67.53641887961044,-168.23979352187374,4
1767470486.8826292,1,left_wrist,-0.773,-0.2835,-0.0708,-48.23,-80.5,-62.23,-0.6430651295782407,-0.10777024710013819,-0.6431480085165623,0.4015139500710724,-68.41476447491601,66.0238419619639,-111.61756720200043,4
1767470486.8826292,2,right_wrist,-0.5778,0.3416,-0.0049,99.82,-136.36,99.26,-0.23270305751608936,0.44230880073506285,-0.4341233881161552,-0.749499229956592,62.479651214576556,59.89000152569955,-175.97509624830715,4
1767470486.9775438,1,left_wrist,-0.7222,-0.4665,0.1688,-138.39,-114.87,-104.44,-0.6597021754261275,-0.01570619811629247,-0.6369314913627461,0.39857826131036633,-68.87735510369052,58.527459584912556,-104.31551927102586,4
1767470486.9775438,2,right_wrist,-0.3318,0.63,0.3104,146.23,-170.52,180.11,-0.2262447038592097,0.23579474512130721,-0.5329016257732844,-0.7805318887765103,66.13504195778411,37.53334029407333,172.61917379588715,4
1767470487.02965,1,left_wrist,-0.4558,-0.2972,0.1435,-176.12,-122.92,-239.82,-0.6373643935190483,0.2365320591673772,-0.6108380070415657,0.40582772701433806,-79.91131779421087,35.921073779232366,-95.35928607723469,4
1767470487.02965,2,right_wrist,-0.1859,0.6437,0.4377,146.79,-155.96,205.38,-0.20447508127634756,0.1159187368808708,-0.5828582975830582,-0.7778360961767933,71.1320428930145,24.752007168581336,168.37660548729409,4
1767470487.085032,1,left_wrist,-0.124,-1.036,0.1405,-267.89,-113.54,-274.75,-0.5804356455335522,0.4016142474682544,-0.5876398252940951,0.3955753952824693,-90.8139779430688,21.372924885289965,-90.22155447489442,4
1767470487.085032,2,right_wrist,0.1064,1.0438,0.5178,80.92,-186.48,219.17,-0.17789733907809807,-0.013952930004497242,-0.5987311116075049,-0.7808193827553612,73.26369128131363,11.024919089624198,162.53895442280913,4
1767470487.1700768,1,left_wrist,0.0244,-0.1596,-0.042,-110.39,-31.57,-297.15,-0.5096432661697862,0.5093432033384474,-0.5406257418814641,0.4342315622750587,-95.97127660260384,6.240770625855881,-87.79000996171392,4
1767470487.1700768,2,right_wrist,0.4797,1.3664,0.5329,183.47,-118.02,266.84,-0.05050598131386192,-0.24368859684695293,-0.6471968726562379,-0.7205561890944191,87.39800128610058,-16.60715429133649,156.10183650966417,4
1767470487.222723,1,left_wrist,0.7608,-1.7744,0.1796,-53.69,-31.29,-309.82,-0.44073738615576935,0.5958283287960116,-0.4676109230254349,0.4817459742603287,-98.58707646170424,-9.31653234895479,-84.27012075301185,4
1767470487.222723,2,right_wrist,0.4797,1.3664,0.5329,183.47,-118.02,266.84,0.019786615708242698,-0.3561699398166758,-0.6643010577976164,-0.6568527752995853,99.02062031533596,-29.6164158852603,149.04118324713627,4
1767470488.581132,1,left_wrist,0.1679,-0.9701,0.8438,131.18,211.05,213.92,-0.7243495721861983,0.12525251288037711,-0.43399716992920057,0.5208415899141186,-46.94537685892159,29.884809892700964,-84.65665955094747,5
1767470488.581132,2,right_wrist,0.1113,0.7393,0.773,-60.48,226.24,-159.53,-0.24008237545077724,0.15367709464526205,-0.4856215083756312,-0.8263870486535227,56.570760783849046,29.15486449571568,163.53340346503245,5
1767470488.631954,1,left_wrist,0.0063,-0.6202,0.7549,25.27,238.56,168.7,-0.7135228092036469,0.032731507894692195,-0.5060581125299564,0.48344496675391496,-47.82101941387372,43.671305017696696,-88.38603594126994,5
1767470488.631954,2,right_wrist,-0.0322,0.5524,0.6276,-71.4,209.23,-130.41,-0.2357260475476981,0.2601467351404237,-0.46845883086612544,-0.8107423946524946,56.241158790965194,39.991942254810134,169.58569569597125,5
1767470488.720284,1,left_wrist,-0.1454,-0.4182,0.3318,34.51,206.01,141.4,-0.6940456697112564,-0.04918976618652265,-0.5600969154485914,0.4496358755287912,-49.81516034069465,55.255398946611415,-93.1947838021333,5
1767470488.720284,2,right_wrist,-0.3982,0.3792,0.2611,-35.63,175.49,-89.11,-0.21565860129956813,0.42870278970890585,-0.4406830706704967,-0.758619612853331,63.2299425035254,57.19495247980131,-174.63694207331017,5
1767470488.771453,1,left_wrist,-0.2826,-0.3499,0.1845,23.38,178.85,109.9,-0.6675178972742345,-0.11380471553375572,-0.6048989064382051,0.41900555668240136,-55.68440666001363,64.5460904745243,-101.12630999501681,5
1767470488.771453,2,right_wrist,-0.5168,0.2342,0.0415,-44.66,135.31,-74.62,-0.2060291422301197,0.4935150884073172,-0.4244699057763191,-0.7306299673271565,69.90349598545158,63.644931262885116,-164.598199370262,5
1767470488.8291998,1,left_wrist,-0.5998,-0.1688,0.0576,70.91,105.91,66.57,-0.616769709225766,-0.2278307794296927,-0.6458911443300341,0.38795990952940235,-74.30912618425262,76.78287389111703,-126.30544887580231,5
1767470488.8291998,2,right_wrist,-0.6739,0.3314,-0.0678,-42.84,108.22,-56.21,-0.19352128075050706,0.5431700859748856,-0.40982665248353384,-0.706794090604088,78.66058963331798,67.88638004410576,-152.87189091740183,5
1767470488.92051,1,left_wrist,-0.7906,-0.3548,0.0073,43.75,89.53,49.21,-0.5924039869744011,-0.2653257337391202,-0.6589622862373821,0.3800374672968885,-92.84188681524738,79.23796941072578,-147.40463413743709,5
1767470488.92051,2,right_wrist,-0.8574,0.2455,-0.3157,28.49,94.29,-23.59,-0.17890273699585127,0.6146879784944063,-0.40453473733414475,-0.6530728489838238,105.05759227134968,71.37278535097718,-124.36722240544844,5
1767470488.982301,1,left_wrist,-0.8496,-0.0254,-0.3875,29.05,2.31,8.54,-0.5708534777933288,-0.28514211517138965,-0.6847668127467088,0.352015188887584,-122.67958799904525,79.28117589905452,-176.49009540338852,5
1767470488.982301,2,right_wrist,-0.7286,-0.2211,-0.4782,25.9,36.47,1.89,-0.18062014959376735,0.6257352496893666,-0.41444622276886095,-0.6356619284568918,112.82474604913128,70.94872292858346,-117.68661173484689,5
1767470489.070464,1,left_wrist,-1.016,-0.2381,0.1362,10.29,-1.19,3.22,-0.572064828957828,-0.28702269566398064,-0.6807184637080045,0.3563455862084547,-120.27860620608473,79.54215640959322,-174.64423983027032,5
1767470489.070464,2,right_wrist,-1.0024,0.2484,-0.1864,12.11,0.77,-2.38,-0.1930840006188765,0.6271690223888081,-0.42065909183925404,-0.6264371592696671,116.26979873159512,71.47931546564458,-115.90128280020475,5
1767470489.120487,1,left_wrist,-0.9033,-0.1806,-0.1503,-17.29,25.27,1.96,-0.5641370046936893,-0.2869056724348952,-0.6919213933562676,0.34738934997468507,-127.87733794765661,78.5253665660197,178.53616256070032,5
1767470489.120487,2,right_wrist,-0.9672,0.1518,-0.1703,-4.13,-17.5,5.53,-0.1968527550663963,0.624092651058722,-0.41737219549678306,-0.6305218522331013,114.41513194704832,72.05074727875389,-117.75508034067121,5
1767470489.1725152,1,left_wrist,-0.9399,-0.2206,-0.1962,25.13,-22.61,2.8,-0.5651445548458278,-0.28957065884271715,-0.6847447108382557,0.35761032793326786,-122.99006438278977,78.83286465947546,-177.7394623402761,5
1767470489.1725152,2,right_wrist,-1.0209,0.2586,-0.0996,10.57,-13.23,2.59,-0.2042895063419884,0.6186928190179507,-0.41711506796199854,-0.6336402870503304,112.37301135505999,72.646335630232,-120.40797486213008,5
1767470489.22252,1,left_wrist,-1.0272,-0.1776,0.0185,-3.15,-19.32,-2.38,-0.5730035352160735,-0.28401419122392396,-0.6786452484410648,0.3611696479241684,-116.58784623401507,79.38490880852667,-171.12708343225214,5
1767470489.22252,2,right_wrist,-0.9345,0.0888,-0.1425,9.66,-17.85,3.08,-0.21250183558775573,0.6146917574559388,-0.41670516590505996,-0.6351014233141037,111.01528915939615,73.31235654471337,-122.4305486375504,5
1767470489.282668,1,left_wrist,-0.957,-0.1932,-0.1586,-2.94,-21.63,-11.13,-0.5762178995335746,-0.2721096701362955,-0.6808639481796506,0.3610450716249285,-112.9067946828692,78.8545683945532,-166.3728675353309,5
1767470489.282668,2,right_wrist,-0.9536,0.1596,-0.1449,9.17,-28.7,4.69,-0.22146211574290667,0.6076875289091627,-0.4161184657239993,-0.639152423904076,107.90120097599399,73.97033717088637,-126.265315672653,5
1767470489.370364,1,left_wrist,-0.9272,-0.1484,-0.1757,-4.06,-37.66,-15.61,-0.583359826706734,-0.26186557109977443,-0.6759474589646355,0.36635060799257685,-105.03250367048614,78.66955684423888,-158.05791582766156,5
1767470489.370364,2,right_wrist,-0.7691,0.0556,-0.3445,19.95,-77.77,39.76,-0.2387096735917309,0.5654971108434486,-0.42692152661855237,-0.6640547563801694,90.79045383928312,72.71964203029405,-146.06830235809392,5
1767470489.421531,1,left_wrist,-0.854,-0.1337,-0.3138,-22.19,-52.36,-31.01,-0.5939833271035653,-0.23992599054294564,-0.6718487045343029,0.3718045782404301,-94.76618598900882,77.56609080313795,-146.35176296568076,5
1767470489.421531,2,right_wrist,-0.6159,0.2162,-0.2967,51.17,-113.4,76.37,-0.24868240915434328,0.5143532889276181,-0.44971228437805405,-0.6865541601549044,79.59724767232036,68.42450563895869,-160.76353297320327,5
1767470489.473469,1,left_wrist,-0.7476,-0.1801,-0.2064,-30.38,-100.94,-56.07,-0.6144571318533789,-0.19981516545797126,-0.658281351120796,0.3862408517157423,-78.50409925244121,74.43462429578517,-127.95326469943937,5
1767470489.473469,2,right_wrist,-0.5192,0.2499,-0.0805,117.88,-154.35,121.59,-0.2659340218663819,0.43094693703400694,-0.49546843539381413,-0.705744190910123,73.6873509809764,60.66853902742146,-173.94425285664116,5
1767470489.5326421,1,left_wrist,-0.6124,-0.1288,0.0395,-77.56,-157.92,-132.23,-0.6620469486451517,-0.04371561872994024,-0.6214953434383861,0.41656490557067444,-64.06490687252061,59.24244404788519,-103.52075279068472,5
1767470489.5326421,2,right_wrist,-0.4094,0.5983,0.083,82.81,-184.87,158.27,-0.2679101432638379,0.3251794969975961,-0.528272909457766,-0.7371636066720652,69.14184436055626,49.68334833840939,175.4417042939094,5
1767470489.62039,1,left_wrist,-0.4621,-0.5685,0.2816,-162.54,-179.97,-184.87,-0.6736957408383546,0.08880619727663094,-0.5958234340531343,0.42806768569310977,-66.47036675688668,46.616899149492866,-96.39412401962711,5
1767470489.62039,2,right_wrist,-0.0151,0.8652,0.4319,120.96,-209.51,223.79,-0.24157694692549475,0.054929048341895916,-0.5963892270881307,-0.7635072155360632,72.27440375600918,21.840572599152516,160.92336785894793,5
1767470489.67169,1,left_wrist,-0.2338,-0.4002,0.2669,-0.49,-161.07,-204.47,-0.6731362149213803,0.1732376177037784,-0.5343492236596513,0.48098572863232114,-63.72444024668407,33.55450362794242,-92.32122616518703,5
1767470489.67169,2,right_wrist,-0.0151,0.8652,0.4319,120.96,-209.51,223.79,-0.2203126117104774,-0.08836140054815751,-0.6120019429713089,-0.7543926284195912,76.26038807533692,7.836408529562336,153.5950791046917,5
1767470489.7291641,1,left_wrist,0.1942,-0.9116,0.3133,-156.59,-103.81,-293.23,-0.5643344209235721,0.46271499106037633,-0.4547073242064357,0.5105514153558636,-80.88574972610752,2.334555226252641,-86.26102440764606,5
1767470489.7291641,2,right_wrist,0.508,1.6153,0.3562,176.89,-176.4,268.31,-0.16705214810870364,-0.23588453537554074,-0.6339653484374247,-0.7173144378607946,85.09054122157018,-7.272944778290516,147.1042080100393,5
1767470489.781548,1,left_wrist,0.3845,-0.9999,0.3558,-354.41,-62.23,-319.83,-0.4232993595451693,0.6151637075259919,-0.4408789422472233,0.4980130755657876,-98.62488235440566,-13.855355411789851,-83.18462748957081,5
1767470489.781548,2,right_wrist,0.693,0.7335,0.4031,129.99,-38.5,305.76,-0.06564062927099176,-0.3404361326421023,-0.631256748441082,-0.6937647042969176,91.78963421958959,-22.922953909178222,145.55986031610064,5
1767470489.833869,1,left_wrist,1.0248,-1.1795,-0.001,37.1,7.56,-264.32,-0.3697065619319754,0.6538099370867332,-0.3577703877009445,0.5548422964369215,-97.18127818392055,-27.45053713764909,-81.68709742238481,5
1767470489.833869,2,right_wrist,0.9018,1.3122,0.1376,165.41,-61.11,280.42,0.02941504816442302,-0.43804127838694223,-0.6286621296857424,-0.6419022667584257,102.56850752829342,-36.82290325047224,140.14462452820686,5
1767470491.129247,1,left_wrist,0.3206,-0.9355,0.8345,85.68,227.36,201.46,-0.7204438495291259,0.16658935087305984,-0.3813362964884727,0.5547893986296081,-45.41325665101696,21.384122876213127,-84.23194772244342,6
1767470491.129247,2,right_wrist,0.3318,0.7305,0.7871,-80.92,235.69,-171.78,-0.2852263301778886,0.12052423207818024,-0.4396705965169579,-0.8430952595132066,49.01785837309258,27.003059598860666,155.1121537085375,6
1767470491.2245948,1,left_wrist,0.1801,-0.6783,0.7388,63.56,225.75,170.45,-0.7229697167647577,0.06568122976478498,-0.44297482343458394,0.5260932146499997,-43.13084614309663,34.84831940535752,-86.22731394054709,6
1767470491.2245948,2,right_wrist,-0.0971,0.4441,0.4734,-20.86,199.43,-103.95,-0.2812125656828296,0.32121323406156127,-0.4433312378336924,-0.7881617630452767,52.29531106581162,49.08452539983235,165.99740859581362,6
1767470491.2777421,1,left_wrist,-0.0215,-0.4743,0.5197,35.84,210.0,129.57,-0.7091288636274842,-0.016038964175442573,-0.499536896839571,0.49733479175949835,-43.45503582388752,46.42107997792067,-89.48118833606881,6
1767470491.2777421,2,right_wrist,-0.2298,0.2913,0.3265,-24.99,169.82,-84.56,-0.2724885142745306,0.3950300343874502,-0.44127047163896277,-0.7582754462461752,56.674516882540416,57.09425763317769,173.16935131614164,6
1767470491.3293471,1,left_wrist,-0.3548,-0.2884,0.3265,21.07,155.4,84.42,-0.6653695137398168,-0.1263248467747065,-0.5936686626125391,0.43460667540297354,-52.892689868029834,64.13458812642178,-100.92091357185599,6
1767470491.3293471,2,right_wrist,-0.4119,0.1937,0.1962,-19.95,130.76,-67.06,-0.2670924374579815,0.4520531593360987,-0.43487018993379745,-0.7315719300888662,61.64433024427404,63.34447323866158,-179.69677644472708,6
1767470491.380341,1,left_wrist,-0.4997,-0.242,0.1898,9.66,130.62,64.54,-0.6423044242355751,-0.1674728995545448,-0.6236275686408835,0.4129001212802677,-61.0188835606468,69.95382069654076,-110.27754687646046,6
1767470491.380341,2,right_wrist,-0.5827,0.1571,0.0869,-42.98,103.18,-55.65,-0.2584843441095424,0.5030532958071285,-0.4201665146007592,-0.7096360513926101,67.2809927716902,68.61989244693602,-171.1839116209164,6
1767470491.430347,1,left_wrist,-0.6368,-0.1552,0.1303,46.83,109.34,47.04,-0.6190350284349236,-0.2155934843333435,-0.639210765965633,0.4021500711888665,-70.02342358965458,74.75049136139047,-122.3214546242643,6
1767470491.430347,2,right_wrist,-0.7047,0.2211,-0.0532,-16.73,76.79,-36.26,-0.25140264981608984,0.5372962966786442,-0.41670646259455457,-0.6888142864900495,76.07755045071197,71.75326096416438,-161.09448724345995,6
1767470491.521502,1,left_wrist,-0.7115,-0.2752,-0.1254,31.64,104.37,28.35,-0.5885919168613046,-0.24960025268298425,-0.6611340251843361,0.39263350596922186,-89.69411810596795,76.9768590977555,-144.09135201320407,6
1767470491.521502,2,right_wrist,-1.0014,0.2713,-0.1381,5.88,40.18,-17.08,-0.23951056522317601,0.5785197692251547,-0.4104635204200247,-0.6629247801723424,91.35783257795948,74.50438036314654,-143.91192341680662,6
1767470491.573472,1,left_wrist,-0.8062,-0.3479,-0.3494,7.35,55.58,18.48,-0.5718825099206996,-0.26600812587473033,-0.6747127233339943,0.3833442484068847,-103.71541034648895,77.33226243920446,-158.74549106175542,6
1767470491.573472,2,right_wrist,-0.998,0.124,-0.3026,20.23,35.63,-3.57,-0.23953785600343097,0.5899869511715321,-0.4194554687172309,-0.646988502797235,100.46700806454142,74.66162671163578,-135.62552525708614,6
1767470491.632396,1,left_wrist,-0.9306,-0.1542,-0.3416,4.2,-15.47,-13.79,-0.565799634385088,-0.25507346151585003,-0.6933192080632355,0.36621957715364023,-112.66124476210625,76.26042463537614,-165.18791367862855,6
1767470491.632396,2,right_wrist,-0.9428,0.0527,-0.3231,16.94,11.34,8.54,-0.24016675412561334,0.5927181645622799,-0.4275922025913362,-0.6388818481486063,104.62924976476071,74.3103506725821,-132.30280097972383,6
1767470491.684989,1,left_wrist,-1.0887,-0.3704,0.0176,2.59,4.97,-0.98,-0.5644560665524301,-0.2538039812322196,-0.6931207502067929,0.3695355377708704,-111.66308761221761,75.94230008275244,-164.3952956974532,6
1767470491.684989,2,right_wrist,-0.9292,0.1,-0.2074,10.99,-11.9,8.47,-0.24419102296827233,0.5895723806285811,-0.43107751590803717,-0.6379242334166436,104.31033768618151,74.30927471789273,-133.3216705914785,6
1767470491.778503,1,left_wrist,-0.9379,-0.1254,-0.1859,-5.95,7.63,1.12,-0.5621883699785704,-0.256374520946731,-0.6971198495870673,0.36364853496456856,-115.30096677423727,75.99764496837187,-167.72781944042362,6
1767470491.778503,2,right_wrist,-1.0077,0.1708,-0.0122,12.18,-7.0,7.49,-0.25806889454786747,0.5764132976326012,-0.4318459971911649,-0.6439388097398078,98.24634624847447,74.84931899019976,-140.71615273750592,6
1767470491.833618,1,left_wrist,-0.9643,-0.3065,-0.1298,-6.16,-23.8,-9.52,-0.5644396989117311,-0.24321384042518499,-0.6947785560758498,0.37354733586953104,-108.90570977343367,75.02196182880145,-161.0966472384304,6
1767470491.833618,2,right_wrist,-0.9662,0.2079,-0.1986,7.07,-24.01,11.48,-0.2608951593387222,0.5691719362961569,-0.4348788722338349,-0.6471919261325301,95.61702482743144,74.50259350775221,-143.92307496110277,6
1767470491.920966,1,left_wrist,-0.9091,-0.2284,-0.2528,-19.18,-40.32,-15.12,-0.5738412928047246,-0.22820198043188616,-0.691844505531838,0.37414062458462566,-103.50846737577608,74.74778485975641,-154.4082228126192,6
1767470491.920966,2,right_wrist,-0.874,0.144,-0.2381,21.42,-72.66,25.97,-0.2802171149139679,0.5283840917439093,-0.44050178096839443,-0.6695123606513391,79.66993787108566,72.62901403180642,-162.39681625202127,6
1767470491.9744582,1,left_wrist,-0.8384,-0.2108,-0.3782,-26.88,-65.87,-28.77,-0.5890638526267162,-0.20293780814975965,-0.6848041143500893,0.37797268224189334,-94.1637183997426,73.78007266026245,-143.1916781698956,6
1767470491.9744582,2,right_wrist,-0.7813,0.2469,-0.2279,56.7,-97.51,49.21,-0.2961437577169081,0.485097584271598,-0.4576544902712576,-0.6837628068517067,71.9283759797725,69.13889233925515,-173.7075759073352,6
1767470492.029687,1,left_wrist,-0.7515,-0.3016,0.1737,-80.85,-124.6,-70.14,-0.6442919134323963,-0.10155095641929851,-0.6445056745882477,0.3989834194042345,-68.81634467272978,65.71819109850321,-111.26601089681729,6
1767470492.029687,2,right_wrist,-0.6373,0.0327,-0.0093,71.05,-136.01,78.68,-0.3162952832665807,0.4219188153598265,-0.47519460549880077,-0.7043663066427247,64.45863047337401,63.505144326826745,174.2638441553737,6
1767470492.0817332,1,left_wrist,-0.733,-0.3709,0.0405,-69.72,-119.98,-94.43,-0.6602740867463068,-0.03328806510649742,-0.6281808911570568,0.4102667462492201,-66.13780044503498,58.9655088610864,-104.13018190830455,6
1767470492.0817332,2,right_wrist,-0.486,0.345,-0.0425,58.94,-170.03,116.34,-0.32290533212980405,0.33645747107133994,-0.4923106754910263,-0.7349549070793316,60.29761441333091,54.34107183250298,165.76406974019898,6
1767470492.1704,1,left_wrist,-0.51,-0.3767,0.2962,-91.77,-152.95,-125.16,-0.6790882608709745,0.05631777150886224,-0.5970111796844663,0.4233734685726924,-64.24320117612118,49.74354455398768,-96.33777703266534,6
1767470492.1704,2,right_wrist,-0.1005,0.8462,0.3992,115.57,-199.29,197.75,-0.3053784426693313,0.09950007840502136,-0.5347660938956353,-0.7815810680728219,62.22564805851867,28.82570891703644,154.95051197998,6
1767470492.22954,1,left_wrist,-0.1962,-0.7725,0.2259,-178.99,-186.2,-191.38,-0.6664025875535617,0.27585934439748877,-0.5194223122898057,0.45826812556189955,-69.93350893322283,26.069027473769893,-87.42339615079395,6
1767470492.22954,2,right_wrist,0.1449,0.4797,0.5968,84.14,-139.93,219.38,-0.26404438931502344,-0.013372341675101398,-0.5484655885286175,-0.7932762691202466,65.59547107441058,15.570423909573789,153.24943773772043,6
1767470492.279542,1,left_wrist,0.1088,-0.7788,0.2928,-34.16,-144.41,-246.82,-0.639073387940221,0.37061976177551137,-0.4483019156238118,0.5032410848252474,-70.73132758931091,11.5354074089951,-84.63875636687797,6
1767470492.279542,2,right_wrist,0.0595,1.259,0.7208,258.93,-151.34,226.31,-0.21551775870389142,-0.15137568118403988,-0.609462215000317,-0.7477922888852402,77.79431364358551,2.0805648439361946,149.52416627630393,6
1767470492.3309739,1,left_wrist,0.2586,-0.8213,0.2313,-252.91,-157.99,-266.7,-0.5596927189121693,0.5230519541437568,-0.40776386041496077,0.4968796109749213,-83.07715714333172,-3.631705055429989,-79.97789837110068,6
1767470492.3309739,2,right_wrist,0.7452,1.2981,0.285,26.95,-135.45,250.18,-0.16377617164105815,-0.26621066103935875,-0.5831391587278232,-0.7498386300463541,79.50476746391365,-12.018146576434939,145.35091294856213,6
1767470492.420334,1,left_wrist,0.8203,-1.2112,0.4807,-83.93,-94.22,-295.47,-0.4871948057351981,0.61129022105778,-0.32888757722711287,0.5299041879901055,-87.79744107544136,-19.110184286118297,-76.40714802370546,6
1767470492.420334,2,right_wrist,0.8072,1.3649,0.2518,140.14,-55.58,219.8,-0.009420455118699288,-0.4396543641198372,-0.5938077224730048,-0.6738009230233815,96.47832712143062,-35.54140691468696,138.90635699327737,6
1767470493.73706,1,left_wrist,0.2377,-0.914,0.771,150.01,154.98,192.22,-0.6962714174861372,0.2425956943479892,-0.3888992828322987,0.5523683463850785,-52.92913405926703,15.875892978335502,-84.792967032795,7
1767470493.73706,2,right_wrist,0.0127,0.8003,0.9326,-89.95,174.51,-149.87,-0.3108748360131362,0.1255063012271015,-0.40515373365660146,-0.8505618477160926,43.671795379364994,27.73649720749852,151.14539781240325,7
1767470493.824451,1,left_wrist,0.0532,-0.8013,0.6983,95.69,174.37,162.75,-0.7113631860522627,0.14516171790738913,-0.43017927181010523,0.5365037626043987,-48.66140402384476,27.14653507261819,-86.50674585855685,7
1767470493.824451,2,right_wrist,-0.2201,0.5407,0.5202,-15.89,164.78,-97.51,-0.3225290788065922,0.28811320796980994,-0.4039701882873391,-0.806085516364491,42.5178887023219,46.4748404934271,155.35310638455744,7
1767470493.880316,1,left_wrist,-0.2718,-0.6647,0.6608,52.15,172.9,110.46,-0.7035350599958824,-0.020311278566267976,-0.504834000742754,0.49976844939797727,-44.202502939566415,46.93996615293717,-90.77640561726534,7
1767470493.880316,2,right_wrist,-0.3997,0.364,0.4758,-3.64,158.55,-80.36,-0.32113111398336913,0.3546105855561638,-0.4125463305332359,-0.7751978234017928,45.26156516437617,54.56261374069606,159.26361371307902,7
1767470493.93085,1,left_wrist,-0.3777,-0.4153,0.4075,12.46,163.03,86.87,-0.6842784934081573,-0.07542383215546022,-0.5479782303066634,0.4751779120624448,-47.09642962489023,55.247183135207585,-95.24889530317351,7
1767470493.93085,2,right_wrist,-0.548,0.2762,0.3943,-32.34,132.09,-67.55,-0.31529748979166905,0.4133783246681003,-0.40650107888503695,-0.7513073448935316,46.89170745058822,61.340558310107475,163.31567042520174,7
1767470493.982264,1,left_wrist,-0.4836,-0.3109,0.2464,17.85,149.38,67.27,-0.6589838710911957,-0.12340762357515679,-0.5854996204172277,0.45574226332048395,-52.57561764640653,62.14756098519094,-102.48767757337899,7
1767470493.982264,2,right_wrist,-0.6046,0.1859,0.2381,-3.99,121.45,-47.53,-0.3108265654386294,0.46309898517143916,-0.40915398213788196,-0.7221628590917164,52.06055379675894,67.40110499056789,169.5078549404575,7
1767470494.070987,1,left_wrist,-0.6154,-0.1845,0.1093,4.55,131.25,42.91,-0.6319281838798398,-0.16401748994065193,-0.6206430295431734,0.4342433226790794,-62.07824418951713,67.94909177422237,-113.13896948072613,7
1767470494.070987,2,right_wrist,-0.7969,0.1947,0.0176,-31.43,76.09,-23.66,-0.28422873018238104,0.5397391997472578,-0.40169826973009415,-0.6830330338211682,68.63494984403145,74.94298213269586,-169.94646293510755,7
1767470494.121563,1,left_wrist,-0.7842,-0.2035,0.0059,43.82,95.2,29.89,-0.6068158555183043,-0.20389662460201405,-0.637785069250888,0.4282883250896924,-70.93005936903997,71.56613369897349,-124.78590559237057,7
1767470494.121563,2,right_wrist,-0.9292,0.2567,-0.0259,-13.79,71.54,-19.6,-0.2727694774869694,0.5675722817227045,-0.4035973614879959,-0.6637527302930638,82.45786435825339,76.81367740461484,-155.10212091564242,7
1767470494.173263,1,left_wrist,-0.8481,-0.4124,0.0327,55.58,88.97,25.41,-0.5785209309681094,-0.23939542974998063,-0.6503217848635009,0.4302149890212618,-82.03365249074196,73.4220668512414,-139.2065935662372,7
1767470494.173263,2,right_wrist,-0.914,0.2211,-0.2757,10.22,64.05,-7.21,-0.2649171896010078,0.5879927358375452,-0.4137980927082581,-0.6425375971312419,98.75841015044604,77.12521140661447,-139.00061645528405,7
1767470494.231502,1,left_wrist,-0.7915,-0.02,-0.5519,-34.93,53.13,0.84,-0.5402774488808406,-0.2645842454173694,-0.6957577468855414,0.39244950370268883,-112.57292972671138,73.63298378160121,-168.56007674617308,7
1767470494.231502,2,right_wrist,-0.8906,0.1479,-0.3802,14.49,28.84,0.35,-0.26261686951857666,0.5966481867864614,-0.4224106747975205,-0.6297718180942953,107.47494540036864,76.74737704842813,-130.89689721369123,7
1767470494.281683,1,left_wrist,-0.8194,-0.1996,-0.3372,26.88,-22.61,-12.74,-0.539660644331172,-0.2642780580105935,-0.689555185896321,0.4042735987146626,-108.41465170217,73.3220224076024,-165.4968355145705,7
1767470494.281683,2,right_wrist,-0.8906,0.1479,-0.3802,14.49,28.84,0.35,-0.26027764678286014,0.6051107669686417,-0.43086600085036714,-0.6168070975556381,115.57112990424035,76.1110537403813,-123.41578241692669,7
1767470494.37252,1,left_wrist,-1.0546,-0.3758,0.041,12.32,-21.91,-2.1,-0.545588535825141,-0.2608337164586601,-0.680745861570904,0.413381172634446,-102.73985922322657,73.4279391750646,-160.3421445417386,7
1767470494.37252,2,right_wrist,-0.9633,0.1059,-0.1137,5.39,-19.88,12.04,-0.27069271612582363,0.597374194684486,-0.43265396090016034,-0.6186114087849404,112.57551034991272,76.73457934259713,-127.51612127706052,7
1767470494.428559,1,left_wrist,-0.9521,-0.2113,-0.1318,2.94,-29.33,-7.98,-0.5553060819279755,-0.25775289248130406,-0.6728310115717219,0.4153276196675285,-97.99196357003903,74.0200506363666,-155.4418508098938,7
1767470494.428559,2,right_wrist,-1.0209,0.2747,0.0229,-7.7,-18.83,5.11,-0.27082880033102863,0.5897997724638636,-0.4291325673060112,-0.6281983993852438,106.25069775454523,76.77156670208676,-133.51969821561065,7
1767470494.481576,1,left_wrist,-0.997,-0.3323,0.001,-7.28,-22.75,-6.58,-0.561782535688659,-0.2471888536048382,-0.668327408755841,0.42028148657114267,-93.12910918782853,73.47327011929647,-150.0985374653275,7
1767470494.481576,2,right_wrist,-0.954,0.1684,-0.122,9.59,-17.85,5.04,-0.2759460654317262,0.5855625127670264,-0.43086733580560416,-0.6287476851253578,104.62628628713014,76.94012132512778,-135.77850615268702,7
1767470494.570283,1,left_wrist,-0.9648,-0.2747,-0.0996,-13.37,-20.65,-8.96,-0.5657071555334833,-0.23870714092674705,-0.6689077052051525,0.41899498441624583,-91.74267669316635,73.10637835153656,-147.8327805666652,7
1767470494.570283,2,right_wrist,-0.8769,0.1327,-0.184,22.4,-58.1,28.21,-0.2911769423980467,0.5522333572525541,-0.4426126611849798,-0.6436989509949879,90.40054084262535,75.62723596522339,-152.66361698412302,7
1767470494.623658,1,left_wrist,-0.8828,-0.2279,-0.1762,-21.7,-46.27,-19.95,-0.5759259609687539,-0.2204985535942901,-0.6656211932427778,0.42028335971235387,-86.87916947474494,72.18340210410848,-141.47710273966484,7
1767470494.623658,2,right_wrist,-0.8364,0.1703,-0.183,44.45,-81.76,51.17,-0.30246567303960514,0.5157813445601236,-0.457705509183226,-0.6580195955287149,80.43028042144135,72.87582673784567,-165.4251240556568,7
1767470494.679446,1,left_wrist,-0.8613,-0.2235,-0.2186,-23.8,-63.7,-35.56,-0.5881017209398006,-0.19388492710602703,-0.6594553232213243,0.4262202218851122,-80.64256734683156,70.20815528889182,-133.5024243431155,7
1767470494.679446,2,right_wrist,-0.7374,0.2743,-0.2035,60.06,-113.26,76.58,-0.3143920741580017,0.4609776432845009,-0.4784325468207681,-0.6780557014295291,71.91729385501941,67.81475243181887,-177.7624307547067,7
1767470494.733529,1,left_wrist,-0.6446,-0.303,-0.1845,-73.22,-154.14,-105.42,-0.6343768021854801,-0.06240141592147682,-0.6297981721903226,0.44387655766625916,-67.48718399716948,58.69966056784397,-111.13750448282153,7
1767470494.733529,2,right_wrist,-0.5485,0.1376,-0.1786,103.67,-145.25,122.5,-0.32749689789149833,0.3794373198145314,-0.5130418471861038,-0.6968221905474027,68.29996958504157,59.86443073540511,172.32161490860014,7
1767470494.820163,1,left_wrist,-0.5144,-0.3777,0.0766,-84.35,-180.74,-150.43,-0.6505594225333912,0.03953974701716446,-0.5988192086691577,0.46542948068174916,-65.32648896410448,47.93019287424247,-102.97304951221882,7
1767470494.820163,2,right_wrist,-0.1269,0.7154,0.4519,185.22,-198.31,206.71,-0.31745433553903013,0.13291168207508913,-0.5745778276194273,-0.7425749454590985,68.40374970920415,34.207955694207115,157.3311029255227,7
1767470494.870235,1,left_wrist,-0.2826,-0.3645,0.1645,-128.52,-177.03,-205.73,-0.6460481294765419,0.16792007155861108,-0.564562003358092,0.48548368492865973,-68.19283794737241,34.50120312854099,-97.58982601284283,7
1767470494.870235,2,right_wrist,0.3206,0.9906,0.4782,81.76,-180.18,261.59,-0.27761535454112557,-0.006097612789173517,-0.5847191135420385,-0.762230996680069,70.54103962114296,18.382453180064612,153.03250238890925,7
1767470494.921404,1,left_wrist,0.0259,-1.0277,0.6988,-122.99,-187.32,-228.48,-0.6281989170356888,0.29798722524145793,-0.5132359248484694,0.5031487053277798,-71.64426274533804,20.179642842419835,-92.02334831147613,7
1767470494.921404,2,right_wrist,0.2318,0.8189,0.8233,329.63,-96.11,270.55,-0.2065321079272901,-0.1467540231018765,-0.6679608572292932,-0.6997399790693911,86.28782591314014,4.044510419074247,150.90228490068753,7
1767470494.972228,1,left_wrist,0.1688,-0.9736,0.2826,-137.69,-118.93,-273.77,-0.5688387681521844,0.42199993177495787,-0.468016934635675,0.5284871448987785,-78.08122175384096,4.957068577170979,-89.80889251572304,7
1767470494.972228,2,right_wrist,0.6159,1.6114,0.364,171.36,-86.24,270.83,-0.13396304876544413,-0.2675504236750662,-0.686064981054416,-0.6631632635539785,94.92209864123184,-9.848554689769088,146.43097173649852,7
1767470495.032465,1,left_wrist,0.6993,-0.8823,0.0952,-200.83,-34.65,-341.11,-0.35067067795865337,0.6619552224920601,-0.37387046645342714,0.5468694847487859,-100.12491876450855,-27.503022391648784,-82.07405482024211,7
1767470495.032465,2,right_wrist,0.7979,1.117,-0.0122,105.49,-38.22,238.91,-0.060191631136729644,-0.35665246991444177,-0.6800707210636923,-0.6377145110446663,101.14831202716206,-21.901728843670973,142.72974426061353,7
1767470496.279813,1,left_wrist,0.2767,-0.8784,0.5022,105.77,152.88,234.85,-0.6654877241991518,0.24891675774157712,-0.4722043807493886,0.5217178925978493,-62.43598503436919,21.639396881175905,-89.40412017730422,8
1767470496.279813,2,right_wrist,0.1235,0.4963,1.0131,-112.91,222.04,-132.65,-0.39891799726145977,0.17511586071170052,-0.39742776169096383,-0.8076199855287244,38.884084761451184,36.86533641396296,140.84592790620903,8
1767470496.330168,1,left_wrist,0.0971,-0.7257,0.4592,81.97,162.61,197.47,-0.6807948351782979,0.14877917773862348,-0.5161201331194962,0.4979991534678417,-59.450069660952884,33.68041627911821,-91.98104706401583,8
1767470496.330168,2,right_wrist,-0.1078,0.5602,0.7096,-30.66,234.22,-89.46,-0.38446315054736624,0.2734326132055666,-0.4173116685356825,-0.7767069352147778,41.095878231957805,48.21374975473067,146.372874058634,8
1767470496.4235709,1,left_wrist,-0.1113,-0.5973,0.3104,40.81,164.78,151.76,-0.675159793417434,0.06985988038312395,-0.5617638664882454,0.4729695643205386,-60.15008060580889,43.82655042628824,-96.25134590723759,8
1767470496.4235709,2,right_wrist,-0.3597,0.4085,0.1298,-20.86,176.05,-68.25,-0.34837555769461065,0.4259068742293462,-0.43987909612359555,-0.7097493825841946,52.63235573031502,65.65232318847941,163.10362245764313,8
1767470496.479328,1,left_wrist,-0.4982,-0.3548,0.1747,47.6,119.28,82.6,-0.6476519451596136,-0.06498954096954651,-0.613847531646383,0.4466704886011379,-62.86136709347212,58.55890814417459,-107.01599187061557,8
1767470496.479328,2,right_wrist,-0.4958,0.2679,-0.0493,-33.39,126.0,-64.33,-0.335341350272767,0.4822347136140429,-0.43879453839380256,-0.6800405964783198,61.27541123509535,71.83639714038031,173.9440467255196,8
1767470496.529946,1,left_wrist,-0.6188,-0.3811,0.2396,103.39,89.53,69.58,-0.6338067057638419,-0.12833640280794445,-0.6133939075200885,0.4533946864050579,-61.40096414035362,63.370097374269015,-111.41242671899167,8
1767470496.529946,2,right_wrist,-0.6271,0.2372,-0.1054,-38.43,66.43,-55.09,-0.3289418586225919,0.5191120860363705,-0.4276309830055618,-0.6629114859093781,67.08361657700026,75.83199652276186,-178.16021704588863,8
1767470496.621212,1,left_wrist,-0.7515,-0.4451,0.3831,98.07,86.73,53.69,-0.6155286025415778,-0.184991534742946,-0.6117213860011592,0.46119368754947454,-61.44207765530237,67.47281773836559,-116.97847321145207,8
1767470496.621212,2,right_wrist,-0.8642,0.2201,-0.0098,-15.82,45.01,-19.81,-0.31396888444950416,0.565497402009818,-0.4235144184388612,-0.6342489773677791,89.46633341205083,79.50568889362113,-153.6916961449961,8
1767470496.678151,1,left_wrist,-0.8618,-0.428,-0.1991,19.6,96.32,33.53,-0.5631454855018698,-0.26032823826866425,-0.6471751790113055,0.44301315803312397,-84.53931767885211,73.65106493950962,-144.8627628329469,8
1767470496.678151,2,right_wrist,-0.9111,0.101,-0.0185,-9.8,32.62,-15.05,-0.3121327366260394,0.5812795826907963,-0.4194437414943124,-0.6235015230088901,99.78993034184508,80.64553675884059,-142.74463774556912,8
1767470496.7300649,1,left_wrist,-0.8223,-0.2479,-0.3216,-5.25,54.6,7.84,-0.5475087412689246,-0.27264429592445166,-0.6630127301031264,0.4316403431737778,-95.80587957431898,74.02441951359478,-156.18779856113386,8
1767470496.7300649,2,right_wrist,-0.9472,0.1537,-0.143,-2.1,17.43,-10.43,-0.3100630070676076,0.5902058275099313,-0.42005519321357254,-0.6156879465084715,108.14942901906,80.84170542881903,-134.2368714299099,8
1767470496.820222,1,left_wrist,-0.9575,-0.3084,-0.2416,-1.33,30.73,-10.78,-0.5343524181746903,-0.2755412927465199,-0.6742922715600848,0.4288058088421595,-102.1661587510303,73.12233359127463,-162.62981226355527,8
1767470496.820222,2,right_wrist,-0.9755,0.1069,-0.2757,3.22,-5.11,8.47,-0.30813984035165065,0.5937141040308302,-0.4265056498030435,-0.6088073029695121,114.15488038996298,80.31983220682316,-128.68838169775015,8
1767470496.872169,1,left_wrist,-0.915,-0.1635,-0.3723,-23.94,13.37,-12.46,-0.5293403861971671,-0.2705391551424891,-0.6853404552538864,0.4206135773697967,-106.46926362608073,72.39071332700772,-165.7489685690431,8
1767470496.872169,2,right_wrist,-0.9955,0.2006,0.0415,0.0,-25.41,4.76,-0.31179895110389483,0.5836201050236145,-0.4236950955747216,-0.6185882742896632,104.10338812450233,80.48989586676389,-138.81201968497967,8
1767470496.928461,1,left_wrist,-0.9618,-0.2713,0.0166,3.64,-27.79,-4.62,-0.5435949663175128,-0.25809878326517716,-0.6731980897342189,0.4297602385627312,-97.57284660318696,72.503510886574,-156.53222023008468,8
1767470496.928461,2,right_wrist,-1.0263,0.2108,0.1049,11.55,-7.14,-2.45,-0.31717789145889186,0.5782680728579698,-0.42440332420225035,-0.6203918435061028,100.29655109925694,80.65493148155848,-143.1915548285114,8
1767470496.984357,1,left_wrist,-0.9599,-0.304,-0.0054,-0.91,-20.51,-7.91,-0.5500171021029593,-0.2505456457732458,-0.6671538497727894,0.4354466758532858,-92.94926748330552,72.19272899302554,-151.76010976001785,8
1767470496.984357,2,right_wrist,-0.9536,0.141,-0.0361,14.7,-10.15,2.03,-0.3238544726182693,0.5759663647202484,-0.4263013023095604,-0.6177768423348816,99.94421887714566,81.02500993981609,-144.34680857169798,8
1767470497.072343,1,left_wrist,-0.9418,-0.3255,-0.1308,-18.27,-25.97,-15.4,-0.5542536807881655,-0.23719692371425205,-0.6685471227040852,0.43541385076425204,-91.15476405463461,71.37821359378398,-148.78141170984188,8
1767470497.072343,2,right_wrist,-0.873,0.1532,-0.2499,42.7,-48.16,18.97,-0.340479644110812,0.5454905575880257,-0.440985974784711,-0.6261349962840745,84.96007649194098,79.544122354342,-162.445914826725,8
1767470497.1312041,1,left_wrist,-0.8906,-0.3104,-0.1113,-55.23,-61.11,-34.72,-0.5769291268148561,-0.1809807829758056,-0.6697183615544033,0.43113345384346746,-84.19992883959277,68.25065657485146,-136.5027697789505,8
1767470497.1312041,2,right_wrist,-0.8081,0.1318,-0.2152,49.28,-84.42,35.07,-0.3573954479030501,0.510227486869095,-0.45135466425579585,-0.6389173440406539,71.27126291896683,77.0614041661818,-179.0033012842633,8
1767470497.220157,1,left_wrist,-0.8472,-0.2689,-0.1469,-42.63,-78.47,-47.53,-0.5922392268251057,-0.1431503774335037,-0.663463657415059,0.43425412253619416,-79.05428799252199,65.53102514287222,-128.4426654702162,8
1767470497.220157,2,right_wrist,-0.7076,0.3055,0.1288,82.6,-129.5,79.38,-0.3906319667985481,0.38499108236433927,-0.48376272269557175,-0.6820279768053508,56.74164727882764,64.5680208442491,158.0741723274339,8
1767470497.274224,1,left_wrist,-0.7437,-0.3177,-0.0337,-81.76,-112.28,-76.79,-0.6120607333743325,-0.07947253771229747,-0.6558022470775904,0.434728866235985,-74.94353309368009,60.67780370712824,-119.09508110209067,8
1767470497.274224,2,right_wrist,-0.5646,0.244,0.3084,74.97,-150.64,100.94,-0.40430642384005416,0.3026885520067613,-0.4935729251744604,-0.7080266405019257,54.03645813127529,55.86651327734229,150.8032188442855,8
1767470497.325367,1,left_wrist,-0.6227,-0.4333,-0.0532,-56.07,-128.52,-106.12,-0.6261760044520199,-0.008799140095738574,-0.6367541326915584,0.4498559336968903,-71.41452332595637,53.6447476209403,-111.33326763160582,8
1767470497.325367,2,right_wrist,-0.408,0.6886,0.1347,76.02,-152.39,145.46,-0.39741644371653123,0.2069669070089863,-0.5096728645042722,-0.7344783460762125,55.94880251180121,45.16418819152352,148.07829912177584,8
1767470497.3810701,1,left_wrist,-0.3318,-0.6554,0.2821,-208.53,-129.64,-198.59,-0.6121388327275002,0.2498052310039212,-0.6134569836449449,0.4319188873473086,-81.65893582960766,32.36090054936705,-98.56263294925348,8
1767470497.3810701,2,right_wrist,-0.204,0.2284,0.4246,184.45,-113.89,178.99,-0.37970665800669406,0.0960467836837451,-0.558748986482782,-0.7310249238663886,64.35655740628437,34.38469703634005,147.13675100686774,8
1767470497.474117,1,left_wrist,-0.1591,-0.5505,0.142,-133.21,-88.97,-234.29,-0.5720285796669609,0.36447039838036943,-0.5821143382738022,0.4484278424949857,-86.55022248965652,19.821729579512326,-94.87146038033298,8
1767470497.474117,2,right_wrist,0.1415,1.0131,0.5846,134.26,-146.09,211.26,-0.3138395030747447,-0.14156376083085026,-0.5701154240114193,-0.7459442815877757,71.74522502630919,8.432961929522147,140.46787164089653,8
1767470497.532919,1,left_wrist,0.2669,-0.5319,0.1191,-32.76,-24.22,-239.68,-0.4577528960835369,0.5486565208613711,-0.4977426254343284,0.49162036885097865,-95.6175364929828,-4.805596960374263,-88.78535876503567,8
1767470497.532919,2,right_wrist,0.2733,1.0492,0.4812,147.35,-90.37,227.92,-0.24887414147679549,-0.24913232250614367,-0.5848613817085941,-0.7307064470584591,78.91570162922415,-4.184674933124783,138.93803669397835,8
1767470497.583126,1,left_wrist,0.5266,-1.4669,-0.1479,-85.89,-33.81,-244.51,-0.3866363082548029,0.624078346254011,-0.44525752769892296,0.5126249280940196,-100.58299295428397,-17.189368062096598,-85.32140733331359,8
1767470497.583126,2,right_wrist,0.4612,1.0492,0.1581,150.71,-88.2,230.3,-0.17694775185177133,-0.35311625927153517,-0.5922496888305292,-0.7023095518593088,87.06258742790153,-16.642512129721077,135.89592461160876,8
1767470498.87793,1,left_wrist,0.2391,-0.8316,0.6905,113.89,205.03,188.93,-0.7082738210536147,0.05621711741925842,-0.42812525806864027,0.5584770304344141,-41.65451449991257,32.93367863730825,-89.34296932476946,9
1767470498.87793,2,right_wrist,0.2001,0.6276,0.6656,-91.14,198.59,-140.77,-0.436530807219644,0.12905263601256617,-0.42461202271571197,-0.7826179793817966,42.3226659586294,34.93943920921066,135.58780965958522,9
1767470498.930242,1,left_wrist,0.0249,-0.4919,0.4719,42.49,188.44,142.1,-0.7047025798852183,-0.025861860225469324,-0.47506933295730214,0.5263407327694672,-40.27070596834203,44.1699869199329,-90.43541863241856,9
1767470498.930242,2,right_wrist,-0.062,0.449,0.5251,-27.16,189.84,-102.9,-0.4323572779652485,0.2137610849243971,-0.44266483070328505,-0.7559240903826636,43.151555271721854,44.90658940106711,139.02678638201317,9
1767470499.021466,1,left_wrist,-0.204,-0.3728,0.3343,5.53,161.35,98.63,-0.6910784904264335,-0.08099656561716334,-0.5195572796667821,0.49589344578588646,-42.060812942726336,52.981490698510505,-93.0181144689473,9
1767470499.021466,2,right_wrist,-0.4543,0.2225,0.283,-31.5,134.19,-62.79,-0.4146995277148378,0.3457414160732823,-0.44867300745941613,-0.7121655055547514,44.51546998739017,59.834688859535255,146.07874570667374,9
1767470499.0735412,1,left_wrist,-0.4158,-0.1342,0.1283,-11.97,130.06,65.31,-0.6741218853896107,-0.12271152987442507,-0.5600076853683548,0.4657176788602862,-46.10664584567756,60.38026347870018,-97.0899729334391,9
1767470499.0735412,2,right_wrist,-0.5675,0.2401,0.1688,-31.36,105.0,-47.11,-0.40220995822212624,0.39406920212510255,-0.4527920479460058,-0.6913146713041047,47.88645390150996,65.37942773414912,151.42850523444508,9
1767470499.1320739,1,left_wrist,-0.7349,-0.2372,0.2338,14.84,75.81,28.91,-0.6451778423023217,-0.18399399141923523,-0.5973921440229079,0.43933402916625086,-52.75961040234827,68.83078893369398,-106.04034230339927,9
1767470499.1320739,2,right_wrist,-0.8101,0.2738,0.2821,-24.57,89.18,-37.45,-0.39246754923028077,0.4306674337765247,-0.45195942663959676,-0.675446119951197,51.019268490885665,69.47905601096693,156.30173840162138,9
1767470499.223509,1,left_wrist,-0.9287,-0.3601,0.6817,108.64,76.79,32.97,-0.6231226684186553,-0.23653522476248529,-0.5921560506026896,0.4529022403168261,-52.28850122018082,72.2181876861743,-111.42168785983993,9
1767470499.223509,2,right_wrist,-0.8862,0.1889,-0.0791,-31.99,83.79,-12.95,-0.3564270241355578,0.5082268898184177,-0.4457564481896706,-0.6449545672593519,67.98161628555674,76.73664205987397,178.33462784300187,9
1767470499.282442,1,left_wrist,-0.6495,0.0698,-1.0131,-80.15,78.05,15.89,-0.5670701440386743,-0.2778780774384055,-0.6729656234236137,0.38513957925557313,-106.50046644988012,77.76351220583838,-162.76518041552006,9
1767470499.282442,2,right_wrist,-0.9091,0.1064,-0.3684,25.13,69.65,2.59,-0.34671593926003974,0.5255734432330673,-0.4653351721502616,-0.6221123618696646,86.14090584209345,77.58331780829405,-164.4221264192385,9
1767470499.370691,1,left_wrist,-0.7603,-0.1713,-0.367,47.46,-45.78,-6.44,-0.5710521828446518,-0.2808579566778617,-0.6567968668977588,0.40451957711881176,-95.5667474931435,77.78367767839185,-153.90670171414942,9
1767470499.370691,2,right_wrist,-0.9609,0.1283,-0.0927,15.82,20.44,1.33,-0.33463763041248273,0.5448811157629868,-0.47023816136624963,-0.6082748536572018,99.85787764573504,77.84831020411468,-149.97039490015646,9
1767470499.435238,1,left_wrist,-1.0419,-0.3792,0.2713,-2.38,-9.52,2.1,-0.5755854279412552,-0.2772979433053245,-0.6530104926363755,0.4066750081909601,-91.79303211468924,77.75967863705125,-150.00337372373127,9
1767470499.435238,2,right_wrist,-0.9326,0.1957,-0.1757,17.78,7.07,5.46,-0.3347045111231604,0.5449629324578285,-0.478866433270151,-0.601394405999835,103.9857462080927,77.43052162667003,-146.74097427444482,9
1767470499.522607,1,left_wrist,-0.9984,-0.2689,-0.0986,16.31,-14.49,-0.35,-0.5751117449640074,-0.2748645074597402,-0.6592946530307431,0.3987813233194866,-95.56785445551768,77.83855087323653,-152.81261350579035,9
1767470499.522607,2,right_wrist,-1.0097,0.266,-0.0244,7.0,-8.89,3.22,-0.33465763504078727,0.5302345015820472,-0.48274833232983255,-0.6113997777834979,96.87633998851105,76.28361310772225,-154.32870991226926,9
1767470499.580631,1,left_wrist,-0.9941,-0.2059,-0.0312,-10.57,-2.31,-2.24,-0.5775248696345491,-0.2674366347189458,-0.6624386867331052,0.3951172707983306,-95.5087558978038,77.55073999081793,-151.74291085592014,9
1767470499.580631,2,right_wrist,-0.9638,0.1991,-0.0839,9.73,-17.08,-1.75,-0.34105070421068623,0.5272584438315231,-0.48296450608048935,-0.6102689869493491,95.59433539252026,76.64800919966787,-156.24417050946073,9
1767470499.634038,1,left_wrist,-0.9536,-0.2274,-0.0888,-3.08,-9.45,-5.53,-0.5772052568430461,-0.2637863621672378,-0.6637600614995058,0.39581994311239577,-95.2550620139357,77.1808881492265,-151.23874395890013,9
1767470499.634038,2,right_wrist,-0.9872,0.2011,-0.0956,13.37,-18.83,0.98,-0.34751938435807933,0.5225240125112499,-0.48479300604814846,-0.6092410648760673,94.05017768226053,76.8143604792727,-158.61216088486964,9
1767470499.726659,1,left_wrist,-0.916,-0.1835,-0.1113,-9.24,-27.09,-13.79,-0.5819453846738505,-0.254317084620006,-0.6621745661673664,0.39772758723559126,-91.56519172126016,76.65470564154576,-146.88336043311,9
1767470499.726659,2,right_wrist,-0.8999,0.1332,-0.244,40.6,-37.31,18.97,-0.36634478307210316,0.4969121457966558,-0.49413114397709723,-0.6121308943579812,85.76745657761897,76.02359879257556,-169.84634500256732,9
1767470499.7816849,1,left_wrist,-0.8457,-0.2499,-0.0776,-2.73,-80.22,-29.82,-0.6012344823376161,-0.22047719122182297,-0.6424481200682217,0.4209124830887796,-74.33827048976607,73.36084778094614,-128.90022804079018,9
1767470499.7816849,2,right_wrist,-0.7964,0.1293,-0.2128,43.82,-73.92,37.8,-0.3806811312071171,0.4642063090120245,-0.5031407805648657,-0.6216459876399751,77.02009855521436,73.78413185373994,178.7328463781941,9
1767470499.8364532,1,left_wrist,-0.7779,-0.2733,-0.0859,-38.5,-106.26,-71.12,-0.618168398732929,-0.17087732490822788,-0.6302995711521533,0.4374828239435076,-66.62599894305713,68.24455640870907,-118.58459030403712,9
1767470499.8364532,2,right_wrist,-0.7193,0.2323,-0.143,60.62,-103.53,67.48,-0.39502227725957817,0.4122746221874402,-0.5174033209255485,-0.6374016315197774,69.5275266771121,69.12189177043733,167.53026568831112,9
1767470499.920969,1,left_wrist,-0.7564,-0.3758,0.0508,-67.06,-133.7,-79.45,-0.6402176061944292,-0.10332430942532145,-0.6139750322732158,0.4499779589552789,-61.86556467620609,61.53910506326223,-109.47607403414038,9
1767470499.920969,2,right_wrist,-0.6232,0.6178,0.0839,77.21,-160.37,119.7,-0.41697392098079317,0.2559816642104228,-0.5404982376770417,-0.6844470701799942,61.596503041187646,53.24093498039063,150.5674819431017,9
1767470499.974279,1,left_wrist,-0.6905,-0.3943,0.0532,-36.89,-148.12,-106.12,-0.6562123521841728,-0.03482566238346188,-0.5857708904213245,0.47438906607918013,-58.60188364776681,53.304445870124695,-103.18926826723079,9
1767470499.974279,2,right_wrist,-0.4519,0.4382,0.2694,91.84,-149.52,150.78,-0.41416761542178804,0.15459218089199064,-0.5540061915427115,-0.7054385754091057,62.62952485089538,42.61069985185454,145.8590257300807,9
1767470500.032137,1,left_wrist,-0.4241,-0.6027,0.2035,-110.67,-136.22,-162.12,-0.6569446124208932,0.16007583671399014,-0.536075642078326,0.50539332077283,-63.56261901098359,32.8568174125007,-95.84859486889951,9
1767470500.032137,2,right_wrist,-0.2128,0.814,0.4372,90.93,-178.92,164.22,-0.408599041861859,0.03923523020014928,-0.5565895075413163,-0.7222987884495081,63.951141607342784,30.765329185746598,140.49803997895646,9
1767470500.082558,1,left_wrist,-0.2069,-0.7486,0.6725,-189.84,-137.83,-209.44,-0.6241850199456455,0.292620146878177,-0.5158784451593198,0.5085626218436142,-71.57574999359261,20.265805833291065,-93.02672008355984,9
1767470500.082558,2,right_wrist,0.0151,0.5827,0.7369,139.72,-147.14,205.17,-0.37874276504218174,-0.08342765126454517,-0.5709984200294423,-0.7235706940282786,69.41940745281848,18.167223822375757,137.3807982216174,9
1767470500.17008,1,left_wrist,0.0693,-0.9101,0.3631,-146.16,-94.29,-266.91,-0.5605545889248021,0.41214506069487594,-0.4809875351682456,0.5334472727392453,-78.5471943462344,5.711773784173051,-91.83313731170219,9
1767470500.17008,2,right_wrist,0.3884,0.8906,0.5353,142.73,-89.25,225.12,-0.2716877199923206,-0.30755265696299555,-0.5797372343823631,-0.7039189477994361,81.9748916132816,-6.774920170672679,131.9019418961365,9
1767470500.223509,1,left_wrist,0.406,-1.0009,0.3616,-271.88,-61.25,-295.54,-0.4470888804687875,0.5482330955094988,-0.46568719205206516,0.5316835949207968,-92.02536296076428,-9.588216097789818,-89.9479363433508,9
1767470500.223509,2,right_wrist,0.5329,1.1331,0.2357,113.12,-74.41,219.59,-0.2037206082861526,-0.39964786890427073,-0.5701165050951822,-0.6882925724267622,88.15672348059857,-18.53357759456812,129.06820407294347,9
1767470501.578231,1,left_wrist,0.3704,-0.875,0.7486,122.22,198.45,228.48,-0.706025201150899,0.15202777481362242,-0.4085892854106881,0.55809566104086,-47.25626840616977,24.032613676426177,-87.29088797112723,10
1767470501.578231,2,right_wrist,0.1474,0.7788,0.7627,-115.64,170.45,-172.41,-0.4508607633750915,0.047159508189629336,-0.4440866325292514,-0.772843849457943,46.967426457033724,28.251084975142422,131.96291332804867,10
1767470501.632098,1,left_wrist,0.1225,-0.6002,0.5314,89.46,185.99,182.7,-0.7178082793939022,0.049401703163123895,-0.45062214807969625,0.5284415061463175,-42.8919495023375,36.491875659410304,-87.47780801865416,10
1767470501.632098,2,right_wrist,-0.0761,0.611,0.632,-95.9,167.93,-140.7,-0.4605346892797872,0.14577392285774263,-0.43796125136332953,-0.7581871178600313,42.715321879174105,38.641134770865456,133.0627656324415,10
1767470501.720481,1,left_wrist,-0.083,-0.406,0.3865,44.17,176.47,143.99,-0.7135190067866217,-0.029988838968889438,-0.4944634040499026,0.4954767790188697,-41.28985723802052,47.335583215940204,-88.3074007896348,10
1767470501.720481,2,right_wrist,-0.407,0.3016,0.3406,-41.23,137.97,-75.18,-0.4494834675897563,0.29250644272800713,-0.4430896533977003,-0.7183844043254289,40.58298710644594,54.943604231873124,137.6967499028455,10
1767470501.7743711,1,left_wrist,-0.2952,-0.2747,0.2528,10.57,158.41,105.35,-0.6988212272952875,-0.08583972142898688,-0.5378937826619077,0.46362777427605245,-42.97192836438176,56.24060937804441,-90.88269808954946,10
1767470501.7743711,2,right_wrist,-0.5275,0.2001,0.2547,-41.86,118.09,-49.0,-0.43723887683540547,0.35037339615465757,-0.44533449343702913,-0.6983822998945127,41.41467738561609,61.50085871202276,141.2505476466626,10
1767470501.828057,1,left_wrist,-0.651,-0.2938,0.1986,20.09,80.57,46.76,-0.6675441517103382,-0.15518476655200847,-0.5914998069751242,0.42477108199112945,-49.51510642962114,67.15233825931037,-98.97971965731737,10
1767470501.828057,2,right_wrist,-0.7091,0.3699,0.2338,-49.98,96.6,-38.22,-0.41938958992122766,0.3948529452122271,-0.4456736388740085,-0.6852580033357758,43.86296278631123,66.20204221523369,146.48033508060024,10
1767470501.881218,1,left_wrist,-0.7935,-0.2704,0.2704,28.98,73.71,39.2,-0.6548069265583514,-0.1858857298567562,-0.6021535735260465,0.4172354949625438,-51.545479525928926,70.68335787458813,-102.8112030131278,10
1767470501.881218,2,right_wrist,-0.8159,0.2001,0.1469,-52.92,86.94,-30.31,-0.40171595164070856,0.4385870848073291,-0.44127646920361807,-0.6719678124469928,46.82195051281399,70.72904902009333,152.41963478708374,10
1767470501.9713762,1,left_wrist,-0.9155,-0.2352,0.1371,28.91,91.07,32.69,-0.6322758058111789,-0.22044726434265752,-0.621929757711386,0.40599714962388556,-60.26757278268027,74.89814566953152,-113.34954316610387,10
1767470501.9713762,2,right_wrist,-0.895,0.1527,-0.2869,-9.59,50.89,6.79,-0.37041446635113784,0.4883648630544762,-0.450297793998847,-0.6492493976673033,62.21350280262253,75.40583142742803,170.59766904340785,10
1767470502.030227,1,left_wrist,-0.9794,-0.2372,-0.2728,-8.96,32.97,10.64,-0.6063642973222744,-0.24540841144089087,-0.652505579768283,0.38253564395776185,-82.08658294029213,78.25608775036909,-135.10806498594144,10
1767470502.030227,2,right_wrist,-0.9374,0.2181,-0.2289,-29.82,11.97,11.83,-0.35707821141969853,0.49625823288447657,-0.44821176853657124,-0.6521726211433632,65.34520512401541,75.32658206771298,175.2682415949625,10
1767470502.08398,1,left_wrist,-0.974,0.0171,-0.3714,-50.82,20.86,-6.65,-0.6031241030873804,-0.23574829379517467,-0.6689166907613634,0.3649856422773002,-91.70039840690363,78.22851553577203,-142.25937888646294,10
1767470502.08398,2,right_wrist,-0.9662,0.2899,-0.1815,11.83,-1.75,6.65,-0.35643228735977583,0.49429501561586897,-0.45499636627240536,-0.6493125354894155,67.80624135889336,75.07297549434296,177.09223399100063,10
1767470502.17426,1,left_wrist,-0.9038,-0.1625,-0.1283,9.1,-26.67,-11.83,-0.606125770761896,-0.2317880898282288,-0.6638838429046625,0.3716773796751904,-87.01947428793396,77.71329813985369,-137.850435907239,10
1767470502.17426,2,right_wrist,-0.9584,0.1972,0.0922,12.95,-27.44,6.79,-0.36828578565338166,0.4837998850808672,-0.45118919061462115,-0.6532469407153271,61.851052025070565,74.6690460625759,170.2901135543805,10
1767470502.23156,1,left_wrist,-0.9306,-0.2328,-0.0176,-11.41,-37.17,-14.63,-0.6167959607357165,-0.21228545404297178,-0.6563446206931123,0.3790901841370839,-78.4233443040134,76.0751227565162,-128.25321716862294,10
1767470502.23156,2,right_wrist,-0.9692,0.2445,0.0215,17.57,-29.33,11.06,-0.37318737075801206,0.47224354629260706,-0.4558045003874465,-0.6557129529895339,60.55629445893062,73.64051554514234,167.9282256986776,10
1767470502.321506,1,left_wrist,-0.9414,-0.3377,-0.0542,-20.79,-44.94,-22.96,-0.6247667464486819,-0.19123635457941082,-0.6523567711009784,0.3840908908289963,-73.89063236192366,74.16383066678011,-122.39250080304271,10
1767470502.321506,2,right_wrist,-0.8379,0.2567,-0.1484,83.3,-66.5,39.06,-0.40347942114493124,0.4077200378298592,-0.4951080453210977,-0.6525616836153433,60.79890733967422,68.69456466037127,160.2364365637107,10
1767470502.37293,1,left_wrist,-0.9087,-0.2596,-0.0483,-52.71,-62.86,-36.82,-0.6381591594419793,-0.15636417902216945,-0.6493116500776582,0.3830111118655152,-70.08620413465148,71.5330972276744,-115.54789521513275,10
1767470502.37293,2,right_wrist,-0.7232,0.2176,-0.0337,89.74,-99.96,62.93,-0.42131086808333873,0.35152368044215465,-0.5150820914429957,-0.6584972996132746,59.82001381572951,63.76314052109759,154.15266302287807,10
1767470502.4296079,1,left_wrist,-0.7247,-0.2396,0.0849,-92.4,-102.62,-103.53,-0.6650045772147669,-0.03581367155412195,-0.636755969135435,0.3886233767847932,-67.3637538549813,61.01272140277344,-103.48071243673668,10
1767470502.4296079,2,right_wrist,-0.5968,0.2791,0.0551,90.86,-123.13,94.92,-0.43262183129681414,0.27853586659567925,-0.5341793486597931,-0.6707522236791944,60.040574663725096,56.704700495206005,148.993234959944,10
1767470502.481152,1,left_wrist,-0.5583,-0.2684,-0.0312,-63.28,-108.22,-140.35,-0.6681650356796768,0.03905946769213275,-0.6191938605539926,0.4106443791543067,-67.68485607874116,52.69005391168079,-99.8855018479154,10
1767470502.481152,2,right_wrist,-0.4797,0.2943,0.3431,120.47,-144.76,124.46,-0.4433393610996215,0.18164375320061898,-0.5522616493136668,-0.6822483627831735,61.32670182384872,47.52151380551528,143.2236531233732,10
1767470502.536745,1,left_wrist,-0.4504,-0.4885,0.1942,-111.16,-154.0,-170.24,-0.6721212444723724,0.14774745576864717,-0.5861373814584663,0.42762915253735134,-68.96019170739602,41.418079986684404,-94.04112271365663,10
1767470502.536745,2,right_wrist,-0.2913,0.4675,0.2786,36.75,-159.6,155.4,-0.43489009612746427,0.08538290414667897,-0.541185924710801,-0.7146314846580994,60.249337351187556,36.35221687598902,138.92700835256838,10
1767470502.619853,1,left_wrist,-0.2708,-0.6007,0.1557,-88.62,-139.16,-220.43,-0.6539727206980128,0.25802604516741173,-0.5427804112857921,0.45949065901553426,-71.63531423962834,28.21659799562812,-90.74677250715648,10
1767470502.619853,2,right_wrist,0.0917,0.8467,0.5358,-36.19,-163.87,191.03,-0.39344035943403066,-0.1237315913407148,-0.5108968303771885,-0.7542410792202036,62.73542220967548,12.437116018994983,132.50431679707106,10
1767470502.68355,1,left_wrist,0.1859,-0.7906,0.3631,-71.68,-92.19,-290.78,-0.5586121878085497,0.4755006354975504,-0.42672843918443154,0.5289181491160898,-79.41655923344365,-1.5042109523801097,-85.62274812603216,10
1767470502.68355,2,right_wrist,0.0024,1.2141,0.7203,227.5,-116.83,201.04,-0.33584992667560487,-0.2469416045007474,-0.5469541660454867,-0.725992982723713,73.75573707659844,0.5061167667289874,130.7284519000467,10
1767470502.774109,1,left_wrist,0.7178,-1.3723,0.3855,-144.27,-118.72,-275.38,-0.48015157121362867,0.5849595219995961,-0.3667191373668882,0.5411043342757226,-87.21220864600213,-16.31313437397435,-81.28338233785706,10
1767470502.774109,2,right_wrist,0.405,1.0614,0.2723,186.97,-52.08,216.23,-0.20878828226401702,-0.422079496785277,-0.5168291482302051,-0.7149433425960193,83.1793115759964,-22.812090741550282,127.13794905809725,10
1767470504.232213,1,left_wrist,0.2386,-0.6217,0.7496,65.8,198.73,167.93,-0.7342886363228855,0.0692704926048415,-0.41285781403727595,0.5343877083258202,-39.89558764023129,32.159567588025496,-84.0363492503792,11
1767470504.232213,2,right_wrist,0.0996,0.6329,0.7769,-85.12,190.12,-121.59,-0.48607240627051773,0.13395868530121868,-0.39349093975948596,-0.7687350433159362,35.958427861041244,36.04976036271526,127.44552971737295,11
1767470504.32713,1,left_wrist,0.0547,-0.4363,0.6539,14.91,187.04,129.22,-0.7280622331503054,-0.0002403903662559448,-0.46819595357579197,0.5007173613206526,-39.83747810128669,42.99952667628408,-85.2824822372822,11
1767470504.32713,2,right_wrist,-0.3196,0.3343,0.405,-47.25,154.7,-66.43,-0.4669592401656904,0.28516939165013516,-0.4170422507389406,-0.7257432377834268,34.704316669469996,53.45630289096016,132.36759744631223,11
1767470504.380888,1,left_wrist,-0.364,-0.2133,0.3401,33.18,143.29,87.01,-0.6983125364884873,-0.1185652266047535,-0.5465575189058004,0.44674015596397215,-40.76000571493142,60.37410826633449,-89.60635826477721,11
1767470504.380888,2,right_wrist,-0.4548,0.2328,0.3401,-59.22,119.7,-48.93,-0.45227499751398526,0.3402496864731367,-0.41484172506674183,-0.7124491705534554,33.73545980991251,59.32402721035672,134.77833037727618,11
1767470504.4321878,1,left_wrist,-0.5075,-0.124,0.1928,22.54,134.05,58.45,-0.6758823711715698,-0.16912625265280998,-0.5787661156727779,0.423803155193728,-43.83182296157446,67.77537501657794,-94.421355061062,11
1767470504.4321878,2,right_wrist,-0.6159,0.205,0.225,-54.81,102.48,-33.81,-0.4343663087380328,0.39022859170340857,-0.4148852240839385,-0.6977949604914689,34.34940472959145,64.82643700291688,138.40211195505367,11
1767470504.5235898,1,left_wrist,-0.7135,-0.2025,0.1664,33.11,102.83,32.13,-0.650743394926686,-0.20638934163041714,-0.6025001333791183,0.41343689107141707,-50.56781106184101,72.708306184646,-103.1997511617817,11
1767470504.5235898,2,right_wrist,-0.8442,0.1488,0.102,-77.77,54.67,-9.59,-0.3948021806123057,0.46465618414811705,-0.4041681717450264,-0.6818166598616979,37.342018905893916,72.31736938497264,147.59718004378712,11
1767470504.5798452,1,left_wrist,-0.8857,-0.2728,0.0859,79.03,30.45,18.97,-0.6149361815935931,-0.2628659986487828,-0.6111786988845,0.42333858476557434,-59.42476618399848,76.9654984720666,-117.89255045092797,11
1767470504.5798452,2,right_wrist,-0.9453,0.184,0.162,-65.17,45.57,2.24,-0.3715679459091328,0.4907674215496493,-0.3947734362315613,-0.6820839637202314,40.076443902823385,74.33555569091662,153.7552225668077,11
1767470504.634766,1,left_wrist,-0.9984,-0.265,-0.0488,11.41,48.51,8.75,-0.5997008638908919,-0.2771903745827984,-0.623691352117607,0.41777202800196755,-70.08507555483482,78.42453229362707,-129.28358110508063,11
1767470504.634766,2,right_wrist,-0.9521,0.303,-0.1259,-29.68,40.32,15.82,-0.3515879710909092,0.5061674042467463,-0.39839884851968516,-0.6793075996634202,47.448367633305914,75.42776663335911,162.80965723845551,11
1767470504.7198951,1,left_wrist,-0.9853,-0.1737,-0.2298,-11.06,29.61,-5.25,-0.5899198712626204,-0.2794729997232926,-0.6364213218878095,0.4109224853445369,-80.10341285959257,78.68363383884447,-138.8599795876577,11
1767470504.7198951,2,right_wrist,-0.9755,0.2006,-0.0307,0.91,8.33,3.43,-0.3369846759850228,0.5189510221413032,-0.40617588282710243,-0.6724227219386552,56.223042738718505,76.32661092170815,172.31248600677512,11
1767470504.7713869,1,left_wrist,-0.957,-0.1835,-0.1108,10.78,7.77,-12.25,-0.5822126904736716,-0.28136388868821105,-0.6403138175489603,0.4145611658724601,-83.9162405080412,78.20430311723479,-143.2177621435206,11
1767470504.7713869,2,right_wrist,-0.9633,0.1527,0.0771,5.11,7.21,-2.73,-0.3382011585333756,0.5237845103148392,-0.4080689199851883,-0.6668954338298088,58.09978009745546,77.06835937888128,173.94413264319311,11
1767470504.82421,1,left_wrist,-0.9858,-0.265,0.0054,11.83,-4.48,-2.24,-0.5789448796954266,-0.2802466139284726,-0.6395031889544501,0.42109420914227996,-83.3407856863101,77.55269290720973,-143.19039651603933,11
1767470504.82421,2,right_wrist,-0.9326,0.1371,0.0464,10.78,-7.63,0.63,-0.34214130209717536,0.5227870203228996,-0.4104164256310964,-0.6642224163285579,58.142484565479144,77.24797927125545,173.3935205854605,11
1767470504.882376,1,left_wrist,-0.9975,-0.2201,0.0346,0.28,3.92,-0.49,-0.5817796807312314,-0.2820788702403555,-0.6350423662279938,0.4227116122698095,-80.6638070872189,77.79176697084212,-140.82315680691195,11
1767470504.882376,2,right_wrist,-0.9721,0.1762,0.0825,1.75,-11.27,3.64,-0.3430888744314708,0.521170562235296,-0.41103076074886935,-0.6646239410515525,57.7977961922051,77.11125455450288,172.88821781102757,11
1767470504.969215,1,left_wrist,-0.9843,-0.2738,0.0693,-11.55,-5.46,-1.68,-0.5840054181786705,-0.27446377136376526,-0.6357024259031742,0.42366228938572564,-79.3255117338379,77.17877654899888,-138.8966992796874,11
1767470504.969215,2,right_wrist,-1.0048,0.242,0.0708,13.58,-5.67,0.21,-0.3461106613091837,0.5112695908864174,-0.41843554825357415,-0.6661249939168218,58.032677819830404,76.11728629953267,172.036975199896,11
1767470505.02438,1,left_wrist,-0.9609,-0.2762,0.08,-12.95,-2.45,-1.54,-0.585786132379012,-0.2671803099645216,-0.6371160400961535,0.42373628654140216,-78.68710532930977,76.6196911398356,-137.61835887454376,11
1767470505.02438,2,right_wrist,-0.9994,0.1859,0.0478,9.38,-12.81,-1.12,-0.35035730580661,0.5088713755043286,-0.42006759005607486,-0.6647126456182008,57.38350153887647,76.13283094001851,170.81595638325462,11
1767470505.075407,1,left_wrist,-0.9809,-0.1645,0.0278,-4.97,-11.97,-3.15,-0.5902710061602929,-0.26630862183317133,-0.634887204182131,0.4214001604053203,-76.74281122432298,76.89495578421183,-135.3557605915885,11
1767470505.075407,2,right_wrist,-0.9858,0.2255,-0.0137,18.97,-18.2,2.17,-0.35582065766900095,0.5021615302087402,-0.42526788595123965,-0.6636058184893946,57.09846050663172,75.72253979575866,169.4526333725007,11
1767470505.125613,1,left_wrist,-0.9662,-0.2303,-0.0415,-15.47,-15.61,-4.55,-0.5933320550010599,-0.25893373981728324,-0.6367417191580905,0.41889184042668376,-76.32659664374691,76.53910110306968,-134.04005053928154,11
1767470505.125613,2,right_wrist,-0.9238,0.1771,-0.1527,41.65,-32.62,10.36,-0.36685536268616975,0.4865653591486096,-0.4360774121594987,-0.6621992032230622,56.46249224010743,74.65742190013862,166.55899054655416,11
1767470505.1792269,1,left_wrist,-0.8428,-0.2162,-0.1225,-37.24,-84.42,-19.74,-0.6229777978329202,-0.21479544330534692,-0.6239857078182671,0.4200040682910596,-63.30184981231137,73.31314648594095,-117.26097764114672,11
1767470505.1792269,2,right_wrist,-0.8194,0.1835,-0.1669,69.16,-65.38,25.06,-0.3851708018919966,0.4537403029763686,-0.45238520621755535,-0.6641617393529151,54.55624661154774,72.02755918069788,160.87358230938477,11
1767470505.229663,1,left_wrist,-0.8325,-0.3235,-0.0161,-59.85,-99.4,-35.0,-0.6456276382658953,-0.1697586099497745,-0.6133379083448436,0.42209427530149524,-57.52915828761108,69.27408946657,-107.88657544988503,11
1767470505.229663,2,right_wrist,-0.6461,0.2137,-0.1806,84.14,-105.21,48.51,-0.40618081472241224,0.40078578241204815,-0.4701749899709089,-0.6732929386037372,52.427068458644435,67.16770720617829,154.00409813883445,11
1767470505.281355,1,left_wrist,-0.7154,-0.1015,0.1547,-92.68,-128.73,-73.5,-0.6736312340087461,-0.1033967034600136,-0.5964407863215846,0.424014705751517,-53.912153968804205,63.03020472377955,-99.01456836527349,11
1767470505.281355,2,right_wrist,-0.4802,0.2147,-0.0337,115.78,-156.94,89.88,-0.42849438014700486,0.3158007011692232,-0.4927648000277617,-0.6883642460042947,52.32213868217468,58.988701234532385,147.25322695548206,11
1767470505.370017,1,left_wrist,-0.6281,-0.3811,0.101,-94.43,-133.56,-104.65,-0.6881936141283475,-0.021581863408006472,-0.5799634637970782,0.43539195365244937,-55.526509804974204,54.79031444607252,-95.15923736365679,11
1767470505.370017,2,right_wrist,-0.3079,0.2811,0.2176,53.69,-198.66,130.9,-0.43694794668177783,0.10712622677213392,-0.4756981473411923,-0.7558516627251016,50.020651098662626,35.285687199121604,136.81610256092617,11
1767470505.429054,1,left_wrist,-0.1996,-0.4738,0.3963,-107.38,-149.66,-209.16,-0.676884762212687,0.2001459571060062,-0.5187875903905195,0.482315302053743,-63.678666804743756,30.61401294903894,-90.23549238420121,11
1767470505.429054,2,right_wrist,0.1093,0.7252,0.7271,42.42,-208.88,196.49,-0.4129929552512399,-0.014264934141932209,-0.45382918342070716,-0.7894760305686727,51.10185677666146,20.630070058073077,134.7152744930678,11
1767470505.4824278,1,left_wrist,0.1064,-0.833,0.2938,-135.1,-143.15,-237.86,-0.6397572002593127,0.3247050791787384,-0.4778558984616741,0.506883691370398,-69.72477227349617,16.39442338363893,-88.24112885298625,11
1767470505.4824278,2,right_wrist,0.2211,0.792,0.711,204.54,-156.52,217.35,-0.3622833139500276,-0.15042719955778847,-0.48767518236486596,-0.7799329295343168,61.15114241312956,6.8174805363088415,134.20074310805376,11
1767470505.574181,1,left_wrist,0.1381,-0.1928,0.69,-138.25,-96.11,-261.1,-0.5779134035082737,0.434718566330807,-0.4380375852461481,0.5340027528435546,-76.20219409898884,2.407919947723068,-87.36525003177113,11
1767470505.574181,2,right_wrist,0.6827,1.0433,0.5588,125.3,-116.48,215.53,-0.2443059749532147,-0.368879397942542,-0.46663856160677997,-0.7658270256378148,71.90969796328362,-19.6936215276618,130.2622978142226,11
1767470505.629468,1,left_wrist,0.7637,-0.8257,0.0854,-151.55,-32.13,-280.91,-0.3778264500771906,0.6465877019401817,-0.3490111820446512,0.5633495470217209,-95.1688370024036,-27.695885699264135,-82.10262279349605,11
1767470505.629468,2,right_wrist,0.693,1.1946,0.4363,104.02,-105.14,208.67,-0.17530437554554126,-0.4575057694665947,-0.4508657697600214,-0.7461078370303252,78.15034994452371,-31.64265161514906,127.64033951493238,11
1767470507.0213308,1,left_wrist,0.2591,-0.7183,0.8311,81.2,193.2,184.8,-0.7126357584958818,0.09982580901604239,-0.36643582028363303,0.5898388535696447,-38.921035583249285,23.860315601984606,-87.76721799419677,12
1767470507.0213308,2,right_wrist,-0.0854,0.4909,0.6295,-42.28,167.44,-87.64,-0.48025167271548985,0.2057562761556998,-0.34618022791437336,-0.7792187982060403,26.838951442687197,40.78070070006933,126.84306973195484,12
1767470507.074361,1,left_wrist,0.0376,-0.4973,0.7042,65.8,194.46,160.3,-0.7212231900040742,0.006137142719464263,-0.4113704159252927,0.5572915095181695,-35.24282344082443,35.91181703396981,-87.14073968254255,12
1767470507.074361,2,right_wrist,-0.2528,0.3118,0.5788,-34.58,149.52,-67.2,-0.4759633688294373,0.26978019600460024,-0.35772789479769446,-0.756774914132242,25.434353893036384,48.49142273709899,127.27251197904648,12
1767470507.125668,1,left_wrist,-0.1215,-0.528,0.608,16.73,184.1,118.72,-0.7137638395496532,-0.06139641803799952,-0.4617403082307393,0.5230368523903668,-34.93303885509354,46.333606045589214,-87.80402774636845,12
1767470507.125668,2,right_wrist,-0.4148,0.266,0.4934,-30.24,129.92,-43.12,-0.4652007260957402,0.3215618627175537,-0.368451381128945,-0.7378548858886727,25.115440705073283,54.81936570797871,128.7172220758151,12
1767470507.1784298,1,left_wrist,-0.4548,-0.2377,0.2391,-9.94,129.78,70.35,-0.6867592848115113,-0.14939942380124874,-0.5426438576706457,0.45997732620788667,-38.74141600670345,61.97859106845293,-91.47377343552272,12
1767470507.1784298,2,right_wrist,-0.5578,0.1479,0.4226,-25.55,114.31,-21.84,-0.4510928344655674,0.3653872920018984,-0.3768786102314555,-0.7217824427674493,25.529398386030604,60.166501582649836,130.944737114881,12
1767470507.2332952,1,left_wrist,-0.6256,-0.184,0.2367,5.46,95.34,45.5,-0.67194113095088,-0.18392362596039777,-0.567800423904732,0.43848591193291336,-41.091830605677636,67.57095758471483,-94.40950892905558,12
1767470507.2332952,2,right_wrist,-0.6647,0.2318,0.2821,-38.64,91.7,-2.17,-0.42794107337700876,0.40158840414291097,-0.38567150960002977,-0.7119344619118516,28.39826620942033,64.40876405719187,136.08965504859643,12
1767470507.324193,1,left_wrist,-0.8028,-0.2782,0.2011,23.52,90.23,25.76,-0.6496075774464649,-0.2124295229803141,-0.5900289073372432,0.4298250592937904,-47.2853816388366,71.65700023028919,-102.0626506749802,12
1767470507.324193,2,right_wrist,-0.9462,0.3884,0.2269,-37.1,77.63,1.89,-0.3807482625150595,0.454916978991319,-0.3984306494793641,-0.6995243529517949,38.15165192946488,70.02714696607366,150.11765642272047,12
1767470507.382438,1,left_wrist,-0.9184,-0.3143,-0.2655,-37.45,83.23,5.25,-0.6105118517433756,-0.23357378055241798,-0.648000526400235,0.3909141666713345,-77.01056836951119,76.86532021207412,-129.79281372585365,12
1767470507.382438,2,right_wrist,-0.9052,0.3333,-0.0815,17.22,73.64,5.04,-0.3677911737847535,0.4747655347922233,-0.41937040534507636,-0.6807758827838964,48.31922442502247,72.72670887710892,159.79338408541165,12
1767470507.4345798,1,left_wrist,-0.8359,0.0634,-0.3406,-13.72,17.85,-15.4,-0.6029680312016293,-0.23108787222339436,-0.6584698452030602,0.38658170109092493,-83.55454559608212,76.591433490215,-135.73238489403747,12
1767470507.4345798,2,right_wrist,-0.9028,0.2469,-0.1513,10.36,39.06,9.94,-0.358395831370094,0.4847447300663212,-0.43283107684856076,-0.670247889697225,56.27675005297873,73.74961458011228,167.45061671930267,12
1767470507.519938,1,left_wrist,-0.9765,-0.4758,0.0439,20.72,-16.38,-8.54,-0.6024275676212547,-0.22789585036520274,-0.6523897664617572,0.39941469649004346,-79.6789923900273,75.48568725445848,-132.80192614905008,12
1767470507.519938,2,right_wrist,-0.9101,0.204,-0.0874,7.35,9.38,6.02,-0.353731665226355,0.489173114335046,-0.4554311323449566,-0.6543439897476958,66.90511457095364,74.23324126958762,176.33799074684998,12
1767470507.570545,1,left_wrist,-1.0253,-0.3177,0.0908,-7.21,10.43,2.52,-0.6008230323107474,-0.22564721253728295,-0.6551711803517257,0.39855456810278733,-81.0225724121074,75.27328408343533,-133.87532459924086,12
1767470507.570545,2,right_wrist,-0.8799,0.2157,0.0659,-5.39,-28.91,12.25,-0.3545235220777687,0.4818857203328698,-0.45302346329727194,-0.6609606391722509,64.05835990094428,73.3814309361015,173.56751935801938,12
1767470507.6290119,1,left_wrist,-0.9575,-0.3865,0.0761,17.43,-4.06,-13.72,-0.5957726355359563,-0.2241019740583896,-0.6510045665337647,0.41355329320639994,-79.16617115766324,73.9576364423603,-133.34046693707094,12
1767470507.6290119,2,right_wrist,-0.9931,0.367,0.1791,3.22,-19.67,8.96,-0.3546901599219733,0.4707171113100612,-0.4540004522066676,-0.6682094589053479,62.072345586229716,72.01441628977945,171.31931355601316,12
1767470507.682473,1,left_wrist,-0.954,-0.3919,0.0288,-6.86,-1.89,-5.95,-0.5934183203306307,-0.21720119870454482,-0.6541411428974216,0.41566537207967746,-80.11426879977867,73.12191623874413,-133.91014364662712,12
1767470507.682473,2,right_wrist,-0.9833,0.2967,0.1723,10.15,-15.47,0.84,-0.35938277847451466,0.4615772186276744,-0.45414545568142967,-0.6719690430844151,59.91370518933989,71.21886471147131,168.58089343645824,12
1767470507.732519,1,left_wrist,-0.9399,-0.2786,0.0669,-7.0,-13.09,-5.74,-0.5989228968573322,-0.21084400653185711,-0.6500087280268535,0.4175222413459284,-77.17581844871299,72.68335043477693,-130.5918601749699,12
1767470507.732519,2,right_wrist,-0.9965,0.2826,0.1864,8.82,-12.32,-0.91,-0.3659945445999282,0.45601220141484416,-0.4517780399983134,-0.6737933422490617,57.39703022657825,70.9462196762206,165.60170467761859,12
1767470507.8235571,1,left_wrist,-0.9501,-0.3372,0.0781,2.8,-12.95,-7.0,-0.5998440221439538,-0.2036878199098606,-0.6469744264509705,0.42440842667997286,-75.31623543749532,71.63363345811581,-128.79043611948404,12
1767470507.8235571,2,right_wrist,-0.9331,0.2952,-0.0234,28.0,-18.06,5.39,-0.3745656147924795,0.44473651135039166,-0.465160581951189,-0.66748458310724,59.1850903251778,70.4202322421158,165.07952911993542,12
1767470507.881866,1,left_wrist,-0.8799,-0.2718,-0.2206,-27.23,-26.46,-21.14,-0.6053866014500909,-0.18181307626709425,-0.6482337376893156,0.42455163337849056,-74.19784948750437,69.92466670776855,-125.82310960655927,12
1767470507.881866,2,right_wrist,-0.8638,0.2616,-0.1362,49.49,-46.13,14.56,-0.38790496232485266,0.42218722235060796,-0.4767185120969123,-0.6663536221194714,58.448417077826356,68.82712902371352,161.5284766277262,12
1767470507.9354491,1,left_wrist,-0.7081,-0.1786,-0.2991,-27.72,-74.97,-68.39,-0.6136354960149629,-0.1425377052366402,-0.6410720566206088,0.43836183551555447,-70.45580031705163,65.74627217031718,-120.1418130477289,12
1767470507.9354491,2,right_wrist,-0.7618,0.222,-0.182,100.87,-80.78,43.05,-0.40895833790371605,0.3743660010999149,-0.5014531938238309,-0.6641896336765335,58.93829168309756,65.1548911725442,156.4618289664209,12
1767470508.0224462,1,left_wrist,-0.6466,-0.2006,-0.1479,-43.12,-131.88,-95.55,-0.6317059480893262,-0.08044050097135007,-0.621074221967343,0.456884812353949,-65.16745609260032,59.112469218226295,-111.59705258245786,12
1767470508.0224462,2,right_wrist,-0.4114,0.2645,0.0449,86.73,-164.29,120.05,-0.4353124893023231,0.21398023811675218,-0.5303008160186475,-0.6953391538543399,57.882724715876904,49.39995639193239,144.4432039547343,12
1767470508.0816581,1,left_wrist,-0.5588,-0.4958,0.1703,-36.82,-171.71,-124.88,-0.6498826789531017,0.001679911864337296,-0.5829508468598935,0.48766586064456147,-60.69703789554044,49.11815057250082,-103.72599483011594,12
1767470508.0816581,2,right_wrist,-0.1776,0.426,0.3421,60.76,-193.97,160.79,-0.4333305122067552,0.10220139283344243,-0.522444960815731,-0.7272075394354661,57.16363716698793,36.97209089185928,139.06563593721518,12
1767470508.171166,1,left_wrist,-0.224,-0.5885,0.2962,-130.97,-169.54,-209.58,-0.6300625793847706,0.24430171005391205,-0.5254790721605679,0.5169231715110211,-68.90241656225297,24.179645196543017,-95.4519760112513,12
1767470508.171166,2,right_wrist,0.2889,0.6817,0.8052,8.05,-169.26,226.03,-0.37756239921054124,-0.13979798248722944,-0.4879016644544124,-0.774503146938406,60.62607057531022,8.735815191410643,133.13645972535556,12
1767470508.228588,1,left_wrist,0.4319,-0.6832,0.1518,-152.88,-43.96,-301.21,-0.45967553928155147,0.5307215987946408,-0.4759417767457439,0.5296342212387523,-90.94545812621536,-7.15875726008174,-90.81227949522683,12
1767470508.228588,2,right_wrist,0.1235,1.1902,0.669,295.26,-109.55,246.4,-0.292789422804569,-0.27764230799801515,-0.544579923648274,-0.7352698888588752,75.30280555771613,-5.1284907624486005,132.61656588154713,12
1767470508.2824981,1,left_wrist,0.5226,-0.835,0.2074,-161.42,31.5,-317.45,-0.3367934892820524,0.6149757239916932,-0.4377084701498055,0.562837720517406,-98.74837140470474,-23.41750993556703,-91.04590604327673,12
1767470508.2824981,2,right_wrist,0.8911,1.4738,0.3675,43.4,-137.97,255.29,-0.23345659431250745,-0.3883473897217232,-0.5038837800900489,-0.7353811662195956,78.32672505726389,-19.627076867422208,128.73534296903304,12
1767470509.729098,1,left_wrist,0.1781,-0.5773,0.7442,8.4,203.77,125.58,-0.753640988647884,0.09491037555588298,-0.3844782572101148,0.5245891254823665,-38.52585413375048,28.68143414583499,-79.89231099588808,13
1767470509.729098,2,right_wrist,0.0859,0.4392,0.8999,-115.99,196.91,-107.03,-0.47735750128184884,0.16465254204853955,-0.357032471895606,-0.7858416954953568,30.315734833748962,36.84454295130938,127.75927137758006,13
1767470509.780895,1,left_wrist,0.0039,-0.367,0.609,0.07,189.35,102.97,-0.742749109357732,0.035931627317460295,-0.4459502114555965,0.4981576935161435,-39.69004034892816,38.80405835379762,-82.18720846879447,13
1767470509.780895,2,right_wrist,0.0859,0.4392,0.8999,-115.99,196.91,-107.03,-0.4721619410784859,0.2684099847642731,-0.3468423205557572,-0.7646695927963505,24.234153341457855,47.56314035284888,127.42083747559087,13
1767470509.833054,1,left_wrist,-0.1654,-0.3255,0.5739,7.0,179.41,83.86,-0.7244030298446675,-0.020230324375647937,-0.49916922384284107,0.4750379672148922,-41.61732120973151,47.937950320529396,-85.69080957105139,13
1767470509.833054,2,right_wrist,-0.2694,0.3109,0.2952,1.68,159.6,-58.66,-0.4647861160085762,0.325720758936252,-0.3750075542693281,-0.7329728424741201,25.990722741405435,55.69870427253669,129.14530218774914,13
1767470509.924649,1,left_wrist,-0.3665,-0.3367,0.4631,7.91,142.66,70.49,-0.7070837946907529,-0.06571283382478417,-0.5381820978210878,0.4539541390287509,-43.83742003350285,55.159030173624195,-89.14034756208338,13
1767470509.924649,2,right_wrist,-0.5729,0.1362,0.3323,-27.09,82.46,-24.5,-0.4443836452445958,0.41392866389894023,-0.4017088013232273,-0.6854314524308168,28.650021338649452,67.58783339784776,133.48463012548768,13
1767470509.980392,1,left_wrist,-0.732,-0.3338,0.1586,55.02,93.1,35.21,-0.6639177436157613,-0.14823392954055373,-0.5866074977369222,0.43946737699623295,-49.96144176286232,65.39588440467169,-100.30507148743119,13
1767470509.980392,2,right_wrist,-0.7832,0.3016,0.2469,-33.25,72.52,-6.3,-0.4246010323154685,0.4410466532959678,-0.40798090046681296,-0.6773059853768849,32.642685321857336,70.71809717507189,139.3094020075511,13
1767470510.072887,1,left_wrist,-0.8774,-0.6656,-0.1298,1.82,86.94,25.97,-0.6433877835409029,-0.17037367500282624,-0.6123085277212295,0.4267355594934829,-57.655610400634664,68.95723178266776,-108.51969400413259,13
1767470510.072887,2,right_wrist,-0.9394,0.3274,-0.2743,48.93,24.71,0.42,-0.41835616994569824,0.4564754242513011,-0.44961745159520594,-0.6437798143340574,47.74472182704798,74.56646232926227,151.20604349542603,13
1767470510.132573,1,left_wrist,-0.8301,0.0073,-0.1747,-27.16,-0.98,-12.88,-0.6362665318632926,-0.14601468395738418,-0.6528712088472957,0.3841923960176119,-71.63116614961702,70.56088252337405,-116.34473613562676,13
1767470510.132573,2,right_wrist,-0.9101,0.1932,-0.1069,4.06,-18.27,5.32,-0.4198684023502047,0.45158549548296223,-0.4505664907404058,-0.6455779599701109,47.41886877040669,74.03388708459978,150.56539965662208,13
1767470510.2249012,1,left_wrist,-0.9199,-0.2889,0.2591,22.96,-31.43,-13.23,-0.6435137305761576,-0.14304357729478173,-0.6384082816697381,0.39732037381710095,-65.99304526112168,69.279458678191,-111.70645874735025,13
1767470510.2249012,2,right_wrist,-0.9916,0.2957,0.2547,9.03,-4.69,1.05,-0.4244143484835142,0.4327870659577035,-0.4510354805206521,-0.6550838203257207,45.65384706314291,71.78229077352083,148.00401454805095,13
1767470510.282392,1,left_wrist,-0.9243,-0.3733,0.0927,7.42,-5.6,-5.81,-0.6450424074629016,-0.13770990110011166,-0.6360047070978823,0.4005674578180288,-65.23936611600872,68.56366318387802,-110.8222408654303,13
1767470510.282392,2,right_wrist,-0.9301,0.2499,0.1781,-3.71,-4.97,8.19,-0.4199535670331652,0.43067556134254065,-0.4537224363397389,-0.6574903141190293,47.228750832038365,71.33657177863404,149.70758193493714,13
1767470510.333933,1,left_wrist,-0.9618,-0.4036,0.1196,5.11,-14.7,-10.08,-0.6443915228950363,-0.13156550620242996,-0.6340322776809498,0.40675933137104686,-65.00898703613325,67.54218579737339,-110.6794270302843,13
1767470510.333933,2,right_wrist,-0.9418,0.3558,0.1801,-0.63,-10.99,10.22,-0.416128834183232,0.42388211445821056,-0.45676858653553554,-0.662210846149525,48.465969575956315,70.313139652886,150.88800055098667,13
1767470510.419395,1,left_wrist,-0.9516,-0.4377,0.1527,1.89,-11.55,-8.75,-0.6436299230577056,-0.12423768170267269,-0.6325030804069366,0.41260801478596343,-64.97472854962042,66.45100287228739,-110.60591933756146,13
1767470510.419395,2,right_wrist,-0.9199,0.3192,0.1371,16.52,-15.33,5.39,-0.4184164804472207,0.4093025029147994,-0.4683716858659826,-0.6618361382373273,50.810682318240055,69.02412533524738,151.56844475665972,13
1767470510.472806,1,left_wrist,-0.913,-0.3231,0.1391,-6.23,-13.3,-10.08,-0.6455893423932048,-0.12029209898492353,-0.6318883210170272,0.4116568494175619,-64.70060691837394,66.19420732204624,-109.91485116419499,13
1767470510.472806,2,right_wrist,-0.8638,0.2747,0.0185,36.75,-28.07,13.37,-0.42532807570777387,0.39344174883280747,-0.47848756386466545,-0.6598100253231699,51.91984693417458,67.85335100676659,150.65278847692363,13
1767470510.530059,1,left_wrist,-0.8233,-0.3284,0.0156,-15.68,-41.09,-33.88,-0.6523818487749592,-0.08981813232740778,-0.625566173416216,0.4183271317660081,-63.649330650068926,63.04499294630424,-107.01743281330934,13
1767470510.530059,2,right_wrist,-0.7852,0.3196,-0.0878,52.57,-58.03,29.4,-0.43597778973547263,0.3620718926667679,-0.49028217033941707,-0.662156103079438,52.382049162508736,65.0940792311318,148.13285813685152,13
1767470510.581453,1,left_wrist,-0.8042,-0.364,0.0854,-37.31,-69.51,-58.24,-0.6596965283732029,-0.05117101347847504,-0.6171713825744942,0.42577165518974686,-63.04149575054175,59.077812060461646,-104.00537607964806,13
1767470510.581453,2,right_wrist,-0.6564,0.2499,-0.0922,94.5,-100.8,64.82,-0.451385132727545,0.30240256069401156,-0.5100282582061677,-0.6668398076520506,53.909003473333904,59.73987606387926,144.37367968792256,13
1767470510.674243,1,left_wrist,-0.691,-0.4704,0.121,-73.99,-88.34,-86.45,-0.6651106682987357,0.012039421631116312,-0.6085815319578194,0.43256371808309485,-64.48275724056992,53.04734233977117,-101.02523913353075,13
1767470510.674243,2,right_wrist,-0.3299,0.4431,0.1152,115.92,-153.79,191.38,-0.4358144608770245,0.10149822043552595,-0.5402216315624354,-0.7126881896951219,59.85996766948562,37.99160173658937,139.5281104019412,13
1767470510.7326741,1,left_wrist,-0.4377,-0.4626,0.2328,-235.83,-99.75,-198.1,-0.6317369331065484,0.25888776041647976,-0.6094149831435683,0.40311158898721355,-81.44064118474688,34.14288252114206,-94.69691047845437,13
1767470510.7326741,2,right_wrist,-0.1454,0.5461,0.5778,161.91,-146.44,224.77,-0.40339508853086864,-0.030292145894473977,-0.5652714370798378,-0.718904020623042,66.78378078477868,24.362050387370612,137.6007888272294,13
1767470510.821377,1,left_wrist,-0.1952,-0.1986,-0.0234,-123.13,-67.69,-269.64,-0.582761935555745,0.37201819169270484,-0.5801193801074784,0.43064195840712816,-86.92538790621224,20.838172650231154,-92.69734974366172,13
1767470510.821377,2,right_wrist,0.3484,0.5934,0.5719,101.5,-99.75,271.53,-0.2792651771125935,-0.2631842870924147,-0.5426733541193077,-0.7471617111501564,74.12174724060186,-5.174129500583616,135.10297287890273,13
1767470510.878876,1,left_wrist,0.5514,-0.6432,0.019,-37.8,19.53,-310.24,-0.42223807703537625,0.5725201625817185,-0.4716179249422902,0.5210683281605196,-95.87977987540525,-11.441900210151472,-89.29097020574456,13
1767470510.878876,2,right_wrist,0.6832,1.445,0.2982,75.46,-106.12,271.6,-0.20236421935086363,-0.37167253669246786,-0.5174681526370593,-0.7437304344999545,78.4421402035281,-20.085027355427883,133.10807849984343,13
1767470510.929442,1,left_wrist,1.0526,-1.2137,0.1196,-114.17,-12.6,-302.96,-0.32209372262983926,0.6531898964216516,-0.4124498648434261,0.5472510411554862,-102.51132624251679,-26.693822647733978,-86.09764705699001,13
1767470510.929442,2,right_wrist,1.0087,0.4963,0.4368,25.76,-50.96,262.71,-0.12113894683313715,-0.4485698898664441,-0.47248589597954344,-0.7489108675708831,79.51509744317117,-33.87651466764672,133.1888167263885,13
1767470512.320016,1,left_wrist,0.2645,-0.6895,0.8252,54.88,217.14,148.82,-0.7275665290518034,0.09595939852007206,-0.3530442574554317,0.5803434258410447,-36.878919980772714,23.725017916934558,-85.16755758091834,14
1767470512.320016,2,right_wrist,0.1503,0.6002,0.8413,-10.78,226.31,-103.81,-0.4382478730890495,0.1936156256431003,-0.3724201270660184,-0.7948301958254267,33.10819157691011,39.36124938847837,134.39481398961422,14
1767470512.3742468,1,left_wrist,0.0815,-0.5061,0.7442,40.39,214.2,125.02,-0.7237637205244911,0.012193857050324766,-0.4106957894296207,0.5543882712031009,-35.532299923254335,35.519018848678094,-86.62154873300506,14
1767470512.3742468,2,right_wrist,-0.2499,0.385,0.6066,-25.34,192.08,-61.04,-0.4240462610564296,0.2705610969196832,-0.39261437545339156,-0.7699580595753404,34.52548088134318,48.5570139208094,138.27166404146953,14
1767470512.4329119,1,left_wrist,-0.2499,-0.3318,0.3762,11.62,176.4,86.87,-0.6911291136374068,-0.1162497301505041,-0.5125325048262546,0.49612194067510523,-37.854425013136684,55.467053529653235,-91.78452483505697,14
1767470512.4329119,2,right_wrist,-0.4314,0.2528,0.5012,-42.98,176.96,-48.09,-0.4039885596700877,0.3429335079570211,-0.40175453681039963,-0.7468488099530192,36.16090029194743,56.8086989688117,143.20530952794473,14
1767470512.48347,1,left_wrist,-0.4412,-0.1762,0.1083,8.75,147.84,63.98,-0.668190313403621,-0.1655751618797401,-0.5534795192510574,0.46879312346885715,-41.83660590460539,63.49562671055996,-96.71899618914874,14
1767470512.48347,2,right_wrist,-0.4534,0.1596,-0.0117,-14.91,144.48,-26.67,-0.38341961395426055,0.39859056751021077,-0.41977803829540994,-0.7196536373088872,42.14930236343921,63.58516045804456,150.7724399289604,14
1767470512.574462,1,left_wrist,-0.6017,-0.2757,-0.222,7.84,96.67,28.56,-0.6473146943654846,-0.19464671490609928,-0.5805886749682205,0.45388669658123815,-47.72452878984332,68.17786232843176,-103.407262822525,14
1767470512.574462,2,right_wrist,-0.7452,0.1674,-0.3255,-18.2,-35.98,16.24,-0.37175664152054194,0.40188067520974696,-0.4362920672094225,-0.7140995410084325,47.58573229325158,63.94261720043602,155.77133132174438,14
1767470512.625382,1,left_wrist,-0.7452,-0.1752,-0.4099,-40.6,32.55,-4.97,-0.6393685005265435,-0.1895865295199094,-0.6010067569455843,0.44051758927968754,-54.377724925664374,69.31912715821909,-108.2383857884496,14
1767470512.625382,2,right_wrist,-1.0414,0.467,0.2284,3.22,-41.86,3.64,-0.3769533133490377,0.38800416279803374,-0.4343188292221464,-0.7202264392464937,46.00250002779504,62.416573557156255,153.59105732496974,14
1767470512.682452,1,left_wrist,-0.995,-0.3499,0.3216,3.78,-28.14,-0.28,-0.6507767638080615,-0.17487085752442647,-0.5854778549757644,0.450694428864121,-49.84075755843227,66.87604889711027,-103.52108736714426,14
1767470512.682452,2,right_wrist,-1.0707,0.2855,0.3919,9.31,-5.46,-7.7,-0.38468769943141934,0.38876059354749093,-0.43194266828881644,-0.7171513829884887,44.63156749095969,62.86400700034731,151.74557343052282,14
1767470512.771416,1,left_wrist,-1.0053,-0.4016,0.368,-15.82,0.63,1.68,-0.6527669199290406,-0.16828290350211597,-0.586919550009777,0.44844359115899074,-50.32389083608174,66.51639146072554,-103.22328248085189,14
1767470512.771416,2,right_wrist,-0.896,0.3357,0.2547,1.68,-6.86,6.93,-0.3842646963605809,0.3884888233202156,-0.4383644514484598,-0.7136201265326503,46.18525822596203,63.04500499572072,152.7089349807831,14
1767470512.8214378,1,left_wrist,-0.935,-0.2928,0.143,-2.73,10.29,-7.0,-0.6473366902481726,-0.16898402647050595,-0.5934934427523259,0.4473981913981645,-52.638656615423294,66.8656995271445,-105.47042260376456,14
1767470512.8214378,2,right_wrist,-0.914,0.3245,0.264,-0.28,-10.64,3.71,-0.3844452375948555,0.3868856119459381,-0.4389474806304108,-0.714035357533552,46.2517307528822,62.87356724914834,152.66517232425576,14
1767470512.883422,1,left_wrist,-0.9223,-0.406,0.2611,-11.76,-1.26,-4.34,-0.645647288576768,-0.15188879588195459,-0.5961713955096722,0.45238151997517245,-54.70257690322247,65.12889854854201,-106.59778603111208,14
1767470512.883422,2,right_wrist,-0.9155,0.3304,0.2835,6.58,-15.96,-1.12,-0.38832970677470113,0.38342353194184664,-0.43991379045815693,-0.7132056442248976,45.95249638260214,62.695703976839255,151.8276904133941,14
1767470512.972866,1,left_wrist,-0.9467,-0.3919,0.2128,-19.32,2.38,-5.18,-0.6428020970132394,-0.14438973397307928,-0.6038381684825991,0.44870539898929873,-57.26067413675415,64.94122596741197,-108.14666401777747,14
1767470512.972866,2,right_wrist,-0.9423,0.3553,0.2255,19.25,-11.48,1.82,-0.396233777709384,0.3754916127171235,-0.4471225226178802,-0.7085804766920037,46.56759394110314,62.431993811943606,150.8051718569331,14
1767470513.028718,1,left_wrist,-0.8281,-0.3582,-0.0532,-28.21,-20.79,-17.22,-0.6433300911144199,-0.12302583197120856,-0.6104970259154043,0.4452913876137178,-59.79949136454256,63.5170243752665,-108.56583427224857,14
1767470513.028718,2,right_wrist,-0.8774,0.3338,0.0649,45.71,-16.59,9.94,-0.40267898172888994,0.36244292709527715,-0.46221910217453877,-0.70202440403262,49.039257776077996,61.78011481229642,150.85034834783036,14
1767470513.083796,1,left_wrist,-0.7198,-0.2782,-0.0371,-38.15,-59.57,-37.73,-0.6517958634614383,-0.09172760631081216,-0.605704004150652,0.4470691870067917,-59.41582841112468,60.646029038270704,-105.80286832857853,14
1767470513.083796,2,right_wrist,-0.7462,0.2001,0.041,101.36,-60.83,34.86,-0.41949729849594386,0.32154262879249346,-0.48877684594033455,-0.6940673953561254,52.341820526535045,58.91759231512266,148.72840454452896,14
1767470513.174321,1,left_wrist,-0.7335,-0.3748,0.0039,-50.54,-90.86,-68.25,-0.6615559489877181,-0.04188467226719132,-0.5946386480948666,0.45496623916499485,-59.218464893068,55.576904160599504,-102.37810586429288,14
1767470513.174321,2,right_wrist,-0.4006,0.286,0.0586,119.63,-138.95,113.47,-0.4396362837351502,0.16961687369191147,-0.5368010913638712,-0.699853300694571,58.70061593866524,45.18679593521901,142.06764800769656,14
1767470513.226349,1,left_wrist,-0.6324,-0.5519,0.3787,-91.0,-133.63,-107.94,-0.6740528661014402,0.041725565216165925,-0.5719220564733326,0.465635986825696,-59.829051366236094,47.0672391458279,-97.40811254210678,14
1767470513.226349,2,right_wrist,-0.2108,0.3309,0.0561,109.9,-156.31,177.31,-0.42481607114056974,0.05687199778764581,-0.5527921558153446,-0.7146451665248679,62.729802712675536,33.4326631479341,139.2899938424198,14
1767470513.277283,1,left_wrist,-0.5846,-0.5578,0.0073,-207.13,-108.71,-156.17,-0.6585830922998159,0.1630915014839914,-0.5777910503089908,0.45368157871280457,-69.3108268853014,37.81135335164185,-95.76363172829805,14
1767470513.277283,2,right_wrist,0.041,0.8472,0.5324,111.02,-167.86,228.9,-0.3915599106713019,-0.07431089494930797,-0.5556668956335747,-0.7296526765138747,66.85932211746908,19.069296364931308,136.2144054971551,14
1767470513.336449,1,left_wrist,-0.1,-0.4324,0.1484,-35.7,-64.4,-252.49,-0.5781056843321494,0.38047559740322995,-0.5276359387583334,0.49257735804046554,-80.90255441406276,13.605259967209319,-92.48046165498367,14
1767470513.336449,2,right_wrist,0.2118,0.6466,0.3948,81.69,-146.65,262.22,-0.33599427172145696,-0.20005563944686583,-0.5410332180755768,-0.7445593646141713,70.4125587558706,3.7648368556889804,134.0808289877432,14
1767470513.4193358,1,left_wrist,0.1996,-0.7481,0.2313,-88.83,-80.15,-280.0,-0.5156120730654674,0.4822810395861963,-0.47277676868783386,0.5272867492682513,-84.96330554562698,-1.206852007334064,-90.17756365148706,14
1767470513.4193358,2,right_wrist,0.5256,1.1707,0.429,167.79,-118.72,277.9,-0.1656460286697783,-0.4476503083861095,-0.5369309810664946,-0.6956117567714937,88.55215166067524,-26.416983549550448,127.43121941247652,14
1767470513.4713018,1,left_wrist,0.529,-0.6246,0.1952,-154.84,-45.99,-304.92,-0.4157263073448836,0.5855195858123213,-0.42597627638845303,0.5503477663857494,-92.90981716075149,-16.875899691800925,-88.12421912005739,14
1767470513.4713018,2,right_wrist,1.181,1.0878,0.2796,134.68,-56.56,302.54,-0.05743097140351875,-0.5410423890669526,-0.5061674966813746,-0.6691556486047794,97.53811590393079,-41.75476883934202,123.15103643116149,14
1767470514.681341,1,left_wrist,0.4055,-0.794,0.8852,100.24,183.4,168.49,-0.71812844499859,0.19350900247068437,-0.33263598257587357,0.5798267892590778,-43.31850528038169,14.675677827435218,-83.69081601791109,15
1767470514.681341,2,right_wrist,0.2879,0.856,0.8696,-133.28,182.91,-149.17,-0.45558578618196677,-0.0347936066273103,-0.38071391151796363,-0.8039203405459496,42.29466256767743,16.91502637153483,127.50280959725374,15
1767470514.7342238,1,left_wrist,0.121,-0.7891,0.9257,83.02,191.66,140.14,-0.7282441810245877,0.10056964491953106,-0.377973796409892,0.5627450297888741,-39.48816581987183,25.933285171382106,-84.83829074608565,15
1767470514.7342238,2,right_wrist,0.0883,0.6251,0.7286,-68.88,200.9,-109.2,-0.45815582265830407,0.06344034290458486,-0.3941833707382569,-0.794158696539846,39.82041953688872,27.513539771441692,130.17290715677166,15
1767470514.8225448,1,left_wrist,-0.1044,-0.4963,0.6656,14.98,187.74,112.98,-0.7226101408852849,0.03338440445560309,-0.433973643134243,0.5370167063450503,-39.62887766361583,36.25155571162255,-86.69013668485255,15
1767470514.8225448,2,right_wrist,-0.3045,0.4158,0.4304,-32.69,162.05,-58.1,-0.4393933234764967,0.2124460566417156,-0.4238640038547919,-0.7629806593471742,39.89322864768628,44.16048370979268,136.87526294746428,15
1767470514.882586,1,left_wrist,-0.4992,-0.3816,0.4568,8.26,150.78,58.38,-0.6866792035955601,-0.061337007522024686,-0.5294041689882247,0.49440941406439437,-45.48069223742967,51.97228493415128,-94.60120678619482,15
1767470514.882586,2,right_wrist,-0.4607,0.3436,0.3714,-24.71,133.63,-42.7,-0.4236475326566162,0.2655509249048253,-0.43910084119665815,-0.7464555751125049,42.28851223274716,50.21865640848144,141.39248687692128,15
1767470514.974446,1,left_wrist,-0.5968,-0.2586,0.1352,-7.14,137.13,37.52,-0.6608140975315144,-0.09875106224078534,-0.5726036699969034,0.47507682885613756,-51.85862876716227,58.27675317280616,-101.75753008311489,15
1767470514.974446,2,right_wrist,-0.7276,0.2845,-0.083,0.28,86.87,-22.33,-0.3988302040866307,0.344863224658615,-0.4774557785407822,-0.7028796512378872,52.293970869902154,59.9561237457046,152.47871975194286,15
1767470515.028534,1,left_wrist,-0.7447,-0.2391,-0.2191,-76.16,59.22,6.44,-0.6256673271496835,-0.11689458832009635,-0.6358852854256978,0.43649278887276605,-68.14625687688523,63.86420901494227,-115.51613253732529,15
1767470515.028534,2,right_wrist,-0.7515,0.142,-0.1932,24.64,45.22,-2.31,-0.3934664798538714,0.3576943131772681,-0.4940155352912838,-0.687886297612412,57.26076149121551,61.746659497936314,156.61200083510502,15
1767470515.082693,1,left_wrist,-0.7584,-0.203,-0.1698,-7.56,0.77,-3.5,-0.6238075908566293,-0.11573936552056543,-0.6402409670508848,0.4330819702646285,-69.49497911493482,64.03002115473522,-116.43377296083372,15
1767470515.082693,2,right_wrist,-0.8159,0.0732,-0.0664,-25.9,4.76,14.49,-0.38479219170156687,0.3639192639454099,-0.4898065089964234,-0.6925224344955709,57.34314362326542,61.76225415496074,158.1023200113059,15
1767470515.1736472,1,left_wrist,-0.8784,-0.4494,0.1401,-0.28,-29.68,-1.75,-0.6292756732230186,-0.1062694999617412,-0.6338879041183252,0.4369268193646108,-67.53006609796124,62.95434202287988,-114.06823045996842,15
1767470515.1736472,2,right_wrist,-0.9404,0.4958,0.2899,-17.01,-15.89,8.89,-0.37883836756855743,0.3499447802490741,-0.4884662644554203,-0.7038613858732308,56.66579494380871,59.62390935832221,157.75559770650705,15
1767470515.22818,1,left_wrist,-0.9189,-0.4402,0.12,-16.73,3.08,-0.42,-0.6304990231043174,-0.0982463325083382,-0.6371263925267054,0.43230614147739,-68.42525364689968,62.667898443525225,-113.84781531782788,15
1767470515.22818,2,right_wrist,-0.9082,0.4182,0.2137,18.48,-4.2,3.64,-0.3810194538792975,0.34723326977342955,-0.49572310642683154,-0.6989362158899102,58.02780672169257,59.671911605607164,158.09841141295126,15
1767470515.2824209,1,left_wrist,-0.8945,-0.4397,0.1152,-1.75,-10.43,-3.57,-0.6306830779789545,-0.09479824351372602,-0.6375059381597218,0.43224799246358275,-68.59103430843248,62.3848587495122,-113.72556445544105,15
1767470515.2824209,2,right_wrist,-0.9096,0.3928,0.2059,-4.13,-12.04,4.83,-0.38194026892183125,0.3462953624259076,-0.4941153410126241,-0.700036558126936,57.53258305560302,59.573996616430996,157.65616013570457,15
1767470515.3328278,1,left_wrist,-0.9184,-0.4875,0.2738,7.07,-11.34,-2.8,-0.6343196294658927,-0.09245559844657594,-0.6307137494644021,0.43736796433517366,-66.67602576163108,61.765948871097955,-112.12602252938248,15
1767470515.3328278,2,right_wrist,-0.9277,0.4187,0.2445,6.09,-9.87,5.81,-0.3837653499329846,0.3441968413799113,-0.4959509424380279,-0.6987741790233365,57.70365413648589,59.50679031498877,157.4103020723488,15
1767470515.38571,1,left_wrist,-0.9057,-0.4041,0.2137,-3.78,-1.33,-3.15,-0.6368164229006545,-0.09284616749618035,-0.6289745954276115,0.43615982278513266,-66.01022104347683,61.89359900899914,-111.37278137529334,15
1767470515.38571,2,right_wrist,-0.9277,0.4187,0.2445,6.09,-9.87,5.81,-0.38567916755525394,0.3421481675628877,-0.4976816488296827,-0.6974949373045031,57.84822808646836,59.44979662475738,157.14064751587875,15
1767470515.4703832,1,left_wrist,-0.8847,-0.4451,0.1523,0.98,-5.25,-3.78,-0.6352755705378644,-0.09068031400947422,-0.6302810376458856,0.436975793051468,-66.54068217494968,61.64893792131518,-111.8067070759803,15
1767470515.4703832,2,right_wrist,-0.8969,0.3865,0.2533,2.17,-6.3,3.08,-0.39059005691030424,0.34398679068564086,-0.4974755884458152,-0.6939960620760671,57.530839283702115,60.00499534355736,156.43231728379453,15
1767470515.521441,1,left_wrist,-0.9008,-0.4309,0.1708,-1.89,-9.24,-5.32,-0.6359139453165632,-0.08888538605748067,-0.6305493749683823,0.43602789821789845,-66.60202344274981,61.57768896606658,-111.62727567773307,15
1767470515.521441,2,right_wrist,-0.8862,0.4031,0.2216,10.64,-7.14,6.72,-0.39164493867189515,0.3412838294874804,-0.5018644584492252,-0.6915718726846212,58.329024789663315,59.89983133662863,156.60375239754848,15
1767470515.580224,1,left_wrist,-0.8589,-0.4446,0.1157,-17.64,-22.12,-14.98,-0.6379453064553877,-0.07057143458755638,-0.6296430975453214,0.4377156934647518,-66.85442582124828,59.89825732376249,-110.5547643515003,15
1767470515.580224,2,right_wrist,-0.8379,0.3509,0.1313,18.2,-13.79,12.32,-0.39350952508463655,0.33401229974205865,-0.5082937168676536,-0.6893645876323722,59.28785908145656,59.378318905200125,156.51463178085078,15
1767470515.6336389,1,left_wrist,-0.7842,-0.3406,0.0405,-30.38,-39.13,-28.28,-0.6429050052396486,-0.048638652575329004,-0.6277643561681295,0.43614143215048684,-66.87982745906311,58.169532151037394,-108.64508597763475,15
1767470515.6336389,2,right_wrist,-0.7657,0.2845,-0.0849,53.76,-36.05,28.35,-0.4001148372203132,0.31002423954951464,-0.52409568686016,-0.6849210165723376,61.188585886498274,57.57362253309091,155.41020037496384,15
1767470515.7212749,1,left_wrist,-0.6886,-0.3597,-0.0522,-38.36,-67.69,-50.96,-0.6502752295340636,-0.011773453616553565,-0.6196010447234542,0.43942924006256573,-66.33665628599256,54.7031762254408,-105.45816219049686,15
1767470515.7212749,2,right_wrist,-0.4265,0.285,-0.1244,72.17,-137.34,106.68,-0.4143127051574969,0.18401215119617903,-0.5469747425148332,-0.7037777643603581,61.59436545201166,45.417827971437866,147.04195153537543,15
1767470515.772434,1,left_wrist,-0.5607,-0.407,0.0464,-72.17,-117.88,-92.47,-0.6607851844247833,0.05677668749838736,-0.6018176710610664,0.4449211599823607,-66.20817253819392,48.143821131265376,-100.38471677418026,15
1767470515.772434,2,right_wrist,-0.244,0.4231,0.0137,63.7,-170.1,161.35,-0.40558344948268854,0.07967004972684344,-0.5487597165919113,-0.7266481419010241,62.2842017387275,34.119439186319525,142.67269086134843,15
1767470515.8324962,1,left_wrist,-0.2991,-0.6246,0.1005,-80.71,-135.52,-181.72,-0.6492182010429693,0.24730690391017596,-0.5430628288010582,0.4716331060130178,-70.94509913595189,28.154860541518566,-92.25621926583447,15
1767470515.8324962,2,right_wrist,-0.0483,0.8037,0.366,107.45,-185.99,209.16,-0.3819847672615376,-0.052075317591202465,-0.552028477637814,-0.7393513094292875,65.77926898534861,20.16525567002986,138.47285039143665,15
1767470515.921403,1,left_wrist,-0.1074,-1.1287,0.5041,-266.98,-138.39,-256.55,-0.5906078238599265,0.4088083426550355,-0.5205366786236353,0.4616272344419893,-82.67600433558188,13.735020838760434,-88.1190825611677,15
1767470515.921403,2,right_wrist,0.4231,1.0746,0.4763,134.4,-111.58,268.8,-0.25690176466002335,-0.31169735912252927,-0.5648903095564392,-0.7195451186686191,80.2338852213196,-9.109279918570937,133.02343925068087,15
1767470515.973831,1,left_wrist,0.0059,-0.4973,0.181,-179.34,-63.0,-287.56,-0.5091673973411875,0.5277559826027433,-0.48064363814499783,0.480836643177862,-91.09398536142001,-1.0355452167556696,-85.66614259815648,15
1767470515.973831,2,right_wrist,0.6427,0.9233,0.4363,205.03,-41.16,286.37,-0.14536584588607537,-0.41513316628618163,-0.5760294209024056,-0.6890016918367287,90.51945177973559,-23.86511744239552,132.0967078203192,15
1767470516.025076,1,left_wrist,0.6627,-1.2293,0.1288,-119.07,-79.24,-279.51,-0.4336864748179212,0.6250369517254064,-0.41665804029564185,0.4976353363606847,-97.6518942101618,-15.11059481698269,-80.61014070384867,15
1767470516.025076,2,right_wrist,0.936,0.8823,0.2084,72.87,-8.33,266.42,-0.051071024944001196,-0.4871974257155875,-0.5423277945821696,-0.6825767224355913,94.55602386108785,-37.56815907536826,131.00475949004138,15
1767470517.320381,1,left_wrist,0.265,-0.8028,0.8935,62.3,207.97,152.39,-0.7183957325119393,0.1332640256487199,-0.3519726121368753,0.5850329488858521,-40.089532746667956,20.474076838479043,-85.85569982484265,16
1767470517.320381,2,right_wrist,0.0215,0.5061,0.6525,-7.98,199.01,-91.35,-0.4250007986390043,0.15064803829018897,-0.3840255092729227,-0.8057319020264736,36.649567522648965,34.69349349480735,136.19209240981021,16
1767470517.371161,1,left_wrist,0.0805,-0.6046,0.7857,28.49,198.8,130.97,-0.7190300430426533,0.05586589583119003,-0.4094273818854722,0.5587879900708914,-39.24428929901313,31.758953003748537,-87.28669669713014,16
1767470517.371161,2,right_wrist,-0.1552,0.4041,0.4792,-6.65,158.41,-72.45,-0.42132841206972405,0.21510397867439118,-0.4048226151104072,-0.7825160048436218,37.96266012496085,42.66971749827755,138.70485540426986,16
1767470517.4275808,1,left_wrist,-0.0893,-0.4441,0.6778,1.68,192.29,105.63,-0.7077362610917189,-0.008295083198685797,-0.46697937242978066,0.530066827914867,-40.608794517906546,42.05088728804095,-89.85194001706486,16
1767470517.4275808,2,right_wrist,-0.2928,0.2743,0.2494,1.54,136.64,-52.36,-0.4122177370494625,0.26735903666361804,-0.42795635042521724,-0.7585835780629917,41.150142144208495,49.32780878133959,142.52006435003864,16
1767470517.480957,1,left_wrist,-0.4343,-0.3152,0.324,-14.84,150.01,66.29,-0.6698337445101148,-0.10014366172948645,-0.560924529392044,0.4760857843469835,-48.75531729470432,57.865985923344056,-98.9324202836667,16
1767470517.480957,2,right_wrist,-0.5226,0.3084,0.4026,-33.81,99.96,-32.13,-0.40033287567653436,0.31008784014492796,-0.42821200084051686,-0.7484741828433171,41.68938576980447,53.80774777313552,145.58824979086032,16
1767470517.5358222,1,left_wrist,-0.5324,-0.1615,0.1176,2.24,119.42,42.14,-0.6477560769455395,-0.13844831733902796,-0.5944351872167447,0.4559505854856532,-54.895280629458675,63.68225862394022,-106.03828954788786,16
1767470517.5358222,2,right_wrist,-0.6959,0.2435,0.3733,-29.68,75.6,-24.85,-0.39244630465254715,0.34737805516094067,-0.42511339685625427,-0.7379654358914782,41.77057195115517,57.81948744509164,147.7911328672261,16
1767470517.620279,1,left_wrist,-0.6803,-0.3582,0.082,4.83,65.1,12.04,-0.6302611923205903,-0.15464855473629896,-0.6137719765092913,0.4495982816075704,-60.89361195947322,65.88577398232307,-112.70678852132285,16
1767470517.620279,2,right_wrist,-0.7647,0.0844,-0.2333,27.51,62.86,0.0,-0.37392175904521413,0.38972116572783294,-0.46035182456962,-0.7045396573023364,52.67391057916436,63.30609248593605,158.02951135854477,16
1767470517.672477,1,left_wrist,-0.8237,-0.307,-0.1762,-12.6,48.09,-7.7,-0.6146332040245661,-0.15933745731234691,-0.6325937439166425,0.44346674550101023,-67.82179898551522,66.77276321158922,-119.41220187297748,16
