timestamp,node_id,node_name,ax,ay,az,gx,gy,gz,qw,qx,qy,qz,roll,pitch,yaw,rep_number
1767130662.445,1,left_wrist,-0.0932,0.0937,-0.9775,1.54,-4.97,-0.21,0.021385448886979113,0.8963285067588006,-0.4378574598840295,-0.06647341853212202,174.43129905316565,5.764305671361399,-52.351699376365545,1
1767130662.445,2,right_wrist,-0.1371,0.0293,-0.9614,1.12,-2.66,-0.49,0.06230102360369057,0.7182292122009407,0.6917633711305068,-0.04157907600350424,178.14828258341038,8.39065910825705,87.71350457555863,1
1767130662.509,1,left_wrist,-0.0932,0.0937,-0.9775,1.54,-4.97,-0.21,0.021385448886979113,0.8963285067588006,-0.4378574598840295,-0.06647341853212202,174.43129905316565,5.764305671361399,-52.351699376365545,1
1767130662.509,2,right_wrist,-0.1371,0.0293,-0.9614,1.12,-2.66,-0.49,0.06230102360369057,0.7182292122009407,0.6917633711305068,-0.04157907600350424,178.14828258341038,8.39065910825705,87.71350457555863,1
1767130662.584,1,left_wrist,-0.0932,0.0937,-0.9775,1.54,-4.97,-0.21,0.021385448886979113,0.8963285067588006,-0.4378574598840295,-0.06647341853212202,174.43129905316565,5.764305671361399,-52.351699376365545,1
1767130662.584,2,right_wrist,-0.1371,0.0293,-0.9614,1.12,-2.66,-0.49,0.06230102360369057,0.7182292122009407,0.6917633711305068,-0.04157907600350424,178.14828258341038,8.39065910825705,87.71350457555863,1
1767130662.648,1,left_wrist,-0.0932,0.0937,-0.9775,1.54,-4.97,-0.21,0.021385448886979113,0.8963285067588006,-0.4378574598840295,-0.06647341853212202,174.43129905316565,5.764305671361399,-52.351699376365545,1
1767130662.648,2,right_wrist,-0.1371,0.0293,-0.9614,1.12,-2.66,-0.49,0.06230102360369057,0.7182292122009407,0.6917633711305068,-0.04157907600350424,178.14828258341038,8.39065910825705,87.71350457555863,1
1767130662.712,1,left_wrist,-0.0932,0.0937,-0.9775,1.54,-4.97,-0.21,0.021385448886979113,0.8963285067588006,-0.4378574598840295,-0.06647341853212202,174.43129905316565,5.764305671361399,-52.351699376365545,1
1767130662.712,2,right_wrist,-0.1371,0.0293,-0.9614,1.12,-2.66,-0.49,0.06230102360369057,0.7182292122009407,0.6917633711305068,-0.04157907600350424,178.14828258341038,8.39065910825705,87.71350457555863,1
1767130662.765,1,left_wrist,-0.0932,0.0937,-0.9775,1.54,-4.97,-0.21,0.021385448886979113,0.8963285067588006,-0.4378574598840295,-0.06647341853212202,174.43129905316565,5.764305671361399,-52.351699376365545,1
1767130662.765,2,right_wrist,-0.1371,0.0293,-0.9614,1.12,-2.66,-0.49,0.06230102360369057,0.7182292122009407,0.6917633711305068,-0.04157907600350424,178.14828258341038,8.39065910825705,87.71350457555863,1
1767130662.82,1,left_wrist,-0.0932,0.0937,-0.9775,1.54,-4.97,-0.21,0.021385448886979113,0.8963285067588006,-0.4378574598840295,-0.06647341853212202,174.43129905316565,5.764305671361399,-52.351699376365545,1
1767130662.82,2,right_wrist,-0.1371,0.0293,-0.9614,1.12,-2.66,-0.49,0.06230102360369057,0.7182292122009407,0.6917633711305068,-0.04157907600350424,178.14828258341038,8.39065910825705,87.71350457555863,1
1767130662.877,1,left_wrist,-0.0932,0.0937,-0.9775,1.54,-4.97,-0.21,0.021385448886979113,0.8963285067588006,-0.4378574598840295,-0.06647341853212202,174.43129905316565,5.764305671361399,-52.351699376365545,1
1767130662.877,2,right_wrist,-0.1371,0.0293,-0.9614,1.12,-2.66,-0.49,0.06230102360369057,0.7182292122009407,0.6917633711305068,-0.04157907600350424,178.14828258341038,8.39065910825705,87.71350457555863,1
1767130662.928,1,left_wrist,-0.0932,0.0937,-0.9775,1.54,-4.97,-0.21,0.021385448886979113,0.8963285067588006,-0.4378574598840295,-0.06647341853212202,174.43129905316565,5.764305671361399,-52.351699376365545,1
1767130662.928,2,right_wrist,-0.1371,0.0293,-0.9614,1.12,-2.66,-0.49,0.06230102360369057,0.7182292122009407,0.6917633711305068,-0.04157907600350424,178.14828258341038,8.39065910825705,87.71350457555863,1
1767130662.984,1,left_wrist,-0.0932,0.0937,-0.9775,1.54,-4.97,-0.21,0.021385448886979113,0.8963285067588006,-0.4378574598840295,-0.06647341853212202,174.43129905316565,5.764305671361399,-52.351699376365545,1
1767130662.984,2,right_wrist,-0.1371,0.0293,-0.9614,1.12,-2.66,-0.49,0.06230102360369057,0.7182292122009407,0.6917633711305068,-0.04157907600350424,178.14828258341038,8.39065910825705,87.71350457555863,1
1767130663.053,1,left_wrist,-0.0932,0.0937,-0.9775,1.54,-4.97,-0.21,0.021385448886979113,0.8963285067588006,-0.4378574598840295,-0.06647341853212202,174.43129905316565,5.764305671361399,-52.351699376365545,1
1767130663.053,2,right_wrist,-0.1371,0.0293,-0.9614,1.12,-2.66,-0.49,0.06230102360369057,0.7182292122009407,0.6917633711305068,-0.04157907600350424,178.14828258341038,8.39065910825705,87.71350457555863,1
1767130663.104,1,left_wrist,-0.0932,0.0937,-0.9775,1.54,-4.97,-0.21,0.021385448886979113,0.8963285067588006,-0.4378574598840295,-0.06647341853212202,174.43129905316565,5.764305671361399,-52.351699376365545,1
1767130663.104,2,right_wrist,-0.1371,0.0293,-0.9614,1.12,-2.66,-0.49,0.06230102360369057,0.7182292122009407,0.6917633711305068,-0.04157907600350424,178.14828258341038,8.39065910825705,87.71350457555863,1
1767130663.161,1,left_wrist,-0.0932,0.0937,-0.9775,1.54,-4.97,-0.21,0.021385448886979113,0.8963285067588006,-0.4378574598840295,-0.06647341853212202,174.43129905316565,5.764305671361399,-52.351699376365545,1
1767130663.161,2,right_wrist,-0.1371,0.0293,-0.9614,1.12,-2.66,-0.49,0.06230102360369057,0.7182292122009407,0.6917633711305068,-0.04157907600350424,178.14828258341038,8.39065910825705,87.71350457555863,1
1767130663.214,1,left_wrist,-0.0932,0.0937,-0.9775,1.54,-4.97,-0.21,0.021385448886979113,0.8963285067588006,-0.4378574598840295,-0.06647341853212202,174.43129905316565,5.764305671361399,-52.351699376365545,1
1767130663.214,2,right_wrist,-0.1371,0.0293,-0.9614,1.12,-2.66,-0.49,0.06230102360369057,0.7182292122009407,0.6917633711305068,-0.04157907600350424,178.14828258341038,8.39065910825705,87.71350457555863,1
1767130663.284,1,left_wrist,-0.0932,0.0937,-0.9775,1.54,-4.97,-0.21,0.021385448886979113,0.8963285067588006,-0.4378574598840295,-0.06647341853212202,174.43129905316565,5.764305671361399,-52.351699376365545,1
1767130663.284,2,right_wrist,-0.1371,0.0293,-0.9614,1.12,-2.66,-0.49,0.06230102360369057,0.7182292122009407,0.6917633711305068,-0.04157907600350424,178.14828258341038,8.39065910825705,87.71350457555863,1
1767130663.339,1,left_wrist,-0.0932,0.0937,-0.9775,1.54,-4.97,-0.21,0.021385448886979113,0.8963285067588006,-0.4378574598840295,-0.06647341853212202,174.43129905316565,5.764305671361399,-52.351699376365545,1
1767130663.339,2,right_wrist,-0.1371,0.0293,-0.9614,1.12,-2.66,-0.49,0.06230102360369057,0.7182292122009407,0.6917633711305068,-0.04157907600350424,178.14828258341038,8.39065910825705,87.71350457555863,1
1767130663.4,1,left_wrist,-0.0932,0.0937,-0.9775,1.54,-4.97,-0.21,0.021385448886979113,0.8963285067588006,-0.4378574598840295,-0.06647341853212202,174.43129905316565,5.764305671361399,-52.351699376365545,1
1767130663.4,2,right_wrist,-0.1371,0.0293,-0.9614,1.12,-2.66,-0.49,0.06230102360369057,0.7182292122009407,0.6917633711305068,-0.04157907600350424,178.14828258341038,8.39065910825705,87.71350457555863,1
1767130663.464,1,left_wrist,-0.0932,0.0937,-0.9775,1.54,-4.97,-0.21,0.021385448886979113,0.8963285067588006,-0.4378574598840295,-0.06647341853212202,174.43129905316565,5.764305671361399,-52.351699376365545,1
1767130663.464,2,right_wrist,-0.1371,0.0293,-0.9614,1.12,-2.66,-0.49,0.06230102360369057,0.7182292122009407,0.6917633711305068,-0.04157907600350424,178.14828258341038,8.39065910825705,87.71350457555863,1
1767130663.519,1,left_wrist,-0.0932,0.0937,-0.9775,1.54,-4.97,-0.21,0.021385448886979113,0.8963285067588006,-0.4378574598840295,-0.06647341853212202,174.43129905316565,5.764305671361399,-52.351699376365545,1
1767130663.519,2,right_wrist,-0.1371,0.0293,-0.9614,1.12,-2.66,-0.49,0.06230102360369057,0.7182292122009407,0.6917633711305068,-0.04157907600350424,178.14828258341038,8.39065910825705,87.71350457555863,1
1767130663.581,1,left_wrist,-0.0932,0.0937,-0.9775,1.54,-4.97,-0.21,0.021385448886979113,0.8963285067588006,-0.4378574598840295,-0.06647341853212202,174.43129905316565,5.764305671361399,-52.351699376365545,1
1767130663.581,2,right_wrist,-0.1371,0.0293,-0.9614,1.12,-2.66,-0.49,0.06230102360369057,0.7182292122009407,0.6917633711305068,-0.04157907600350424,178.14828258341038,8.39065910825705,87.71350457555863,1
1767130663.645,1,left_wrist,-0.0932,0.0937,-0.9775,1.54,-4.97,-0.21,0.021385448886979113,0.8963285067588006,-0.4378574598840295,-0.06647341853212202,174.43129905316565,5.764305671361399,-52.351699376365545,1
1767130663.645,2,right_wrist,-0.1371,0.0293,-0.9614,1.12,-2.66,-0.49,0.06230102360369057,0.7182292122009407,0.6917633711305068,-0.04157907600350424,178.14828258341038,8.39065910825705,87.71350457555863,1
1767130663.697,1,left_wrist,-0.0932,0.0937,-0.9775,1.54,-4.97,-0.21,0.021385448886979113,0.8963285067588006,-0.4378574598840295,-0.06647341853212202,174.43129905316565,5.764305671361399,-52.351699376365545,1
1767130663.697,2,right_wrist,-0.1371,0.0293,-0.9614,1.12,-2.66,-0.49,0.06230102360369057,0.7182292122009407,0.6917633711305068,-0.04157907600350424,178.14828258341038,8.39065910825705,87.71350457555863,1
1767130663.757,1,left_wrist,-0.0932,0.0937,-0.9775,1.54,-4.97,-0.21,0.021385448886979113,0.8963285067588006,-0.4378574598840295,-0.06647341853212202,174.43129905316565,5.764305671361399,-52.351699376365545,1
1767130663.757,2,right_wrist,-0.1371,0.0293,-0.9614,1.12,-2.66,-0.49,0.06230102360369057,0.7182292122009407,0.6917633711305068,-0.04157907600350424,178.14828258341038,8.39065910825705,87.71350457555863,1
1767130663.813,1,left_wrist,-0.0932,0.0937,-0.9775,1.54,-4.97,-0.21,0.021385448886979113,0.8963285067588006,-0.4378574598840295,-0.06647341853212202,174.43129905316565,5.764305671361399,-52.351699376365545,1
1767130663.813,2,right_wrist,-0.1371,0.0293,-0.9614,1.12,-2.66,-0.49,0.06230102360369057,0.7182292122009407,0.6917633711305068,-0.04157907600350424,178.14828258341038,8.39065910825705,87.71350457555863,1
1767130663.879,1,left_wrist,-0.0932,0.0937,-0.9775,1.54,-4.97,-0.21,0.021385448886979113,0.8963285067588006,-0.4378574598840295,-0.06647341853212202,174.43129905316565,5.764305671361399,-52.351699376365545,1
1767130663.879,2,right_wrist,-0.1371,0.0293,-0.9614,1.12,-2.66,-0.49,0.06230102360369057,0.7182292122009407,0.6917633711305068,-0.04157907600350424,178.14828258341038,8.39065910825705,87.71350457555863,1
1767130663.939,1,left_wrist,-0.0932,0.0937,-0.9775,1.54,-4.97,-0.21,0.021385448886979113,0.8963285067588006,-0.4378574598840295,-0.06647341853212202,174.43129905316565,5.764305671361399,-52.351699376365545,1
1767130663.939,2,right_wrist,-0.1371,0.0293,-0.9614,1.12,-2.66,-0.49,0.06230102360369057,0.7182292122009407,0.6917633711305068,-0.04157907600350424,178.14828258341038,8.39065910825705,87.71350457555863,1
1767130664,1,left_wrist,-0.0932,0.0937,-0.9775,1.54,-4.97,-0.21,0.021385448886979113,0.8963285067588006,-0.4378574598840295,-0.06647341853212202,174.43129905316565,5.764305671361399,-52.351699376365545,1
1767130664,2,right_wrist,-0.1371,0.0293,-0.9614,1.12,-2.66,-0.49,0.06230102360369057,0.7182292122009407,0.6917633711305068,-0.04157907600350424,178.14828258341038,8.39065910825705,87.71350457555863,1
1767130664.067,1,left_wrist,-0.0932,0.0937,-0.9775,1.54,-4.97,-0.21,0.021385448886979113,0.8963285067588006,-0.4378574598840295,-0.06647341853212202,174.43129905316565,5.764305671361399,-52.351699376365545,1
1767130664.067,2,right_wrist,-0.1371,0.0293,-0.9614,1.12,-2.66,-0.49,0.06230102360369057,0.7182292122009407,0.6917633711305068,-0.04157907600350424,178.14828258341038,8.39065910825705,87.71350457555863,1
1767130664.141,1,left_wrist,-0.0932,0.0937,-0.9775,1.54,-4.97,-0.21,0.021385448886979113,0.8963285067588006,-0.4378574598840295,-0.06647341853212202,174.43129905316565,5.764305671361399,-52.351699376365545,1
1767130664.141,2,right_wrist,-0.1371,0.0293,-0.9614,1.12,-2.66,-0.49,0.06230102360369057,0.7182292122009407,0.6917633711305068,-0.04157907600350424,178.14828258341038,8.39065910825705,87.71350457555863,1
1767130664.197,1,left_wrist,-0.0932,0.0937,-0.9775,1.54,-4.97,-0.21,0.021385448886979113,0.8963285067588006,-0.4378574598840295,-0.06647341853212202,174.43129905316565,5.764305671361399,-52.351699376365545,1
1767130664.197,2,right_wrist,-0.1371,0.0293,-0.9614,1.12,-2.66,-0.49,0.06230102360369057,0.7182292122009407,0.6917633711305068,-0.04157907600350424,178.14828258341038,8.39065910825705,87.71350457555863,1
1767130664.248,1,left_wrist,-0.0932,0.0937,-0.9775,1.54,-4.97,-0.21,0.021385448886979113,0.8963285067588006,-0.4378574598840295,-0.06647341853212202,174.43129905316565,5.764305671361399,-52.351699376365545,1
1767130664.248,2,right_wrist,-0.1371,0.0293,-0.9614,1.12,-2.66,-0.49,0.06230102360369057,0.7182292122009407,0.6917633711305068,-0.04157907600350424,178.14828258341038,8.39065910825705,87.71350457555863,1
1767130664.317,1,left_wrist,-0.0932,0.0937,-0.9775,1.54,-4.97,-0.21,0.021385448886979113,0.8963285067588006,-0.4378574598840295,-0.06647341853212202,174.43129905316565,5.764305671361399,-52.351699376365545,1
1767130664.317,2,right_wrist,-0.1371,0.0293,-0.9614,1.12,-2.66,-0.49,0.06230102360369057,0.7182292122009407,0.6917633711305068,-0.04157907600350424,178.14828258341038,8.39065910825705,87.71350457555863,1
1767130664.372,1,left_wrist,-0.0932,0.0937,-0.9775,1.54,-4.97,-0.21,0.021385448886979113,0.8963285067588006,-0.4378574598840295,-0.06647341853212202,174.43129905316565,5.764305671361399,-52.351699376365545,1
1767130664.372,2,right_wrist,-0.1371,0.0293,-0.9614,1.12,-2.66,-0.49,0.06230102360369057,0.7182292122009407,0.6917633711305068,-0.04157907600350424,178.14828258341038,8.39065910825705,87.71350457555863,1
1767130664.423,1,left_wrist,-0.0932,0.0937,-0.9775,1.54,-4.97,-0.21,0.021385448886979113,0.8963285067588006,-0.4378574598840295,-0.06647341853212202,174.43129905316565,5.764305671361399,-52.351699376365545,1
1767130664.423,2,right_wrist,-0.1371,0.0293,-0.9614,1.12,-2.66,-0.49,0.06230102360369057,0.7182292122009407,0.6917633711305068,-0.04157907600350424,178.14828258341038,8.39065910825705,87.71350457555863,1
1767130664.437,1,left_wrist,-0.0932,0.0937,-0.9775,1.54,-4.97,-0.21,0.021385448886979113,0.8963285067588006,-0.4378574598840295,-0.06647341853212202,174.43129905316565,5.764305671361399,-52.351699376365545,2
1767130664.437,2,right_wrist,-0.1371,0.0293,-0.9614,1.12,-2.66,-0.49,0.06230102360369057,0.7182292122009407,0.6917633711305068,-0.04157907600350424,178.14828258341038,8.39065910825705,87.71350457555863,2
1767130666.828,1,left_wrist,-0.0932,0.0937,-0.9775,1.54,-4.97,-0.21,0.021385448886979113,0.8963285067588006,-0.4378574598840295,-0.06647341853212202,174.43129905316565,5.764305671361399,-52.351699376365545,3
1767130666.828,2,right_wrist,-0.1371,0.0293,-0.9614,1.12,-2.66,-0.49,0.06230102360369057,0.7182292122009407,0.6917633711305068,-0.04157907600350424,178.14828258341038,8.39065910825705,87.71350457555863,3
1767130669.886,1,left_wrist,-0.0932,0.0937,-0.9775,1.54,-4.97,-0.21,0.021385448886979113,0.8963285067588006,-0.4378574598840295,-0.06647341853212202,174.43129905316565,5.764305671361399,-52.351699376365545,4
1767130669.886,2,right_wrist,-0.1371,0.0293,-0.9614,1.12,-2.66,-0.49,0.06230102360369057,0.7182292122009407,0.6917633711305068,-0.04157907600350424,178.14828258341038,8.39065910825705,87.71350457555863,4
1767130674.472,1,left_wrist,-0.0932,0.0937,-0.9775,1.54,-4.97,-0.21,0.021385448886979113,0.8963285067588006,-0.4378574598840295,-0.06647341853212202,174.43129905316565,5.764305671361399,-52.351699376365545,5
1767130674.472,2,right_wrist,-0.1371,0.0293,-0.9614,1.12,-2.66,-0.49,0.06230102360369057,0.7182292122009407,0.6917633711305068,-0.04157907600350424,178.14828258341038,8.39065910825705,87.71350457555863,5
1767130676.877,1,left_wrist,-0.0932,0.0937,-0.9775,1.54,-4.97,-0.21,0.021385448886979113,0.8963285067588006,-0.4378574598840295,-0.06647341853212202,174.43129905316565,5.764305671361399,-52.351699376365545,6
1767130676.877,2,right_wrist,-0.1371,0.0293,-0.9614,1.12,-2.66,-0.49,0.06230102360369057,0.7182292122009407,0.6917633711305068,-0.04157907600350424,178.14828258341038,8.39065910825705,87.71350457555863,6
1767130688.288,1,left_wrist,-0.0932,0.0937,-0.9775,1.54,-4.97,-0.21,0.021385448886979113,0.8963285067588006,-0.4378574598840295,-0.06647341853212202,174.43129905316565,5.764305671361399,-52.351699376365545,7
1767130688.288,2,right_wrist,-0.1371,0.0293,-0.9614,1.12,-2.66,-0.49,0.06230102360369057,0.7182292122009407,0.6917633711305068,-0.04157907600350424,178.14828258341038,8.39065910825705,87.71350457555863,7
1767130688.349,1,left_wrist,-0.0932,0.0937,-0.9775,1.54,-4.97,-0.21,0.021385448886979113,0.8963285067588006,-0.4378574598840295,-0.06647341853212202,174.43129905316565,5.764305671361399,-52.351699376365545,7
1767130688.349,2,right_wrist,-0.1371,0.0293,-0.9614,1.12,-2.66,-0.49,0.06230102360369057,0.7182292122009407,0.6917633711305068,-0.04157907600350424,178.14828258341038,8.39065910825705,87.71350457555863,7
1767130688.416,1,left_wrist,-0.0932,0.0937,-0.9775,1.54,-4.97,-0.21,0.021385448886979113,0.8963285067588006,-0.4378574598840295,-0.06647341853212202,174.43129905316565,5.764305671361399,-52.351699376365545,7
1767130688.416,2,right_wrist,-0.1371,0.0293,-0.9614,1.12,-2.66,-0.49,0.06230102360369057,0.7182292122009407,0.6917633711305068,-0.04157907600350424,178.14828258341038,8.39065910825705,87.71350457555863,7
1767130688.493,1,left_wrist,-0.0932,0.0937,-0.9775,1.54,-4.97,-0.21,0.021385448886979113,0.8963285067588006,-0.4378574598840295,-0.06647341853212202,174.43129905316565,5.764305671361399,-52.351699376365545,7
1767130688.493,2,right_wrist,-0.1371,0.0293,-0.9614,1.12,-2.66,-0.49,0.06230102360369057,0.7182292122009407,0.6917633711305068,-0.04157907600350424,178.14828258341038,8.39065910825705,87.71350457555863,7
1767130688.554,1,left_wrist,-0.0932,0.0937,-0.9775,1.54,-4.97,-0.21,0.021385448886979113,0.8963285067588006,-0.4378574598840295,-0.06647341853212202,174.43129905316565,5.764305671361399,-52.351699376365545,7
1767130688.554,2,right_wrist,-0.1371,0.0293,-0.9614,1.12,-2.66,-0.49,0.06230102360369057,0.7182292122009407,0.6917633711305068,-0.04157907600350424,178.14828258341038,8.39065910825705,87.71350457555863,7
1767130688.626,1,left_wrist,-0.0932,0.0937,-0.9775,1.54,-4.97,-0.21,0.021385448886979113,0.8963285067588006,-0.4378574598840295,-0.06647341853212202,174.43129905316565,5.764305671361399,-52.351699376365545,7
1767130688.626,2,right_wrist,-0.1371,0.0293,-0.9614,1.12,-2.66,-0.49,0.06230102360369057,0.7182292122009407,0.6917633711305068,-0.04157907600350424,178.14828258341038,8.39065910825705,87.71350457555863,7
1767130688.687,1,left_wrist,-0.0932,0.0937,-0.9775,1.54,-4.97,-0.21,0.021385448886979113,0.8963285067588006,-0.4378574598840295,-0.06647341853212202,174.43129905316565,5.764305671361399,-52.351699376365545,7
1767130688.687,2,right_wrist,-0.1371,0.0293,-0.9614,1.12,-2.66,-0.49,0.06230102360369057,0.7182292122009407,0.6917633711305068,-0.04157907600350424,178.14828258341038,8.39065910825705,87.71350457555863,7
1767130688.747,1,left_wrist,-0.0932,0.0937,-0.9775,1.54,-4.97,-0.21,0.021385448886979113,0.8963285067588006,-0.4378574598840295,-0.06647341853212202,174.43129905316565,5.764305671361399,-52.351699376365545,7
1767130688.747,2,right_wrist,-0.1371,0.0293,-0.9614,1.12,-2.66,-0.49,0.06230102360369057,0.7182292122009407,0.6917633711305068,-0.04157907600350424,178.14828258341038,8.39065910825705,87.71350457555863,7
1767130688.813,1,left_wrist,-0.0932,0.0937,-0.9775,1.54,-4.97,-0.21,0.021385448886979113,0.8963285067588006,-0.4378574598840295,-0.06647341853212202,174.43129905316565,5.764305671361399,-52.351699376365545,7
1767130688.813,2,right_wrist,-0.1371,0.0293,-0.9614,1.12,-2.66,-0.49,0.06230102360369057,0.7182292122009407,0.6917633711305068,-0.04157907600350424,178.14828258341038,8.39065910825705,87.71350457555863,7
1767130688.867,1,left_wrist,-0.0932,0.0937,-0.9775,1.54,-4.97,-0.21,0.021385448886979113,0.8963285067588006,-0.4378574598840295,-0.06647341853212202,174.43129905316565,5.764305671361399,-52.351699376365545,7
1767130688.867,2,right_wrist,-0.1371,0.0293,-0.9614,1.12,-2.66,-0.49,0.06230102360369057,0.7182292122009407,0.6917633711305068,-0.04157907600350424,178.14828258341038,8.39065910825705,87.71350457555863,7
1767130688.922,1,left_wrist,-0.0932,0.0937,-0.9775,1.54,-4.97,-0.21,0.021385448886979113,0.8963285067588006,-0.4378574598840295,-0.06647341853212202,174.43129905316565,5.764305671361399,-52.351699376365545,7
1767130688.922,2,right_wrist,-0.1371,0.0293,-0.9614,1.12,-2.66,-0.49,0.06230102360369057,0.7182292122009407,0.6917633711305068,-0.04157907600350424,178.14828258341038,8.39065910825705,87.71350457555863,7
1767130688.977,1,left_wrist,-0.0932,0.0937,-0.9775,1.54,-4.97,-0.21,0.021385448886979113,0.8963285067588006,-0.4378574598840295,-0.06647341853212202,174.43129905316565,5.764305671361399,-52.351699376365545,7
1767130688.977,2,right_wrist,-0.1371,0.0293,-0.9614,1.12,-2.66,-0.49,0.06230102360369057,0.7182292122009407,0.6917633711305068,-0.04157907600350424,178.14828258341038,8.39065910825705,87.71350457555863,7
1767130689.028,1,left_wrist,-0.0932,0.0937,-0.9775,1.54,-4.97,-0.21,0.021385448886979113,0.8963285067588006,-0.4378574598840295,-0.06647341853212202,174.43129905316565,5.764305671361399,-52.351699376365545,7
1767130689.028,2,right_wrist,-0.1371,0.0293,-0.9614,1.12,-2.66,-0.49,0.06230102360369057,0.7182292122009407,0.6917633711305068,-0.04157907600350424,178.14828258341038,8.39065910825705,87.71350457555863,7
1767130689.083,1,left_wrist,-0.0932,0.0937,-0.9775,1.54,-4.97,-0.21,0.021385448886979113,0.8963285067588006,-0.4378574598840295,-0.06647341853212202,174.43129905316565,5.764305671361399,-52.351699376365545,7
1767130689.083,2,right_wrist,-0.1371,0.0293,-0.9614,1.12,-2.66,-0.49,0.06230102360369057,0.7182292122009407,0.6917633711305068,-0.04157907600350424,178.14828258341038,8.39065910825705,87.71350457555863,7
1767130689.148,1,left_wrist,-0.0932,0.0937,-0.9775,1.54,-4.97,-0.21,0.021385448886979113,0.8963285067588006,-0.4378574598840295,-0.06647341853212202,174.43129905316565,5.764305671361399,-52.351699376365545,7
1767130689.148,2,right_wrist,-0.1371,0.0293,-0.9614,1.12,-2.66,-0.49,0.06230102360369057,0.7182292122009407,0.6917633711305068,-0.04157907600350424,178.14828258341038,8.39065910825705,87.71350457555863,7
1767130689.204,1,left_wrist,-0.0932,0.0937,-0.9775,1.54,-4.97,-0.21,0.021385448886979113,0.8963285067588006,-0.4378574598840295,-0.06647341853212202,174.43129905316565,5.764305671361399,-52.351699376365545,7
1767130689.204,2,right_wrist,-0.1371,0.0293,-0.9614,1.12,-2.66,-0.49,0.06230102360369057,0.7182292122009407,0.6917633711305068,-0.04157907600350424,178.14828258341038,8.39065910825705,87.71350457555863,7
1767130689.261,1,left_wrist,-0.0932,0.0937,-0.9775,1.54,-4.97,-0.21,0.021385448886979113,0.8963285067588006,-0.4378574598840295,-0.06647341853212202,174.43129905316565,5.764305671361399,-52.351699376365545,7
1767130689.261,2,right_wrist,-0.1371,0.0293,-0.9614,1.12,-2.66,-0.49,0.06230102360369057,0.7182292122009407,0.6917633711305068,-0.04157907600350424,178.14828258341038,8.39065910825705,87.71350457555863,7
1767130689.317,1,left_wrist,-0.0932,0.0937,-0.9775,1.54,-4.97,-0.21,0.021385448886979113,0.8963285067588006,-0.4378574598840295,-0.06647341853212202,174.43129905316565,5.764305671361399,-52.351699376365545,7
1767130689.317,2,right_wrist,-0.1371,0.0293,-0.9614,1.12,-2.66,-0.49,0.06230102360369057,0.7182292122009407,0.6917633711305068,-0.04157907600350424,178.14828258341038,8.39065910825705,87.71350457555863,7
1767130689.384,1,left_wrist,-0.0932,0.0937,-0.9775,1.54,-4.97,-0.21,0.021385448886979113,0.8963285067588006,-0.4378574598840295,-0.06647341853212202,174.43129905316565,5.764305671361399,-52.351699376365545,7
1767130689.384,2,right_wrist,-0.1371,0.0293,-0.9614,1.12,-2.66,-0.49,0.06230102360369057,0.7182292122009407,0.6917633711305068,-0.04157907600350424,178.14828258341038,8.39065910825705,87.71350457555863,7
1767130689.442,1,left_wrist,-0.0932,0.0937,-0.9775,1.54,-4.97,-0.21,0.021385448886979113,0.8963285067588006,-0.4378574598840295,-0.06647341853212202,174.43129905316565,5.764305671361399,-52.351699376365545,7
1767130689.442,2,right_wrist,-0.1371,0.0293,-0.9614,1.12,-2.66,-0.49,0.06230102360369057,0.7182292122009407,0.6917633711305068,-0.04157907600350424,178.14828258341038,8.39065910825705,87.71350457555863,7
1767130689.498,1,left_wrist,-0.0932,0.0937,-0.9775,1.54,-4.97,-0.21,0.021385448886979113,0.8963285067588006,-0.4378574598840295,-0.06647341853212202,174.43129905316565,5.764305671361399,-52.351699376365545,7
1767130689.498,2,right_wrist,-0.1371,0.0293,-0.9614,1.12,-2.66,-0.49,0.06230102360369057,0.7182292122009407,0.6917633711305068,-0.04157907600350424,178.14828258341038,8.39065910825705,87.71350457555863,7
1767130689.556,1,left_wrist,-0.0932,0.0937,-0.9775,1.54,-4.97,-0.21,0.021385448886979113,0.8963285067588006,-0.4378574598840295,-0.06647341853212202,174.43129905316565,5.764305671361399,-52.351699376365545,7
1767130689.556,2,right_wrist,-0.1371,0.0293,-0.9614,1.12,-2.66,-0.49,0.06230102360369057,0.7182292122009407,0.6917633711305068,-0.04157907600350424,178.14828258341038,8.39065910825705,87.71350457555863,7
1767130689.621,1,left_wrist,-0.0932,0.0937,-0.9775,1.54,-4.97,-0.21,0.021385448886979113,0.8963285067588006,-0.4378574598840295,-0.06647341853212202,174.43129905316565,5.764305671361399,-52.351699376365545,7
1767130689.621,2,right_wrist,-0.1371,0.0293,-0.9614,1.12,-2.66,-0.49,0.06230102360369057,0.7182292122009407,0.6917633711305068,-0.04157907600350424,178.14828258341038,8.39065910825705,87.71350457555863,7
1767130689.685,1,left_wrist,-0.0932,0.0937,-0.9775,1.54,-4.97,-0.21,0.021385448886979113,0.8963285067588006,-0.4378574598840295,-0.06647341853212202,174.43129905316565,5.764305671361399,-52.351699376365545,7
1767130689.685,2,right_wrist,-0.1371,0.0293,-0.9614,1.12,-2.66,-0.49,0.06230102360369057,0.7182292122009407,0.6917633711305068,-0.04157907600350424,178.14828258341038,8.39065910825705,87.71350457555863,7
1767130689.738,1,left_wrist,-0.0932,0.0937,-0.9775,1.54,-4.97,-0.21,0.021385448886979113,0.8963285067588006,-0.4378574598840295,-0.06647341853212202,174.43129905316565,5.764305671361399,-52.351699376365545,7
1767130689.738,2,right_wrist,-0.1371,0.0293,-0.9614,1.12,-2.66,-0.49,0.06230102360369057,0.7182292122009407,0.6917633711305068,-0.04157907600350424,178.14828258341038,8.39065910825705,87.71350457555863,7
1767130689.797,1,left_wrist,-0.0932,0.0937,-0.9775,1.54,-4.97,-0.21,0.021385448886979113,0.8963285067588006,-0.4378574598840295,-0.06647341853212202,174.43129905316565,5.764305671361399,-52.351699376365545,7
1767130689.797,2,right_wrist,-0.1371,0.0293,-0.9614,1.12,-2.66,-0.49,0.06230102360369057,0.7182292122009407,0.6917633711305068,-0.04157907600350424,178.14828258341038,8.39065910825705,87.71350457555863,7
1767130689.847,1,left_wrist,-0.0932,0.0937,-0.9775,1.54,-4.97,-0.21,0.021385448886979113,0.8963285067588006,-0.4378574598840295,-0.06647341853212202,174.43129905316565,5.764305671361399,-52.351699376365545,8
1767130689.847,2,right_wrist,-0.1371,0.0293,-0.9614,1.12,-2.66,-0.49,0.06230102360369057,0.7182292122009407,0.6917633711305068,-0.04157907600350424,178.14828258341038,8.39065910825705,87.71350457555863,8
1767130692.193,1,left_wrist,-0.0932,0.0937,-0.9775,1.54,-4.97,-0.21,0.021385448886979113,0.8963285067588006,-0.4378574598840295,-0.06647341853212202,174.43129905316565,5.764305671361399,-52.351699376365545,9
1767130692.193,2,right_wrist,-0.1371,0.0293,-0.9614,1.12,-2.66,-0.49,0.06230102360369057,0.7182292122009407,0.6917633711305068,-0.04157907600350424,178.14828258341038,8.39065910825705,87.71350457555863,9
1767130694.928,1,left_wrist,-0.0932,0.0937,-0.9775,1.54,-4.97,-0.21,0.021385448886979113,0.8963285067588006,-0.4378574598840295,-0.06647341853212202,174.43129905316565,5.764305671361399,-52.351699376365545,10
1767130694.928,2,right_wrist,-0.1371,0.0293,-0.9614,1.12,-2.66,-0.49,0.06230102360369057,0.7182292122009407,0.6917633711305068,-0.04157907600350424,178.14828258341038,8.39065910825705,87.71350457555863,10
1767130697.728,1,left_wrist,-0.0932,0.0937,-0.9775,1.54,-4.97,-0.21,0.021385448886979113,0.8963285067588006,-0.4378574598840295,-0.06647341853212202,174.43129905316565,5.764305671361399,-52.351699376365545,11
1767130697.728,2,right_wrist,-0.1371,0.0293,-0.9614,1.12,-2.66,-0.49,0.06230102360369057,0.7182292122009407,0.6917633711305068,-0.04157907600350424,178.14828258341038,8.39065910825705,87.71350457555863,11
1767130700.492,1,left_wrist,-0.0932,0.0937,-0.9775,1.54,-4.97,-0.21,0.021385448886979113,0.8963285067588006,-0.4378574598840295,-0.06647341853212202,174.43129905316565,5.764305671361399,-52.351699376365545,12
1767130700.492,2,right_wrist,-0.1371,0.0293,-0.9614,1.12,-2.66,-0.49,0.06230102360369057,0.7182292122009407,0.6917633711305068,-0.04157907600350424,178.14828258341038,8.39065910825705,87.71350457555863,12
1767130714.226,1,left_wrist,-0.0932,0.0937,-0.9775,1.54,-4.97,-0.21,0.021385448886979113,0.8963285067588006,-0.4378574598840295,-0.06647341853212202,174.43129905316565,5.764305671361399,-52.351699376365545,13
1767130714.226,2,right_wrist,-0.1371,0.0293,-0.9614,1.12,-2.66,-0.49,0.06230102360369057,0.7182292122009407,0.6917633711305068,-0.04157907600350424,178.14828258341038,8.39065910825705,87.71350457555863,13
1767130714.286,1,left_wrist,-0.0932,0.0937,-0.9775,1.54,-4.97,-0.21,0.021385448886979113,0.8963285067588006,-0.4378574598840295,-0.06647341853212202,174.43129905316565,5.764305671361399,-52.351699376365545,13
1767130714.286,2,right_wrist,-0.1371,0.0293,-0.9614,1.12,-2.66,-0.49,0.06230102360369057,0.7182292122009407,0.6917633711305068,-0.04157907600350424,178.14828258341038,8.39065910825705,87.71350457555863,13
1767130714.34,1,left_wrist,-0.0932,0.0937,-0.9775,1.54,-4.97,-0.21,0.021385448886979113,0.8963285067588006,-0.4378574598840295,-0.06647341853212202,174.43129905316565,5.764305671361399,-52.351699376365545,13
1767130714.34,2,right_wrist,-0.1371,0.0293,-0.9614,1.12,-2.66,-0.49,0.06230102360369057,0.7182292122009407,0.6917633711305068,-0.04157907600350424,178.14828258341038,8.39065910825705,87.71350457555863,13
1767130714.404,1,left_wrist,-0.0932,0.0937,-0.9775,1.54,-4.97,-0.21,0.021385448886979113,0.8963285067588006,-0.4378574598840295,-0.06647341853212202,174.43129905316565,5.764305671361399,-52.351699376365545,13
1767130714.404,2,right_wrist,-0.1371,0.0293,-0.9614,1.12,-2.66,-0.49,0.06230102360369057,0.7182292122009407,0.6917633711305068,-0.04157907600350424,178.14828258341038,8.39065910825705,87.71350457555863,13
1767130714.467,1,left_wrist,-0.0932,0.0937,-0.9775,1.54,-4.97,-0.21,0.021385448886979113,0.8963285067588006,-0.4378574598840295,-0.06647341853212202,174.43129905316565,5.764305671361399,-52.351699376365545,13
1767130714.467,2,right_wrist,-0.1371,0.0293,-0.9614,1.12,-2.66,-0.49,0.06230102360369057,0.7182292122009407,0.6917633711305068,-0.04157907600350424,178.14828258341038,8.39065910825705,87.71350457555863,13
1767130714.521,1,left_wrist,-0.0932,0.0937,-0.9775,1.54,-4.97,-0.21,0.021385448886979113,0.8963285067588006,-0.4378574598840295,-0.06647341853212202,174.43129905316565,5.764305671361399,-52.351699376365545,13
1767130714.521,2,right_wrist,-0.1371,0.0293,-0.9614,1.12,-2.66,-0.49,0.06230102360369057,0.7182292122009407,0.6917633711305068,-0.04157907600350424,178.14828258341038,8.39065910825705,87.71350457555863,13
1767130714.588,1,left_wrist,-0.0932,0.0937,-0.9775,1.54,-4.97,-0.21,0.021385448886979113,0.8963285067588006,-0.4378574598840295,-0.06647341853212202,174.43129905316565,5.764305671361399,-52.351699376365545,13
1767130714.588,2,right_wrist,-0.1371,0.0293,-0.9614,1.12,-2.66,-0.49,0.06230102360369057,0.7182292122009407,0.6917633711305068,-0.04157907600350424,178.14828258341038,8.39065910825705,87.71350457555863,13
1767130714.638,1,left_wrist,-0.0932,0.0937,-0.9775,1.54,-4.97,-0.21,0.021385448886979113,0.8963285067588006,-0.4378574598840295,-0.06647341853212202,174.43129905316565,5.764305671361399,-52.351699376365545,13
1767130714.638,2,right_wrist,-0.1371,0.0293,-0.9614,1.12,-2.66,-0.49,0.06230102360369057,0.7182292122009407,0.6917633711305068,-0.04157907600350424,178.14828258341038,8.39065910825705,87.71350457555863,13
1767130714.691,1,left_wrist,-0.0932,0.0937,-0.9775,1.54,-4.97,-0.21,0.021385448886979113,0.8963285067588006,-0.4378574598840295,-0.06647341853212202,174.43129905316565,5.764305671361399,-52.351699376365545,13
1767130714.691,2,right_wrist,-0.1371,0.0293,-0.9614,1.12,-2.66,-0.49,0.06230102360369057,0.7182292122009407,0.6917633711305068,-0.04157907600350424,178.14828258341038,8.39065910825705,87.71350457555863,13
1767130714.75,1,left_wrist,-0.0932,0.0937,-0.9775,1.54,-4.97,-0.21,0.021385448886979113,0.8963285067588006,-0.4378574598840295,-0.06647341853212202,174.43129905316565,5.764305671361399,-52.351699376365545,13
1767130714.75,2,right_wrist,-0.1371,0.0293,-0.9614,1.12,-2.66,-0.49,0.06230102360369057,0.7182292122009407,0.6917633711305068,-0.04157907600350424,178.14828258341038,8.39065910825705,87.71350457555863,13
1767130714.805,1,left_wrist,-0.0932,0.0937,-0.9775,1.54,-4.97,-0.21,0.021385448886979113,0.8963285067588006,-0.4378574598840295,-0.06647341853212202,174.43129905316565,5.764305671361399,-52.351699376365545,13
1767130714.805,2,right_wrist,-0.1371,0.0293,-0.9614,1.12,-2.66,-0.49,0.06230102360369057,0.7182292122009407,0.6917633711305068,-0.04157907600350424,178.14828258341038,8.39065910825705,87.71350457555863,13
1767130714.862,1,left_wrist,-0.0932,0.0937,-0.9775,1.54,-4.97,-0.21,0.021385448886979113,0.8963285067588006,-0.4378574598840295,-0.06647341853212202,174.43129905316565,5.764305671361399,-52.351699376365545,13
1767130714.862,2,right_wrist,-0.1371,0.0293,-0.9614,1.12,-2.66,-0.49,0.06230102360369057,0.7182292122009407,0.6917633711305068,-0.04157907600350424,178.14828258341038,8.39065910825705,87.71350457555863,13
1767130714.914,1,left_wrist,-0.0932,0.0937,-0.9775,1.54,-4.97,-0.21,0.021385448886979113,0.8963285067588006,-0.4378574598840295,-0.06647341853212202,174.43129905316565,5.764305671361399,-52.351699376365545,13
1767130714.914,2,right_wrist,-0.1371,0.0293,-0.9614,1.12,-2.66,-0.49,0.06230102360369057,0.7182292122009407,0.6917633711305068,-0.04157907600350424,178.14828258341038,8.39065910825705,87.71350457555863,13
1767130714.967,1,left_wrist,-0.0932,0.0937,-0.9775,1.54,-4.97,-0.21,0.021385448886979113,0.8963285067588006,-0.4378574598840295,-0.06647341853212202,174.43129905316565,5.764305671361399,-52.351699376365545,13
1767130714.967,2,right_wrist,-0.1371,0.0293,-0.9614,1.12,-2.66,-0.49,0.06230102360369057,0.7182292122009407,0.6917633711305068,-0.04157907600350424,178.14828258341038,8.39065910825705,87.71350457555863,13
1767130715.031,1,left_wrist,-0.0932,0.0937,-0.9775,1.54,-4.97,-0.21,0.021385448886979113,0.8963285067588006,-0.4378574598840295,-0.06647341853212202,174.43129905316565,5.764305671361399,-52.351699376365545,13
1767130715.031,2,right_wrist,-0.1371,0.0293,-0.9614,1.12,-2.66,-0.49,0.06230102360369057,0.7182292122009407,0.6917633711305068,-0.04157907600350424,178.14828258341038,8.39065910825705,87.71350457555863,13
1767130715.098,1,left_wrist,-0.0932,0.0937,-0.9775,1.54,-4.97,-0.21,0.021385448886979113,0.8963285067588006,-0.4378574598840295,-0.06647341853212202,174.43129905316565,5.764305671361399,-52.351699376365545,13
1767130715.098,2,right_wrist,-0.1371,0.0293,-0.9614,1.12,-2.66,-0.49,0.06230102360369057,0.7182292122009407,0.6917633711305068,-0.04157907600350424,178.14828258341038,8.39065910825705,87.71350457555863,13
1767130715.148,1,left_wrist,-0.0932,0.0937,-0.9775,1.54,-4.97,-0.21,0.021385448886979113,0.8963285067588006,-0.4378574598840295,-0.06647341853212202,174.43129905316565,5.764305671361399,-52.351699376365545,13
1767130715.148,2,right_wrist,-0.1371,0.0293,-0.9614,1.12,-2.66,-0.49,0.06230102360369057,0.7182292122009407,0.6917633711305068,-0.04157907600350424,178.14828258341038,8.39065910825705,87.71350457555863,13
1767130715.204,1,left_wrist,-0.0932,0.0937,-0.9775,1.54,-4.97,-0.21,0.021385448886979113,0.8963285067588006,-0.4378574598840295,-0.06647341853212202,174.43129905316565,5.764305671361399,-52.351699376365545,13
1767130715.204,2,right_wrist,-0.1371,0.0293,-0.9614,1.12,-2.66,-0.49,0.06230102360369057,0.7182292122009407,0.6917633711305068,-0.04157907600350424,178.14828258341038,8.39065910825705,87.71350457555863,13
1767130715.261,1,left_wrist,-0.0932,0.0937,-0.9775,1.54,-4.97,-0.21,0.021385448886979113,0.8963285067588006,-0.4378574598840295,-0.06647341853212202,174.43129905316565,5.764305671361399,-52.351699376365545,13
1767130715.261,2,right_wrist,-0.1371,0.0293,-0.9614,1.12,-2.66,-0.49,0.06230102360369057,0.7182292122009407,0.6917633711305068,-0.04157907600350424,178.14828258341038,8.39065910825705,87.71350457555863,13
1767130715.316,1,left_wrist,-0.0932,0.0937,-0.9775,1.54,-4.97,-0.21,0.021385448886979113,0.8963285067588006,-0.4378574598840295,-0.06647341853212202,174.43129905316565,5.764305671361399,-52.351699376365545,13
1767130715.316,2,right_wrist,-0.1371,0.0293,-0.9614,1.12,-2.66,-0.49,0.06230102360369057,0.7182292122009407,0.6917633711305068,-0.04157907600350424,178.14828258341038,8.39065910825705,87.71350457555863,13
1767130715.369,1,left_wrist,-0.0932,0.0937,-0.9775,1.54,-4.97,-0.21,0.021385448886979113,0.8963285067588006,-0.4378574598840295,-0.06647341853212202,174.43129905316565,5.764305671361399,-52.351699376365545,13
1767130715.369,2,right_wrist,-0.1371,0.0293,-0.9614,1.12,-2.66,-0.49,0.06230102360369057,0.7182292122009407,0.6917633711305068,-0.04157907600350424,178.14828258341038,8.39065910825705,87.71350457555863,13
1767130715.433,1,left_wrist,-0.0932,0.0937,-0.9775,1.54,-4.97,-0.21,0.021385448886979113,0.8963285067588006,-0.4378574598840295,-0.06647341853212202,174.43129905316565,5.764305671361399,-52.351699376365545,13
1767130715.433,2,right_wrist,-0.1371,0.0293,-0.9614,1.12,-2.66,-0.49,0.06230102360369057,0.7182292122009407,0.6917633711305068,-0.04157907600350424,178.14828258341038,8.39065910825705,87.71350457555863,13
1767130715.495,1,left_wrist,-0.0932,0.0937,-0.9775,1.54,-4.97,-0.21,0.021385448886979113,0.8963285067588006,-0.4378574598840295,-0.06647341853212202,174.43129905316565,5.764305671361399,-52.351699376365545,13
1767130715.495,2,right_wrist,-0.1371,0.0293,-0.9614,1.12,-2.66,-0.49,0.06230102360369057,0.7182292122009407,0.6917633711305068,-0.04157907600350424,178.14828258341038,8.39065910825705,87.71350457555863,13
1767130715.557,1,left_wrist,-0.0932,0.0937,-0.9775,1.54,-4.97,-0.21,0.021385448886979113,0.8963285067588006,-0.4378574598840295,-0.06647341853212202,174.43129905316565,5.764305671361399,-52.351699376365545,13
1767130715.557,2,right_wrist,-0.1371,0.0293,-0.9614,1.12,-2.66,-0.49,0.06230102360369057,0.7182292122009407,0.6917633711305068,-0.04157907600350424,178.14828258341038,8.39065910825705,87.71350457555863,13
1767130715.623,1,left_wrist,-0.0932,0.0937,-0.9775,1.54,-4.97,-0.21,0.021385448886979113,0.8963285067588006,-0.4378574598840295,-0.06647341853212202,174.43129905316565,5.764305671361399,-52.351699376365545,13
1767130715.623,2,right_wrist,-0.1371,0.0293,-0.9614,1.12,-2.66,-0.49,0.06230102360369057,0.7182292122009407,0.6917633711305068,-0.04157907600350424,178.14828258341038,8.39065910825705,87.71350457555863,13
1767130715.677,1,left_wrist,-0.0932,0.0937,-0.9775,1.54,-4.97,-0.21,0.021385448886979113,0.8963285067588006,-0.4378574598840295,-0.06647341853212202,174.43129905316565,5.764305671361399,-52.351699376365545,13
1767130715.677,2,right_wrist,-0.1371,0.0293,-0.9614,1.12,-2.66,-0.49,0.06230102360369057,0.7182292122009407,0.6917633711305068,-0.04157907600350424,178.14828258341038,8.39065910825705,87.71350457555863,13
1767130715.739,1,left_wrist,-0.0932,0.0937,-0.9775,1.54,-4.97,-0.21,0.021385448886979113,0.8963285067588006,-0.4378574598840295,-0.06647341853212202,174.43129905316565,5.764305671361399,-52.351699376365545,13
1767130715.739,2,right_wrist,-0.1371,0.0293,-0.9614,1.12,-2.66,-0.49,0.06230102360369057,0.7182292122009407,0.6917633711305068,-0.04157907600350424,178.14828258341038,8.39065910825705,87.71350457555863,13
1767130715.803,1,left_wrist,-0.0932,0.0937,-0.9775,1.54,-4.97,-0.21,0.021385448886979113,0.8963285067588006,-0.4378574598840295,-0.06647341853212202,174.43129905316565,5.764305671361399,-52.351699376365545,13
1767130715.803,2,right_wrist,-0.1371,0.0293,-0.9614,1.12,-2.66,-0.49,0.06230102360369057,0.7182292122009407,0.6917633711305068,-0.04157907600350424,178.14828258341038,8.39065910825705,87.71350457555863,13
1767130715.866,1,left_wrist,-0.0932,0.0937,-0.9775,1.54,-4.97,-0.21,0.021385448886979113,0.8963285067588006,-0.4378574598840295,-0.06647341853212202,174.43129905316565,5.764305671361399,-52.351699376365545,13
1767130715.866,2,right_wrist,-0.1371,0.0293,-0.9614,1.12,-2.66,-0.49,0.06230102360369057,0.7182292122009407,0.6917633711305068,-0.04157907600350424,178.14828258341038,8.39065910825705,87.71350457555863,13
1767130715.929,1,left_wrist,-0.0932,0.0937,-0.9775,1.54,-4.97,-0.21,0.021385448886979113,0.8963285067588006,-0.4378574598840295,-0.06647341853212202,174.43129905316565,5.764305671361399,-52.351699376365545,13
1767130715.929,2,right_wrist,-0.1371,0.0293,-0.9614,1.12,-2.66,-0.49,0.06230102360369057,0.7182292122009407,0.6917633711305068,-0.04157907600350424,178.14828258341038,8.39065910825705,87.71350457555863,13
1767130715.981,1,left_wrist,-0.0932,0.0937,-0.9775,1.54,-4.97,-0.21,0.021385448886979113,0.8963285067588006,-0.4378574598840295,-0.06647341853212202,174.43129905316565,5.764305671361399,-52.351699376365545,13
1767130715.981,2,right_wrist,-0.1371,0.0293,-0.9614,1.12,-2.66,-0.49,0.06230102360369057,0.7182292122009407,0.6917633711305068,-0.04157907600350424,178.14828258341038,8.39065910825705,87.71350457555863,13
1767130716.041,1,left_wrist,-0.0932,0.0937,-0.9775,1.54,-4.97,-0.21,0.021385448886979113,0.8963285067588006,-0.4378574598840295,-0.06647341853212202,174.43129905316565,5.764305671361399,-52.351699376365545,13
1767130716.041,2,right_wrist,-0.1371,0.0293,-0.9614,1.12,-2.66,-0.49,0.06230102360369057,0.7182292122009407,0.6917633711305068,-0.04157907600350424,178.14828258341038,8.39065910825705,87.71350457555863,13
1767130716.095,1,left_wrist,-0.0932,0.0937,-0.9775,1.54,-4.97,-0.21,0.021385448886979113,0.8963285067588006,-0.4378574598840295,-0.06647341853212202,174.43129905316565,5.764305671361399,-52.351699376365545,13
1767130716.095,2,right_wrist,-0.1371,0.0293,-0.9614,1.12,-2.66,-0.49,0.06230102360369057,0.7182292122009407,0.6917633711305068,-0.04157907600350424,178.14828258341038,8.39065910825705,87.71350457555863,13
1767130716.162,1,left_wrist,-0.0932,0.0937,-0.9775,1.54,-4.97,-0.21,0.021385448886979113,0.8963285067588006,-0.4378574598840295,-0.06647341853212202,174.43129905316565,5.764305671361399,-52.351699376365545,13
1767130716.162,2,right_wrist,-0.1371,0.0293,-0.9614,1.12,-2.66,-0.49,0.06230102360369057,0.7182292122009407,0.6917633711305068,-0.04157907600350424,178.14828258341038,8.39065910825705,87.71350457555863,13
1767130716.216,1,left_wrist,-0.0932,0.0937,-0.9775,1.54,-4.97,-0.21,0.021385448886979113,0.8963285067588006,-0.4378574598840295,-0.06647341853212202,174.43129905316565,5.764305671361399,-52.351699376365545,13
1767130716.216,2,right_wrist,-0.1371,0.0293,-0.9614,1.12,-2.66,-0.49,0.06230102360369057,0.7182292122009407,0.6917633711305068,-0.04157907600350424,178.14828258341038,8.39065910825705,87.71350457555863,13
1767130716.272,1,left_wrist,-0.0932,0.0937,-0.9775,1.54,-4.97,-0.21,0.021385448886979113,0.8963285067588006,-0.4378574598840295,-0.06647341853212202,174.43129905316565,5.764305671361399,-52.351699376365545,13
1767130716.272,2,right_wrist,-0.1371,0.0293,-0.9614,1.12,-2.66,-0.49,0.06230102360369057,0.7182292122009407,0.6917633711305068,-0.04157907600350424,178.14828258341038,8.39065910825705,87.71350457555863,13
1767130716.331,1,left_wrist,-0.0932,0.0937,-0.9775,1.54,-4.97,-0.21,0.021385448886979113,0.8963285067588006,-0.4378574598840295,-0.06647341853212202,174.43129905316565,5.764305671361399,-52.351699376365545,13
1767130716.331,2,right_wrist,-0.1371,0.0293,-0.9614,1.12,-2.66,-0.49,0.06230102360369057,0.7182292122009407,0.6917633711305068,-0.04157907600350424,178.14828258341038,8.39065910825705,87.71350457555863,13
1767130716.381,1,left_wrist,-0.0932,0.0937,-0.9775,1.54,-4.97,-0.21,0.021385448886979113,0.8963285067588006,-0.4378574598840295,-0.06647341853212202,174.43129905316565,5.764305671361399,-52.351699376365545,13
1767130716.381,2,right_wrist,-0.1371,0.0293,-0.9614,1.12,-2.66,-0.49,0.06230102360369057,0.7182292122009407,0.6917633711305068,-0.04157907600350424,178.14828258341038,8.39065910825705,87.71350457555863,13
1767130716.433,1,left_wrist,-0.0932,0.0937,-0.9775,1.54,-4.97,-0.21,0.021385448886979113,0.8963285067588006,-0.4378574598840295,-0.06647341853212202,174.43129905316565,5.764305671361399,-52.351699376365545,14
1767130716.433,2,right_wrist,-0.1371,0.0293,-0.9614,1.12,-2.66,-0.49,0.06230102360369057,0.7182292122009407,0.6917633711305068,-0.04157907600350424,178.14828258341038,8.39065910825705,87.71350457555863,14
1767130718.126,1,left_wrist,-0.0932,0.0937,-0.9775,1.54,-4.97,-0.21,0.021385448886979113,0.8963285067588006,-0.4378574598840295,-0.06647341853212202,174.43129905316565,5.764305671361399,-52.351699376365545,15
1767130718.126,2,right_wrist,-0.1371,0.0293,-0.9614,1.12,-2.66,-0.49,0.06230102360369057,0.7182292122009407,0.6917633711305068,-0.04157907600350424,178.14828258341038,8.39065910825705,87.71350457555863,15
1767130720.952,1,left_wrist,-0.0932,0.0937,-0.9775,1.54,-4.97,-0.21,0.021385448886979113,0.8963285067588006,-0.4378574598840295,-0.06647341853212202,174.43129905316565,5.764305671361399,-52.351699376365545,16
1767130720.952,2,right_wrist,-0.1371,0.0293,-0.9614,1.12,-2.66,-0.49,0.06230102360369057,0.7182292122009407,0.6917633711305068,-0.04157907600350424,178.14828258341038,8.39065910825705,87.71350457555863,16
1767130724.394,1,left_wrist,-0.0932,0.0937,-0.9775,1.54,-4.97,-0.21,0.021385448886979113,0.8963285067588006,-0.4378574598840295,-0.06647341853212202,174.43129905316565,5.764305671361399,-52.351699376365545,17
1767130724.394,2,right_wrist,-0.1371,0.0293,-0.9614,1.12,-2.66,-0.49,0.06230102360369057,0.7182292122009407,0.6917633711305068,-0.04157907600350424,178.14828258341038,8.39065910825705,87.71350457555863,17
1767130726.63,1,left_wrist,-0.0932,0.0937,-0.9775,1.54,-4.97,-0.21,0.021385448886979113,0.8963285067588006,-0.4378574598840295,-0.06647341853212202,174.43129905316565,5.764305671361399,-52.351699376365545,18
1767130726.63,2,right_wrist,-0.1371,0.0293,-0.9614,1.12,-2.66,-0.49,0.06230102360369057,0.7182292122009407,0.6917633711305068,-0.04157907600350424,178.14828258341038,8.39065910825705,87.71350457555863,18
1767130662.445,1,left_wrist,-0.0932,0.0937,-0.9775,1.54,-4.97,-0.21,0.021385448886979113,0.8963285067588006,-0.4378574598840295,-0.06647341853212202,174.43129905316565,5.764305671361399,-52.351699376365545,0
1767130662.445,2,right_wrist,-0.1371,0.0293,-0.9614,1.12,-2.66,-0.49,0.06230102360369057,0.7182292122009407,0.6917633711305068,-0.04157907600350424,178.14828258341038,8.39065910825705,87.71350457555863,0
1767130662.509,1,left_wrist,-0.0932,0.0937,-0.9775,1.54,-4.97,-0.21,0.021385448886979113,0.8963285067588006,-0.4378574598840295,-0.06647341853212202,174.43129905316565,5.764305671361399,-52.351699376365545,0
1767130662.509,2,right_wrist,-0.1371,0.0293,-0.9614,1.12,-2.66,-0.49,0.06230102360369057,0.7182292122009407,0.6917633711305068,-0.04157907600350424,178.14828258341038,8.39065910825705,87.71350457555863,0
1767130662.584,1,left_wrist,-0.0932,0.0937,-0.9775,1.54,-4.97,-0.21,0.021385448886979113,0.8963285067588006,-0.4378574598840295,-0.06647341853212202,174.43129905316565,5.764305671361399,-52.351699376365545,0
1767130662.584,2,right_wrist,-0.1371,0.0293,-0.9614,1.12,-2.66,-0.49,0.06230102360369057,0.7182292122009407,0.6917633711305068,-0.04157907600350424,178.14828258341038,8.39065910825705,87.71350457555863,0
1767130662.648,1,left_wrist,-0.0932,0.0937,-0.9775,1.54,-4.97,-0.21,0.021385448886979113,0.8963285067588006,-0.4378574598840295,-0.06647341853212202,174.43129905316565,5.764305671361399,-52.351699376365545,0
1767130662.648,2,right_wrist,-0.1371,0.0293,-0.9614,1.12,-2.66,-0.49,0.06230102360369057,0.7182292122009407,0.6917633711305068,-0.04157907600350424,178.14828258341038,8.39065910825705,87.71350457555863,0
1767130662.712,1,left_wrist,-0.0932,0.0937,-0.9775,1.54,-4.97,-0.21,0.021385448886979113,0.8963285067588006,-0.4378574598840295,-0.06647341853212202,174.43129905316565,5.764305671361399,-52.351699376365545,0
1767130662.712,2,right_wrist,-0.1371,0.0293,-0.9614,1.12,-2.66,-0.49,0.06230102360369057,0.7182292122009407,0.6917633711305068,-0.04157907600350424,178.14828258341038,8.39065910825705,87.71350457555863,0
1767130662.765,1,left_wrist,-0.0932,0.0937,-0.9775,1.54,-4.97,-0.21,0.021385448886979113,0.8963285067588006,-0.4378574598840295,-0.06647341853212202,174.43129905316565,5.764305671361399,-52.351699376365545,0
1767130662.765,2,right_wrist,-0.1371,0.0293,-0.9614,1.12,-2.66,-0.49,0.06230102360369057,0.7182292122009407,0.6917633711305068,-0.04157907600350424,178.14828258341038,8.39065910825705,87.71350457555863,0
1767130662.82,1,left_wrist,-0.0932,0.0937,-0.9775,1.54,-4.97,-0.21,0.021385448886979113,0.8963285067588006,-0.4378574598840295,-0.06647341853212202,174.43129905316565,5.764305671361399,-52.351699376365545,0
1767130662.82,2,right_wrist,-0.1371,0.0293,-0.9614,1.12,-2.66,-0.49,0.06230102360369057,0.7182292122009407,0.6917633711305068,-0.04157907600350424,178.14828258341038,8.39065910825705,87.71350457555863,0
1767130662.877,1,left_wrist,-0.0932,0.0937,-0.9775,1.54,-4.97,-0.21,0.021385448886979113,0.8963285067588006,-0.4378574598840295,-0.06647341853212202,174.43129905316565,5.764305671361399,-52.351699376365545,0
1767130662.877,2,right_wrist,-0.1371,0.0293,-0.9614,1.12,-2.66,-0.49,0.06230102360369057,0.7182292122009407,0.6917633711305068,-0.04157907600350424,178.14828258341038,8.39065910825705,87.71350457555863,0
1767130662.928,1,left_wrist,-0.0932,0.0937,-0.9775,1.54,-4.97,-0.21,0.021385448886979113,0.8963285067588006,-0.4378574598840295,-0.06647341853212202,174.43129905316565,5.764305671361399,-52.351699376365545,0
1767130662.928,2,right_wrist,-0.1371,0.0293,-0.9614,1.12,-2.66,-0.49,0.06230102360369057,0.7182292122009407,0.6917633711305068,-0.04157907600350424,178.14828258341038,8.39065910825705,87.71350457555863,0
1767130662.984,1,left_wrist,-0.0932,0.0937,-0.9775,1.54,-4.97,-0.21,0.021385448886979113,0.8963285067588006,-0.4378574598840295,-0.06647341853212202,174.43129905316565,5.764305671361399,-52.351699376365545,0
1767130662.984,2,right_wrist,-0.1371,0.0293,-0.9614,1.12,-2.66,-0.49,0.06230102360369057,0.7182292122009407,0.6917633711305068,-0.04157907600350424,178.14828258341038,8.39065910825705,87.71350457555863,0
1767130663.053,1,left_wrist,-0.0932,0.0937,-0.9775,1.54,-4.97,-0.21,0.021385448886979113,0.8963285067588006,-0.4378574598840295,-0.06647341853212202,174.43129905316565,5.764305671361399,-52.351699376365545,0
1767130663.053,2,right_wrist,-0.1371,0.0293,-0.9614,1.12,-2.66,-0.49,0.06230102360369057,0.7182292122009407,0.6917633711305068,-0.04157907600350424,178.14828258341038,8.39065910825705,87.71350457555863,0
1767130663.104,1,left_wrist,-0.0932,0.0937,-0.9775,1.54,-4.97,-0.21,0.021385448886979113,0.8963285067588006,-0.4378574598840295,-0.06647341853212202,174.43129905316565,5.764305671361399,-52.351699376365545,0
1767130663.104,2,right_wrist,-0.1371,0.0293,-0.9614,1.12,-2.66,-0.49,0.06230102360369057,0.7182292122009407,0.6917633711305068,-0.04157907600350424,178.14828258341038,8.39065910825705,87.71350457555863,0
1767130663.161,1,left_wrist,-0.0932,0.0937,-0.9775,1.54,-4.97,-0.21,0.021385448886979113,0.8963285067588006,-0.4378574598840295,-0.06647341853212202,174.43129905316565,5.764305671361399,-52.351699376365545,0
1767130663.161,2,right_wrist,-0.1371,0.0293,-0.9614,1.12,-2.66,-0.49,0.06230102360369057,0.7182292122009407,0.6917633711305068,-0.04157907600350424,178.14828258341038,8.39065910825705,87.71350457555863,0
1767130663.214,1,left_wrist,-0.0932,0.0937,-0.9775,1.54,-4.97,-0.21,0.021385448886979113,0.8963285067588006,-0.4378574598840295,-0.06647341853212202,174.43129905316565,5.764305671361399,-52.351699376365545,0
1767130663.214,2,right_wrist,-0.1371,0.0293,-0.9614,1.12,-2.66,-0.49,0.06230102360369057,0.7182292122009407,0.6917633711305068,-0.04157907600350424,178.14828258341038,8.39065910825705,87.71350457555863,0
1767130663.284,1,left_wrist,-0.0932,0.0937,-0.9775,1.54,-4.97,-0.21,0.021385448886979113,0.8963285067588006,-0.4378574598840295,-0.06647341853212202,174.43129905316565,5.764305671361399,-52.351699376365545,1
1767130663.284,2,right_wrist,-0.1371,0.0293,-0.9614,1.12,-2.66,-0.49,0.06230102360369057,0.7182292122009407,0.6917633711305068,-0.04157907600350424,178.14828258341038,8.39065910825705,87.71350457555863,1
1767130663.339,1,left_wrist,-0.0932,0.0937,-0.9775,1.54,-4.97,-0.21,0.021385448886979113,0.8963285067588006,-0.4378574598840295,-0.06647341853212202,174.43129905316565,5.764305671361399,-52.351699376365545,1
1767130663.339,2,right_wrist,-0.1371,0.0293,-0.9614,1.12,-2.66,-0.49,0.06230102360369057,0.7182292122009407,0.6917633711305068,-0.04157907600350424,178.14828258341038,8.39065910825705,87.71350457555863,1
1767130663.4,1,left_wrist,-0.0932,0.0937,-0.9775,1.54,-4.97,-0.21,0.021385448886979113,0.8963285067588006,-0.4378574598840295,-0.06647341853212202,174.43129905316565,5.764305671361399,-52.351699376365545,1
1767130663.4,2,right_wrist,-0.1371,0.0293,-0.9614,1.12,-2.66,-0.49,0.06230102360369057,0.7182292122009407,0.6917633711305068,-0.04157907600350424,178.14828258341038,8.39065910825705,87.71350457555863,1
1767130663.464,1,left_wrist,-0.0932,0.0937,-0.9775,1.54,-4.97,-0.21,0.021385448886979113,0.8963285067588006,-0.4378574598840295,-0.06647341853212202,174.43129905316565,5.764305671361399,-52.351699376365545,1
1767130663.464,2,right_wrist,-0.1371,0.0293,-0.9614,1.12,-2.66,-0.49,0.06230102360369057,0.7182292122009407,0.6917633711305068,-0.04157907600350424,178.14828258341038,8.39065910825705,87.71350457555863,1
1767130663.519,1,left_wrist,-0.0932,0.0937,-0.9775,1.54,-4.97,-0.21,0.021385448886979113,0.8963285067588006,-0.4378574598840295,-0.06647341853212202,174.43129905316565,5.764305671361399,-52.351699376365545,1
1767130663.519,2,right_wrist,-0.1371,0.0293,-0.9614,1.12,-2.66,-0.49,0.06230102360369057,0.7182292122009407,0.6917633711305068,-0.04157907600350424,178.14828258341038,8.39065910825705,87.71350457555863,1
1767130663.581,1,left_wrist,-0.0932,0.0937,-0.9775,1.54,-4.97,-0.21,0.021385448886979113,0.8963285067588006,-0.4378574598840295,-0.06647341853212202,174.43129905316565,5.764305671361399,-52.351699376365545,1
1767130663.581,2,right_wrist,-0.1371,0.0293,-0.9614,1.12,-2.66,-0.49,0.06230102360369057,0.7182292122009407,0.6917633711305068,-0.04157907600350424,178.14828258341038,8.39065910825705,87.71350457555863,1
1767130663.645,1,left_wrist,-0.0932,0.0937,-0.9775,1.54,-4.97,-0.21,0.021385448886979113,0.8963285067588006,-0.4378574598840295,-0.06647341853212202,174.43129905316565,5.764305671361399,-52.351699376365545,1
1767130663.645,2,right_wrist,-0.1371,0.0293,-0.9614,1.12,-2.66,-0.49,0.06230102360369057,0.7182292122009407,0.6917633711305068,-0.04157907600350424,178.14828258341038,8.39065910825705,87.71350457555863,1
1767130663.697,1,left_wrist,-0.0932,0.0937,-0.9775,1.54,-4.97,-0.21,0.021385448886979113,0.8963285067588006,-0.4378574598840295,-0.06647341853212202,174.43129905316565,5.764305671361399,-52.351699376365545,1
1767130663.697,2,right_wrist,-0.1371,0.0293,-0.9614,1.12,-2.66,-0.49,0.06230102360369057,0.7182292122009407,0.6917633711305068,-0.04157907600350424,178.14828258341038,8.39065910825705,87.71350457555863,1
1767130663.757,1,left_wrist,-0.0932,0.0937,-0.9775,1.54,-4.97,-0.21,0.021385448886979113,0.8963285067588006,-0.4378574598840295,-0.06647341853212202,174.43129905316565,5.764305671361399,-52.351699376365545,1
1767130663.757,2,right_wrist,-0.1371,0.0293,-0.9614,1.12,-2.66,-0.49,0.06230102360369057,0.7182292122009407,0.6917633711305068,-0.04157907600350424,178.14828258341038,8.39065910825705,87.71350457555863,1
1767130663.813,1,left_wrist,-0.0932,0.0937,-0.9775,1.54,-4.97,-0.21,0.021385448886979113,0.8963285067588006,-0.4378574598840295,-0.06647341853212202,174.43129905316565,5.764305671361399,-52.351699376365545,1
1767130663.813,2,right_wrist,-0.1371,0.0293,-0.9614,1.12,-2.66,-0.49,0.06230102360369057,0.7182292122009407,0.6917633711305068,-0.04157907600350424,178.14828258341038,8.39065910825705,87.71350457555863,1
1767130663.879,1,left_wrist,-0.0932,0.0937,-0.9775,1.54,-4.97,-0.21,0.021385448886979113,0.8963285067588006,-0.4378574598840295,-0.06647341853212202,174.43129905316565,5.764305671361399,-52.351699376365545,1
1767130663.879,2,right_wrist,-0.1371,0.0293,-0.9614,1.12,-2.66,-0.49,0.06230102360369057,0.7182292122009407,0.6917633711305068,-0.04157907600350424,178.14828258341038,8.39065910825705,87.71350457555863,1
1767130663.939,1,left_wrist,-0.0932,0.0937,-0.9775,1.54,-4.97,-0.21,0.021385448886979113,0.8963285067588006,-0.4378574598840295,-0.06647341853212202,174.43129905316565,5.764305671361399,-52.351699376365545,1
1767130663.939,2,right_wrist,-0.1371,0.0293,-0.9614,1.12,-2.66,-0.49,0.06230102360369057,0.7182292122009407,0.6917633711305068,-0.04157907600350424,178.14828258341038,8.39065910825705,87.71350457555863,1
1767130664,1,left_wrist,-0.0932,0.0937,-0.9775,1.54,-4.97,-0.21,0.021385448886979113,0.8963285067588006,-0.4378574598840295,-0.06647341853212202,174.43129905316565,5.764305671361399,-52.351699376365545,1
1767130664,2,right_wrist,-0.1371,0.0293,-0.9614,1.12,-2.66,-0.49,0.06230102360369057,0.7182292122009407,0.6917633711305068,-0.04157907600350424,178.14828258341038,8.39065910825705,87.71350457555863,1
1767130664.067,1,left_wrist,-0.0932,0.0937,-0.9775,1.54,-4.97,-0.21,0.021385448886979113,0.8963285067588006,-0.4378574598840295,-0.06647341853212202,174.43129905316565,5.764305671361399,-52.351699376365545,1
1767130664.067,2,right_wrist,-0.1371,0.0293,-0.9614,1.12,-2.66,-0.49,0.06230102360369057,0.7182292122009407,0.6917633711305068,-0.04157907600350424,178.14828258341038,8.39065910825705,87.71350457555863,1
1767130664.141,1,left_wrist,-0.0932,0.0937,-0.9775,1.54,-4.97,-0.21,0.021385448886979113,0.8963285067588006,-0.4378574598840295,-0.06647341853212202,174.43129905316565,5.764305671361399,-52.351699376365545,1
1767130664.141,2,right_wrist,-0.1371,0.0293,-0.9614,1.12,-2.66,-0.49,0.06230102360369057,0.7182292122009407,0.6917633711305068,-0.04157907600350424,178.14828258341038,8.39065910825705,87.71350457555863,1
1767130664.197,1,left_wrist,-0.0932,0.0937,-0.9775,1.54,-4.97,-0.21,0.021385448886979113,0.8963285067588006,-0.4378574598840295,-0.06647341853212202,174.43129905316565,5.764305671361399,-52.351699376365545,1
1767130664.197,2,right_wrist,-0.1371,0.0293,-0.9614,1.12,-2.66,-0.49,0.06230102360369057,0.7182292122009407,0.6917633711305068,-0.04157907600350424,178.14828258341038,8.39065910825705,87.71350457555863,1
1767130664.248,1,left_wrist,-0.0932,0.0937,-0.9775,1.54,-4.97,-0.21,0.021385448886979113,0.8963285067588006,-0.4378574598840295,-0.06647341853212202,174.43129905316565,5.764305671361399,-52.351699376365545,1
1767130664.248,2,right_wrist,-0.1371,0.0293,-0.9614,1.12,-2.66,-0.49,0.06230102360369057,0.7182292122009407,0.6917633711305068,-0.04157907600350424,178.14828258341038,8.39065910825705,87.71350457555863,1
1767130664.317,1,left_wrist,-0.0932,0.0937,-0.9775,1.54,-4.97,-0.21,0.021385448886979113,0.8963285067588006,-0.4378574598840295,-0.06647341853212202,174.43129905316565,5.764305671361399,-52.351699376365545,1
1767130664.317,2,right_wrist,-0.1371,0.0293,-0.9614,1.12,-2.66,-0.49,0.06230102360369057,0.7182292122009407,0.6917633711305068,-0.04157907600350424,178.14828258341038,8.39065910825705,87.71350457555863,1
1767130664.372,1,left_wrist,-0.0932,0.0937,-0.9775,1.54,-4.97,-0.21,0.021385448886979113,0.8963285067588006,-0.4378574598840295,-0.06647341853212202,174.43129905316565,5.764305671361399,-52.351699376365545,1
1767130664.372,2,right_wrist,-0.1371,0.0293,-0.9614,1.12,-2.66,-0.49,0.06230102360369057,0.7182292122009407,0.6917633711305068,-0.04157907600350424,178.14828258341038,8.39065910825705,87.71350457555863,1
1767130664.423,1,left_wrist,-0.0932,0.0937,-0.9775,1.54,-4.97,-0.21,0.021385448886979113,0.8963285067588006,-0.4378574598840295,-0.06647341853212202,174.43129905316565,5.764305671361399,-52.351699376365545,1
1767130664.423,2,right_wrist,-0.1371,0.0293,-0.9614,1.12,-2.66,-0.49,0.06230102360369057,0.7182292122009407,0.6917633711305068,-0.04157907600350424,178.14828258341038,8.39065910825705,87.71350457555863,1
1767130664.437,1,left_wrist,-0.0932,0.0937,-0.9775,1.54,-4.97,-0.21,0.021385448886979113,0.8963285067588006,-0.4378574598840295,-0.06647341853212202,174.43129905316565,5.764305671361399,-52.351699376365545,0
1767130664.437,2,right_wrist,-0.1371,0.0293,-0.9614,1.12,-2.66,-0.49,0.06230102360369057,0.7182292122009407,0.6917633711305068,-0.04157907600350424,178.14828258341038,8.39065910825705,87.71350457555863,0
1767130666.828,1,left_wrist,-0.0932,0.0937,-0.9775,1.54,-4.97,-0.21,0.021385448886979113,0.8963285067588006,-0.4378574598840295,-0.06647341853212202,174.43129905316565,5.764305671361399,-52.351699376365545,0
1767130666.828,2,right_wrist,-0.1371,0.0293,-0.9614,1.12,-2.66,-0.49,0.06230102360369057,0.7182292122009407,0.6917633711305068,-0.04157907600350424,178.14828258341038,8.39065910825705,87.71350457555863,0
1767130669.886,1,left_wrist,-0.0932,0.0937,-0.9775,1.54,-4.97,-0.21,0.021385448886979113,0.8963285067588006,-0.4378574598840295,-0.06647341853212202,174.43129905316565,5.764305671361399,-52.351699376365545,0
1767130669.886,2,right_wrist,-0.1371,0.0293,-0.9614,1.12,-2.66,-0.49,0.06230102360369057,0.7182292122009407,0.6917633711305068,-0.04157907600350424,178.14828258341038,8.39065910825705,87.71350457555863,0
1767130674.472,1,left_wrist,-0.0932,0.0937,-0.9775,1.54,-4.97,-0.21,0.021385448886979113,0.8963285067588006,-0.4378574598840295,-0.06647341853212202,174.43129905316565,5.764305671361399,-52.351699376365545,0
1767130674.472,2,right_wrist,-0.1371,0.0293,-0.9614,1.12,-2.66,-0.49,0.06230102360369057,0.7182292122009407,0.6917633711305068,-0.04157907600350424,178.14828258341038,8.39065910825705,87.71350457555863,0
1767130676.877,1,left_wrist,-0.0932,0.0937,-0.9775,1.54,-4.97,-0.21,0.021385448886979113,0.8963285067588006,-0.4378574598840295,-0.06647341853212202,174.43129905316565,5.764305671361399,-52.351699376365545,0
1767130676.877,2,right_wrist,-0.1371,0.0293,-0.9614,1.12,-2.66,-0.49,0.06230102360369057,0.7182292122009407,0.6917633711305068,-0.04157907600350424,178.14828258341038,8.39065910825705,87.71350457555863,0
1767130688.288,1,left_wrist,-0.0932,0.0937,-0.9775,1.54,-4.97,-0.21,0.021385448886979113,0.8963285067588006,-0.4378574598840295,-0.06647341853212202,174.43129905316565,5.764305671361399,-52.351699376365545,0
1767130688.288,2,right_wrist,-0.1371,0.0293,-0.9614,1.12,-2.66,-0.49,0.06230102360369057,0.7182292122009407,0.6917633711305068,-0.04157907600350424,178.14828258341038,8.39065910825705,87.71350457555863,0
1767130688.349,1,left_wrist,-0.0932,0.0937,-0.9775,1.54,-4.97,-0.21,0.021385448886979113,0.8963285067588006,-0.4378574598840295,-0.06647341853212202,174.43129905316565,5.764305671361399,-52.351699376365545,0
1767130688.349,2,right_wrist,-0.1371,0.0293,-0.9614,1.12,-2.66,-0.49,0.06230102360369057,0.7182292122009407,0.6917633711305068,-0.04157907600350424,178.14828258341038,8.39065910825705,87.71350457555863,0
1767130688.416,1,left_wrist,-0.0932,0.0937,-0.9775,1.54,-4.97,-0.21,0.021385448886979113,0.8963285067588006,-0.4378574598840295,-0.06647341853212202,174.43129905316565,5.764305671361399,-52.351699376365545,0
1767130688.416,2,right_wrist,-0.1371,0.0293,-0.9614,1.12,-2.66,-0.49,0.06230102360369057,0.7182292122009407,0.6917633711305068,-0.04157907600350424,178.14828258341038,8.39065910825705,87.71350457555863,0
1767130688.493,1,left_wrist,-0.0932,0.0937,-0.9775,1.54,-4.97,-0.21,0.021385448886979113,0.8963285067588006,-0.4378574598840295,-0.06647341853212202,174.43129905316565,5.764305671361399,-52.351699376365545,0
1767130688.493,2,right_wrist,-0.1371,0.0293,-0.9614,1.12,-2.66,-0.49,0.06230102360369057,0.7182292122009407,0.6917633711305068,-0.04157907600350424,178.14828258341038,8.39065910825705,87.71350457555863,0
1767130688.554,1,left_wrist,-0.0932,0.0937,-0.9775,1.54,-4.97,-0.21,0.021385448886979113,0.8963285067588006,-0.4378574598840295,-0.06647341853212202,174.43129905316565,5.764305671361399,-52.351699376365545,0
1767130688.554,2,right_wrist,-0.1371,0.0293,-0.9614,1.12,-2.66,-0.49,0.06230102360369057,0.7182292122009407,0.6917633711305068,-0.04157907600350424,178.14828258341038,8.39065910825705,87.71350457555863,0
1767130688.626,1,left_wrist,-0.0932,0.0937,-0.9775,1.54,-4.97,-0.21,0.021385448886979113,0.8963285067588006,-0.4378574598840295,-0.06647341853212202,174.43129905316565,5.764305671361399,-52.351699376365545,0
1767130688.626,2,right_wrist,-0.1371,0.0293,-0.9614,1.12,-2.66,-0.49,0.06230102360369057,0.7182292122009407,0.6917633711305068,-0.04157907600350424,178.14828258341038,8.39065910825705,87.71350457555863,0
1767130688.687,1,left_wrist,-0.0932,0.0937,-0.9775,1.54,-4.97,-0.21,0.021385448886979113,0.8963285067588006,-0.4378574598840295,-0.06647341853212202,174.43129905316565,5.764305671361399,-52.351699376365545,0
1767130688.687,2,right_wrist,-0.1371,0.0293,-0.9614,1.12,-2.66,-0.49,0.06230102360369057,0.7182292122009407,0.6917633711305068,-0.04157907600350424,178.14828258341038,8.39065910825705,87.71350457555863,0
1767130688.747,1,left_wrist,-0.0932,0.0937,-0.9775,1.54,-4.97,-0.21,0.021385448886979113,0.8963285067588006,-0.4378574598840295,-0.06647341853212202,174.43129905316565,5.764305671361399,-52.351699376365545,0
1767130688.747,2,right_wrist,-0.1371,0.0293,-0.9614,1.12,-2.66,-0.49,0.06230102360369057,0.7182292122009407,0.6917633711305068,-0.04157907600350424,178.14828258341038,8.39065910825705,87.71350457555863,0
1767130688.813,1,left_wrist,-0.0932,0.0937,-0.9775,1.54,-4.97,-0.21,0.021385448886979113,0.8963285067588006,-0.4378574598840295,-0.06647341853212202,174.43129905316565,5.764305671361399,-52.351699376365545,0
1767130688.813,2,right_wrist,-0.1371,0.0293,-0.9614,1.12,-2.66,-0.49,0.06230102360369057,0.7182292122009407,0.6917633711305068,-0.04157907600350424,178.14828258341038,8.39065910825705,87.71350457555863,0
1767130688.867,1,left_wrist,-0.0932,0.0937,-0.9775,1.54,-4.97,-0.21,0.021385448886979113,0.8963285067588006,-0.4378574598840295,-0.06647341853212202,174.43129905316565,5.764305671361399,-52.351699376365545,0
1767130688.867,2,right_wrist,-0.1371,0.0293,-0.9614,1.12,-2.66,-0.49,0.06230102360369057,0.7182292122009407,0.6917633711305068,-0.04157907600350424,178.14828258341038,8.39065910825705,87.71350457555863,0
1767130688.922,1,left_wrist,-0.0932,0.0937,-0.9775,1.54,-4.97,-0.21,0.021385448886979113,0.8963285067588006,-0.4378574598840295,-0.06647341853212202,174.43129905316565,5.764305671361399,-52.351699376365545,0
1767130688.922,2,right_wrist,-0.1371,0.0293,-0.9614,1.12,-2.66,-0.49,0.06230102360369057,0.7182292122009407,0.6917633711305068,-0.04157907600350424,178.14828258341038,8.39065910825705,87.71350457555863,0
1767130688.977,1,left_wrist,-0.0932,0.0937,-0.9775,1.54,-4.97,-0.21,0.021385448886979113,0.8963285067588006,-0.4378574598840295,-0.06647341853212202,174.43129905316565,5.764305671361399,-52.351699376365545,0
1767130688.977,2,right_wrist,-0.1371,0.0293,-0.9614,1.12,-2.66,-0.49,0.06230102360369057,0.7182292122009407,0.6917633711305068,-0.04157907600350424,178.14828258341038,8.39065910825705,87.71350457555863,0
1767130689.028,1,left_wrist,-0.0932,0.0937,-0.9775,1.54,-4.97,-0.21,0.021385448886979113,0.8963285067588006,-0.4378574598840295,-0.06647341853212202,174.43129905316565,5.764305671361399,-52.351699376365545,0
1767130689.028,2,right_wrist,-0.1371,0.0293,-0.9614,1.12,-2.66,-0.49,0.06230102360369057,0.7182292122009407,0.6917633711305068,-0.04157907600350424,178.14828258341038,8.39065910825705,87.71350457555863,0
1767130689.083,1,left_wrist,-0.0932,0.0937,-0.9775,1.54,-4.97,-0.21,0.021385448886979113,0.8963285067588006,-0.4378574598840295,-0.06647341853212202,174.43129905316565,5.764305671361399,-52.351699376365545,7
1767130689.083,2,right_wrist,-0.1371,0.0293,-0.9614,1.12,-2.66,-0.49,0.06230102360369057,0.7182292122009407,0.6917633711305068,-0.04157907600350424,178.14828258341038,8.39065910825705,87.71350457555863,7
1767130689.148,1,left_wrist,-0.0932,0.0937,-0.9775,1.54,-4.97,-0.21,0.021385448886979113,0.8963285067588006,-0.4378574598840295,-0.06647341853212202,174.43129905316565,5.764305671361399,-52.351699376365545,7
1767130689.148,2,right_wrist,-0.1371,0.0293,-0.9614,1.12,-2.66,-0.49,0.06230102360369057,0.7182292122009407,0.6917633711305068,-0.04157907600350424,178.14828258341038,8.39065910825705,87.71350457555863,7
1767130689.204,1,left_wrist,-0.0932,0.0937,-0.9775,1.54,-4.97,-0.21,0.021385448886979113,0.8963285067588006,-0.4378574598840295,-0.06647341853212202,174.43129905316565,5.764305671361399,-52.351699376365545,7
1767130689.204,2,right_wrist,-0.1371,0.0293,-0.9614,1.12,-2.66,-0.49,0.06230102360369057,0.7182292122009407,0.6917633711305068,-0.04157907600350424,178.14828258341038,8.39065910825705,87.71350457555863,7
1767130689.261,1,left_wrist,-0.0932,0.0937,-0.9775,1.54,-4.97,-0.21,0.021385448886979113,0.8963285067588006,-0.4378574598840295,-0.06647341853212202,174.43129905316565,5.764305671361399,-52.351699376365545,7
1767130689.261,2,right_wrist,-0.1371,0.0293,-0.9614,1.12,-2.66,-0.49,0.06230102360369057,0.7182292122009407,0.6917633711305068,-0.04157907600350424,178.14828258341038,8.39065910825705,87.71350457555863,7
1767130689.317,1,left_wrist,-0.0932,0.0937,-0.9775,1.54,-4.97,-0.21,0.021385448886979113,0.8963285067588006,-0.4378574598840295,-0.06647341853212202,174.43129905316565,5.764305671361399,-52.351699376365545,7
1767130689.317,2,right_wrist,-0.1371,0.0293,-0.9614,1.12,-2.66,-0.49,0.06230102360369057,0.7182292122009407,0.6917633711305068,-0.04157907600350424,178.14828258341038,8.39065910825705,87.71350457555863,7
1767130689.384,1,left_wrist,-0.0932,0.0937,-0.9775,1.54,-4.97,-0.21,0.021385448886979113,0.8963285067588006,-0.4378574598840295,-0.06647341853212202,174.43129905316565,5.764305671361399,-52.351699376365545,7
1767130689.384,2,right_wrist,-0.1371,0.0293,-0.9614,1.12,-2.66,-0.49,0.06230102360369057,0.7182292122009407,0.6917633711305068,-0.04157907600350424,178.14828258341038,8.39065910825705,87.71350457555863,7
1767130689.442,1,left_wrist,-0.0932,0.0937,-0.9775,1.54,-4.97,-0.21,0.021385448886979113,0.8963285067588006,-0.4378574598840295,-0.06647341853212202,174.43129905316565,5.764305671361399,-52.351699376365545,7
1767130689.442,2,right_wrist,-0.1371,0.0293,-0.9614,1.12,-2.66,-0.49,0.06230102360369057,0.7182292122009407,0.6917633711305068,-0.04157907600350424,178.14828258341038,8.39065910825705,87.71350457555863,7
1767130689.498,1,left_wrist,-0.0932,0.0937,-0.9775,1.54,-4.97,-0.21,0.021385448886979113,0.8963285067588006,-0.4378574598840295,-0.06647341853212202,174.43129905316565,5.764305671361399,-52.351699376365545,7
1767130689.498,2,right_wrist,-0.1371,0.0293,-0.9614,1.12,-2.66,-0.49,0.06230102360369057,0.7182292122009407,0.6917633711305068,-0.04157907600350424,178.14828258341038,8.39065910825705,87.71350457555863,7
1767130689.556,1,left_wrist,-0.0932,0.0937,-0.9775,1.54,-4.97,-0.21,0.021385448886979113,0.8963285067588006,-0.4378574598840295,-0.06647341853212202,174.43129905316565,5.764305671361399,-52.351699376365545,7
1767130689.556,2,right_wrist,-0.1371,0.0293,-0.9614,1.12,-2.66,-0.49,0.06230102360369057,0.7182292122009407,0.6917633711305068,-0.04157907600350424,178.14828258341038,8.39065910825705,87.71350457555863,7
1767130689.621,1,left_wrist,-0.0932,0.0937,-0.9775,1.54,-4.97,-0.21,0.021385448886979113,0.8963285067588006,-0.4378574598840295,-0.06647341853212202,174.43129905316565,5.764305671361399,-52.351699376365545,7
1767130689.621,2,right_wrist,-0.1371,0.0293,-0.9614,1.12,-2.66,-0.49,0.06230102360369057,0.7182292122009407,0.6917633711305068,-0.04157907600350424,178.14828258341038,8.39065910825705,87.71350457555863,7
1767130689.685,1,left_wrist,-0.0932,0.0937,-0.9775,1.54,-4.97,-0.21,0.021385448886979113,0.8963285067588006,-0.4378574598840295,-0.06647341853212202,174.43129905316565,5.764305671361399,-52.351699376365545,7
1767130689.685,2,right_wrist,-0.1371,0.0293,-0.9614,1.12,-2.66,-0.49,0.06230102360369057,0.7182292122009407,0.6917633711305068,-0.04157907600350424,178.14828258341038,8.39065910825705,87.71350457555863,7
1767130689.738,1,left_wrist,-0.0932,0.0937,-0.9775,1.54,-4.97,-0.21,0.021385448886979113,0.8963285067588006,-0.4378574598840295,-0.06647341853212202,174.43129905316565,5.764305671361399,-52.351699376365545,7
1767130689.738,2,right_wrist,-0.1371,0.0293,-0.9614,1.12,-2.66,-0.49,0.06230102360369057,0.7182292122009407,0.6917633711305068,-0.04157907600350424,178.14828258341038,8.39065910825705,87.71350457555863,7
1767130689.797,1,left_wrist,-0.0932,0.0937,-0.9775,1.54,-4.97,-0.21,0.021385448886979113,0.8963285067588006,-0.4378574598840295,-0.06647341853212202,174.43129905316565,5.764305671361399,-52.351699376365545,7
1767130689.797,2,right_wrist,-0.1371,0.0293,-0.9614,1.12,-2.66,-0.49,0.06230102360369057,0.7182292122009407,0.6917633711305068,-0.04157907600350424,178.14828258341038,8.39065910825705,87.71350457555863,7
1767130689.847,1,left_wrist,-0.0932,0.0937,-0.9775,1.54,-4.97,-0.21,0.021385448886979113,0.8963285067588006,-0.4378574598840295,-0.06647341853212202,174.43129905316565,5.764305671361399,-52.351699376365545,0
1767130689.847,2,right_wrist,-0.1371,0.0293,-0.9614,1.12,-2.66,-0.49,0.06230102360369057,0.7182292122009407,0.6917633711305068,-0.04157907600350424,178.14828258341038,8.39065910825705,87.71350457555863,0
1767130692.193,1,left_wrist,-0.0932,0.0937,-0.9775,1.54,-4.97,-0.21,0.021385448886979113,0.8963285067588006,-0.4378574598840295,-0.06647341853212202,174.43129905316565,5.764305671361399,-52.351699376365545,0
1767130692.193,2,right_wrist,-0.1371,0.0293,-0.9614,1.12,-2.66,-0.49,0.06230102360369057,0.7182292122009407,0.6917633711305068,-0.04157907600350424,178.14828258341038,8.39065910825705,87.71350457555863,0
1767130694.928,1,left_wrist,-0.0932,0.0937,-0.9775,1.54,-4.97,-0.21,0.021385448886979113,0.8963285067588006,-0.4378574598840295,-0.06647341853212202,174.43129905316565,5.764305671361399,-52.351699376365545,0
1767130694.928,2,right_wrist,-0.1371,0.0293,-0.9614,1.12,-2.66,-0.49,0.06230102360369057,0.7182292122009407,0.6917633711305068,-0.04157907600350424,178.14828258341038,8.39065910825705,87.71350457555863,0
1767130697.728,1,left_wrist,-0.0932,0.0937,-0.9775,1.54,-4.97,-0.21,0.021385448886979113,0.8963285067588006,-0.4378574598840295,-0.06647341853212202,174.43129905316565,5.764305671361399,-52.351699376365545,0
1767130697.728,2,right_wrist,-0.1371,0.0293,-0.9614,1.12,-2.66,-0.49,0.06230102360369057,0.7182292122009407,0.6917633711305068,-0.04157907600350424,178.14828258341038,8.39065910825705,87.71350457555863,0
1767130700.492,1,left_wrist,-0.0932,0.0937,-0.9775,1.54,-4.97,-0.21,0.021385448886979113,0.8963285067588006,-0.4378574598840295,-0.06647341853212202,174.43129905316565,5.764305671361399,-52.351699376365545,0
1767130700.492,2,right_wrist,-0.1371,0.0293,-0.9614,1.12,-2.66,-0.49,0.06230102360369057,0.7182292122009407,0.6917633711305068,-0.04157907600350424,178.14828258341038,8.39065910825705,87.71350457555863,0
1767130714.226,1,left_wrist,-0.0932,0.0937,-0.9775,1.54,-4.97,-0.21,0.021385448886979113,0.8963285067588006,-0.4378574598840295,-0.06647341853212202,174.43129905316565,5.764305671361399,-52.351699376365545,0
1767130714.226,2,right_wrist,-0.1371,0.0293,-0.9614,1.12,-2.66,-0.49,0.06230102360369057,0.7182292122009407,0.6917633711305068,-0.04157907600350424,178.14828258341038,8.39065910825705,87.71350457555863,0
1767130714.286,1,left_wrist,-0.0932,0.0937,-0.9775,1.54,-4.97,-0.21,0.021385448886979113,0.8963285067588006,-0.4378574598840295,-0.06647341853212202,174.43129905316565,5.764305671361399,-52.351699376365545,0
1767130714.286,2,right_wrist,-0.1371,0.0293,-0.9614,1.12,-2.66,-0.49,0.06230102360369057,0.7182292122009407,0.6917633711305068,-0.04157907600350424,178.14828258341038,8.39065910825705,87.71350457555863,0
1767130714.34,1,left_wrist,-0.0932,0.0937,-0.9775,1.54,-4.97,-0.21,0.021385448886979113,0.8963285067588006,-0.4378574598840295,-0.06647341853212202,174.43129905316565,5.764305671361399,-52.351699376365545,0
1767130714.34,2,right_wrist,-0.1371,0.0293,-0.9614,1.12,-2.66,-0.49,0.06230102360369057,0.7182292122009407,0.6917633711305068,-0.04157907600350424,178.14828258341038,8.39065910825705,87.71350457555863,0
1767130714.404,1,left_wrist,-0.0932,0.0937,-0.9775,1.54,-4.97,-0.21,0.021385448886979113,0.8963285067588006,-0.4378574598840295,-0.06647341853212202,174.43129905316565,5.764305671361399,-52.351699376365545,0
1767130714.404,2,right_wrist,-0.1371,0.0293,-0.9614,1.12,-2.66,-0.49,0.06230102360369057,0.7182292122009407,0.6917633711305068,-0.04157907600350424,178.14828258341038,8.39065910825705,87.71350457555863,0
1767130714.467,1,left_wrist,-0.0932,0.0937,-0.9775,1.54,-4.97,-0.21,0.021385448886979113,0.8963285067588006,-0.4378574598840295,-0.06647341853212202,174.43129905316565,5.764305671361399,-52.351699376365545,0
1767130714.467,2,right_wrist,-0.1371,0.0293,-0.9614,1.12,-2.66,-0.49,0.06230102360369057,0.7182292122009407,0.6917633711305068,-0.04157907600350424,178.14828258341038,8.39065910825705,87.71350457555863,0
1767130714.521,1,left_wrist,-0.0932,0.0937,-0.9775,1.54,-4.97,-0.21,0.021385448886979113,0.8963285067588006,-0.4378574598840295,-0.06647341853212202,174.43129905316565,5.764305671361399,-52.351699376365545,0
1767130714.521,2,right_wrist,-0.1371,0.0293,-0.9614,1.12,-2.66,-0.49,0.06230102360369057,0.7182292122009407,0.6917633711305068,-0.04157907600350424,178.14828258341038,8.39065910825705,87.71350457555863,0
1767130714.588,1,left_wrist,-0.0932,0.0937,-0.9775,1.54,-4.97,-0.21,0.021385448886979113,0.8963285067588006,-0.4378574598840295,-0.06647341853212202,174.43129905316565,5.764305671361399,-52.351699376365545,0
1767130714.588,2,right_wrist,-0.1371,0.0293,-0.9614,1.12,-2.66,-0.49,0.06230102360369057,0.7182292122009407,0.6917633711305068,-0.04157907600350424,178.14828258341038,8.39065910825705,87.71350457555863,0
1767130714.638,1,left_wrist,-0.0932,0.0937,-0.9775,1.54,-4.97,-0.21,0.021385448886979113,0.8963285067588006,-0.4378574598840295,-0.06647341853212202,174.43129905316565,5.764305671361399,-52.351699376365545,0
1767130714.638,2,right_wrist,-0.1371,0.0293,-0.9614,1.12,-2.66,-0.49,0.06230102360369057,0.7182292122009407,0.6917633711305068,-0.04157907600350424,178.14828258341038,8.39065910825705,87.71350457555863,0
1767130714.691,1,left_wrist,-0.0932,0.0937,-0.9775,1.54,-4.97,-0.21,0.021385448886979113,0.8963285067588006,-0.4378574598840295,-0.06647341853212202,174.43129905316565,5.764305671361399,-52.351699376365545,0
1767130714.691,2,right_wrist,-0.1371,0.0293,-0.9614,1.12,-2.66,-0.49,0.06230102360369057,0.7182292122009407,0.6917633711305068,-0.04157907600350424,178.14828258341038,8.39065910825705,87.71350457555863,0
1767130714.75,1,left_wrist,-0.0932,0.0937,-0.9775,1.54,-4.97,-0.21,0.021385448886979113,0.8963285067588006,-0.4378574598840295,-0.06647341853212202,174.43129905316565,5.764305671361399,-52.351699376365545,0
1767130714.75,2,right_wrist,-0.1371,0.0293,-0.9614,1.12,-2.66,-0.49,0.06230102360369057,0.7182292122009407,0.6917633711305068,-0.04157907600350424,178.14828258341038,8.39065910825705,87.71350457555863,0
1767130714.805,1,left_wrist,-0.0932,0.0937,-0.9775,1.54,-4.97,-0.21,0.021385448886979113,0.8963285067588006,-0.4378574598840295,-0.06647341853212202,174.43129905316565,5.764305671361399,-52.351699376365545,0
1767130714.805,2,right_wrist,-0.1371,0.0293,-0.9614,1.12,-2.66,-0.49,0.06230102360369057,0.7182292122009407,0.6917633711305068,-0.04157907600350424,178.14828258341038,8.39065910825705,87.71350457555863,0
1767130714.862,1,left_wrist,-0.0932,0.0937,-0.9775,1.54,-4.97,-0.21,0.021385448886979113,0.8963285067588006,-0.4378574598840295,-0.06647341853212202,174.43129905316565,5.764305671361399,-52.351699376365545,0
1767130714.862,2,right_wrist,-0.1371,0.0293,-0.9614,1.12,-2.66,-0.49,0.06230102360369057,0.7182292122009407,0.6917633711305068,-0.04157907600350424,178.14828258341038,8.39065910825705,87.71350457555863,0
1767130714.914,1,left_wrist,-0.0932,0.0937,-0.9775,1.54,-4.97,-0.21,0.021385448886979113,0.8963285067588006,-0.4378574598840295,-0.06647341853212202,174.43129905316565,5.764305671361399,-52.351699376365545,0
1767130714.914,2,right_wrist,-0.1371,0.0293,-0.9614,1.12,-2.66,-0.49,0.06230102360369057,0.7182292122009407,0.6917633711305068,-0.04157907600350424,178.14828258341038,8.39065910825705,87.71350457555863,0
1767130714.967,1,left_wrist,-0.0932,0.0937,-0.9775,1.54,-4.97,-0.21,0.021385448886979113,0.8963285067588006,-0.4378574598840295,-0.06647341853212202,174.43129905316565,5.764305671361399,-52.351699376365545,0
1767130714.967,2,right_wrist,-0.1371,0.0293,-0.9614,1.12,-2.66,-0.49,0.06230102360369057,0.7182292122009407,0.6917633711305068,-0.04157907600350424,178.14828258341038,8.39065910825705,87.71350457555863,0
1767130715.031,1,left_wrist,-0.0932,0.0937,-0.9775,1.54,-4.97,-0.21,0.021385448886979113,0.8963285067588006,-0.4378574598840295,-0.06647341853212202,174.43129905316565,5.764305671361399,-52.351699376365545,0
1767130715.031,2,right_wrist,-0.1371,0.0293,-0.9614,1.12,-2.66,-0.49,0.06230102360369057,0.7182292122009407,0.6917633711305068,-0.04157907600350424,178.14828258341038,8.39065910825705,87.71350457555863,0
1767130715.098,1,left_wrist,-0.0932,0.0937,-0.9775,1.54,-4.97,-0.21,0.021385448886979113,0.8963285067588006,-0.4378574598840295,-0.06647341853212202,174.43129905316565,5.764305671361399,-52.351699376365545,0
1767130715.098,2,right_wrist,-0.1371,0.0293,-0.9614,1.12,-2.66,-0.49,0.06230102360369057,0.7182292122009407,0.6917633711305068,-0.04157907600350424,178.14828258341038,8.39065910825705,87.71350457555863,0
1767130715.148,1,left_wrist,-0.0932,0.0937,-0.9775,1.54,-4.97,-0.21,0.021385448886979113,0.8963285067588006,-0.4378574598840295,-0.06647341853212202,174.43129905316565,5.764305671361399,-52.351699376365545,0
1767130715.148,2,right_wrist,-0.1371,0.0293,-0.9614,1.12,-2.66,-0.49,0.06230102360369057,0.7182292122009407,0.6917633711305068,-0.04157907600350424,178.14828258341038,8.39065910825705,87.71350457555863,0
1767130715.204,1,left_wrist,-0.0932,0.0937,-0.9775,1.54,-4.97,-0.21,0.021385448886979113,0.8963285067588006,-0.4378574598840295,-0.06647341853212202,174.43129905316565,5.764305671361399,-52.351699376365545,0
1767130715.204,2,right_wrist,-0.1371,0.0293,-0.9614,1.12,-2.66,-0.49,0.06230102360369057,0.7182292122009407,0.6917633711305068,-0.04157907600350424,178.14828258341038,8.39065910825705,87.71350457555863,0
1767130715.261,1,left_wrist,-0.0932,0.0937,-0.9775,1.54,-4.97,-0.21,0.021385448886979113,0.8963285067588006,-0.4378574598840295,-0.06647341853212202,174.43129905316565,5.764305671361399,-52.351699376365545,0
1767130715.261,2,right_wrist,-0.1371,0.0293,-0.9614,1.12,-2.66,-0.49,0.06230102360369057,0.7182292122009407,0.6917633711305068,-0.04157907600350424,178.14828258341038,8.39065910825705,87.71350457555863,0
1767130715.316,1,left_wrist,-0.0932,0.0937,-0.9775,1.54,-4.97,-0.21,0.021385448886979113,0.8963285067588006,-0.4378574598840295,-0.06647341853212202,174.43129905316565,5.764305671361399,-52.351699376365545,0
1767130715.316,2,right_wrist,-0.1371,0.0293,-0.9614,1.12,-2.66,-0.49,0.06230102360369057,0.7182292122009407,0.6917633711305068,-0.04157907600350424,178.14828258341038,8.39065910825705,87.71350457555863,0
1767130715.369,1,left_wrist,-0.0932,0.0937,-0.9775,1.54,-4.97,-0.21,0.021385448886979113,0.8963285067588006,-0.4378574598840295,-0.06647341853212202,174.43129905316565,5.764305671361399,-52.351699376365545,0
1767130715.369,2,right_wrist,-0.1371,0.0293,-0.9614,1.12,-2.66,-0.49,0.06230102360369057,0.7182292122009407,0.6917633711305068,-0.04157907600350424,178.14828258341038,8.39065910825705,87.71350457555863,0
1767130715.433,1,left_wrist,-0.0932,0.0937,-0.9775,1.54,-4.97,-0.21,0.021385448886979113,0.8963285067588006,-0.4378574598840295,-0.06647341853212202,174.43129905316565,5.764305671361399,-52.351699376365545,0
1767130715.433,2,right_wrist,-0.1371,0.0293,-0.9614,1.12,-2.66,-0.49,0.06230102360369057,0.7182292122009407,0.6917633711305068,-0.04157907600350424,178.14828258341038,8.39065910825705,87.71350457555863,0
1767130715.495,1,left_wrist,-0.0932,0.0937,-0.9775,1.54,-4.97,-0.21,0.021385448886979113,0.8963285067588006,-0.4378574598840295,-0.06647341853212202,174.43129905316565,5.764305671361399,-52.351699376365545,0
1767130715.495,2,right_wrist,-0.1371,0.0293,-0.9614,1.12,-2.66,-0.49,0.06230102360369057,0.7182292122009407,0.6917633711305068,-0.04157907600350424,178.14828258341038,8.39065910825705,87.71350457555863,0
1767130715.557,1,left_wrist,-0.0932,0.0937,-0.9775,1.54,-4.97,-0.21,0.021385448886979113,0.8963285067588006,-0.4378574598840295,-0.06647341853212202,174.43129905316565,5.764305671361399,-52.351699376365545,0
1767130715.557,2,right_wrist,-0.1371,0.0293,-0.9614,1.12,-2.66,-0.49,0.06230102360369057,0.7182292122009407,0.6917633711305068,-0.04157907600350424,178.14828258341038,8.39065910825705,87.71350457555863,0
1767130715.623,1,left_wrist,-0.0932,0.0937,-0.9775,1.54,-4.97,-0.21,0.021385448886979113,0.8963285067588006,-0.4378574598840295,-0.06647341853212202,174.43129905316565,5.764305671361399,-52.351699376365545,0
1767130715.623,2,right_wrist,-0.1371,0.0293,-0.9614,1.12,-2.66,-0.49,0.06230102360369057,0.7182292122009407,0.6917633711305068,-0.04157907600350424,178.14828258341038,8.39065910825705,87.71350457555863,0
1767130715.677,1,left_wrist,-0.0932,0.0937,-0.9775,1.54,-4.97,-0.21,0.021385448886979113,0.8963285067588006,-0.4378574598840295,-0.06647341853212202,174.43129905316565,5.764305671361399,-52.351699376365545,0
1767130715.677,2,right_wrist,-0.1371,0.0293,-0.9614,1.12,-2.66,-0.49,0.06230102360369057,0.7182292122009407,0.6917633711305068,-0.04157907600350424,178.14828258341038,8.39065910825705,87.71350457555863,0
1767130715.739,1,left_wrist,-0.0932,0.0937,-0.9775,1.54,-4.97,-0.21,0.021385448886979113,0.8963285067588006,-0.4378574598840295,-0.06647341853212202,174.43129905316565,5.764305671361399,-52.351699376365545,13
1767130715.739,2,right_wrist,-0.1371,0.0293,-0.9614,1.12,-2.66,-0.49,0.06230102360369057,0.7182292122009407,0.6917633711305068,-0.04157907600350424,178.14828258341038,8.39065910825705,87.71350457555863,13
1767130715.803,1,left_wrist,-0.0932,0.0937,-0.9775,1.54,-4.97,-0.21,0.021385448886979113,0.8963285067588006,-0.4378574598840295,-0.06647341853212202,174.43129905316565,5.764305671361399,-52.351699376365545,13
1767130715.803,2,right_wrist,-0.1371,0.0293,-0.9614,1.12,-2.66,-0.49,0.06230102360369057,0.7182292122009407,0.6917633711305068,-0.04157907600350424,178.14828258341038,8.39065910825705,87.71350457555863,13
1767130715.866,1,left_wrist,-0.0932,0.0937,-0.9775,1.54,-4.97,-0.21,0.021385448886979113,0.8963285067588006,-0.4378574598840295,-0.06647341853212202,174.43129905316565,5.764305671361399,-52.351699376365545,13
1767130715.866,2,right_wrist,-0.1371,0.0293,-0.9614,1.12,-2.66,-0.49,0.06230102360369057,0.7182292122009407,0.6917633711305068,-0.04157907600350424,178.14828258341038,8.39065910825705,87.71350457555863,13
1767130715.929,1,left_wrist,-0.0932,0.0937,-0.9775,1.54,-4.97,-0.21,0.021385448886979113,0.8963285067588006,-0.4378574598840295,-0.06647341853212202,174.43129905316565,5.764305671361399,-52.351699376365545,13
1767130715.929,2,right_wrist,-0.1371,0.0293,-0.9614,1.12,-2.66,-0.49,0.06230102360369057,0.7182292122009407,0.6917633711305068,-0.04157907600350424,178.14828258341038,8.39065910825705,87.71350457555863,13
1767130715.981,1,left_wrist,-0.0932,0.0937,-0.9775,1.54,-4.97,-0.21,0.021385448886979113,0.8963285067588006,-0.4378574598840295,-0.06647341853212202,174.43129905316565,5.764305671361399,-52.351699376365545,13
1767130715.981,2,right_wrist,-0.1371,0.0293,-0.9614,1.12,-2.66,-0.49,0.06230102360369057,0.7182292122009407,0.6917633711305068,-0.04157907600350424,178.14828258341038,8.39065910825705,87.71350457555863,13
1767130716.041,1,left_wrist,-0.0932,0.0937,-0.9775,1.54,-4.97,-0.21,0.021385448886979113,0.8963285067588006,-0.4378574598840295,-0.06647341853212202,174.43129905316565,5.764305671361399,-52.351699376365545,13
1767130716.041,2,right_wrist,-0.1371,0.0293,-0.9614,1.12,-2.66,-0.49,0.06230102360369057,0.7182292122009407,0.6917633711305068,-0.04157907600350424,178.14828258341038,8.39065910825705,87.71350457555863,13
1767130716.095,1,left_wrist,-0.0932,0.0937,-0.9775,1.54,-4.97,-0.21,0.021385448886979113,0.8963285067588006,-0.4378574598840295,-0.06647341853212202,174.43129905316565,5.764305671361399,-52.351699376365545,13
1767130716.095,2,right_wrist,-0.1371,0.0293,-0.9614,1.12,-2.66,-0.49,0.06230102360369057,0.7182292122009407,0.6917633711305068,-0.04157907600350424,178.14828258341038,8.39065910825705,87.71350457555863,13
1767130716.162,1,left_wrist,-0.0932,0.0937,-0.9775,1.54,-4.97,-0.21,0.021385448886979113,0.8963285067588006,-0.4378574598840295,-0.06647341853212202,174.43129905316565,5.764305671361399,-52.351699376365545,13
1767130716.162,2,right_wrist,-0.1371,0.0293,-0.9614,1.12,-2.66,-0.49,0.06230102360369057,0.7182292122009407,0.6917633711305068,-0.04157907600350424,178.14828258341038,8.39065910825705,87.71350457555863,13
1767130716.216,1,left_wrist,-0.0932,0.0937,-0.9775,1.54,-4.97,-0.21,0.021385448886979113,0.8963285067588006,-0.4378574598840295,-0.06647341853212202,174.43129905316565,5.764305671361399,-52.351699376365545,13
1767130716.216,2,right_wrist,-0.1371,0.0293,-0.9614,1.12,-2.66,-0.49,0.06230102360369057,0.7182292122009407,0.6917633711305068,-0.04157907600350424,178.14828258341038,8.39065910825705,87.71350457555863,13
1767130716.272,1,left_wrist,-0.0932,0.0937,-0.9775,1.54,-4.97,-0.21,0.021385448886979113,0.8963285067588006,-0.4378574598840295,-0.06647341853212202,174.43129905316565,5.764305671361399,-52.351699376365545,13
1767130716.272,2,right_wrist,-0.1371,0.0293,-0.9614,1.12,-2.66,-0.49,0.06230102360369057,0.7182292122009407,0.6917633711305068,-0.04157907600350424,178.14828258341038,8.39065910825705,87.71350457555863,13
1767130716.331,1,left_wrist,-0.0932,0.0937,-0.9775,1.54,-4.97,-0.21,0.021385448886979113,0.8963285067588006,-0.4378574598840295,-0.06647341853212202,174.43129905316565,5.764305671361399,-52.351699376365545,13
1767130716.331,2,right_wrist,-0.1371,0.0293,-0.9614,1.12,-2.66,-0.49,0.06230102360369057,0.7182292122009407,0.6917633711305068,-0.04157907600350424,178.14828258341038,8.39065910825705,87.71350457555863,13
1767130716.381,1,left_wrist,-0.0932,0.0937,-0.9775,1.54,-4.97,-0.21,0.021385448886979113,0.8963285067588006,-0.4378574598840295,-0.06647341853212202,174.43129905316565,5.764305671361399,-52.351699376365545,13
1767130716.381,2,right_wrist,-0.1371,0.0293,-0.9614,1.12,-2.66,-0.49,0.06230102360369057,0.7182292122009407,0.6917633711305068,-0.04157907600350424,178.14828258341038,8.39065910825705,87.71350457555863,13
1767130716.433,1,left_wrist,-0.0932,0.0937,-0.9775,1.54,-4.97,-0.21,0.021385448886979113,0.8963285067588006,-0.4378574598840295,-0.06647341853212202,174.43129905316565,5.764305671361399,-52.351699376365545,0
1767130716.433,2,right_wrist,-0.1371,0.0293,-0.9614,1.12,-2.66,-0.49,0.06230102360369057,0.7182292122009407,0.6917633711305068,-0.04157907600350424,178.14828258341038,8.39065910825705,87.71350457555863,0
1767130718.126,1,left_wrist,-0.0932,0.0937,-0.9775,1.54,-4.97,-0.21,0.021385448886979113,0.8963285067588006,-0.4378574598840295,-0.06647341853212202,174.43129905316565,5.764305671361399,-52.351699376365545,0
1767130718.126,2,right_wrist,-0.1371,0.0293,-0.9614,1.12,-2.66,-0.49,0.06230102360369057,0.7182292122009407,0.6917633711305068,-0.04157907600350424,178.14828258341038,8.39065910825705,87.71350457555863,0
1767130720.952,1,left_wrist,-0.0932,0.0937,-0.9775,1.54,-4.97,-0.21,0.021385448886979113,0.8963285067588006,-0.4378574598840295,-0.06647341853212202,174.43129905316565,5.764305671361399,-52.351699376365545,0
1767130720.952,2,right_wrist,-0.1371,0.0293,-0.9614,1.12,-2.66,-0.49,0.06230102360369057,0.7182292122009407,0.6917633711305068,-0.04157907600350424,178.14828258341038,8.39065910825705,87.71350457555863,0
1767130724.394,1,left_wrist,-0.0932,0.0937,-0.9775,1.54,-4.97,-0.21,0.021385448886979113,0.8963285067588006,-0.4378574598840295,-0.06647341853212202,174.43129905316565,5.764305671361399,-52.351699376365545,0
1767130724.394,2,right_wrist,-0.1371,0.0293,-0.9614,1.12,-2.66,-0.49,0.06230102360369057,0.7182292122009407,0.6917633711305068,-0.04157907600350424,178.14828258341038,8.39065910825705,87.71350457555863,0
1767130726.63,1,left_wrist,-0.0932,0.0937,-0.9775,1.54,-4.97,-0.21,0.021385448886979113,0.8963285067588006,-0.4378574598840295,-0.06647341853212202,174.43129905316565,5.764305671361399,-52.351699376365545,0
1767130726.63,2,right_wrist,-0.1371,0.0293,-0.9614,1.12,-2.66,-0.49,0.06230102360369057,0.7182292122009407,0.6917633711305068,-0.04157907600350424,178.14828258341038,8.39065910825705,87.71350457555863,0
