timestamp,node_id,node_name,ax,ay,az,gx,gy,gz,qw,qx,qy,qz,roll,pitch,yaw,rep_number
1767533604.297241,1,left_wrist,0.0937,0.082,-0.9784,0.28,-1.47,-0.07,0.04849364991704964,0.05662956782770746,-0.996476000295921,-0.0384322624836637,175.27129245567377,-5.295518911614234,-173.27597437187242,1
1767533604.297241,2,right_wrist,0.0434,0.3523,-0.9101,5.11,-2.66,0.07,0.12414730799760815,0.5785237288806769,-0.7949960797088369,-0.1337122817340447,159.11025763231504,-2.4462295820334834,-107.46174324964358,1
1767533604.35392,1,left_wrist,0.0922,0.081,-0.9804,-0.07,-1.26,-0.56,0.052851184020768195,0.056611572160841714,-0.9962822885788934,-0.03772908306708983,175.32066270284588,-5.798922742341898,-173.25844628784353,1
1767533604.35392,2,right_wrist,0.042,0.3562,-0.916,2.24,-3.01,0.07,0.12529988448119278,0.5780137282087705,-0.7945563548379635,-0.13740548729146718,158.68483689071485,-2.307989505282418,-107.49628876768095,1
1767533604.4213262,1,left_wrist,0.0864,0.08,-0.977,3.36,-0.98,-0.42,0.04482099336591306,0.05728194842446534,-0.9966144067187406,-0.03833511783003162,175.30558584289165,-4.8729584782318955,-173.22105197290688,1
1767533604.4213262,2,right_wrist,0.0376,0.345,-0.9091,0.07,-3.36,0.28,0.12078728604247171,0.5782749005163116,-0.7954729299787018,-0.13502365953581402,159.22237633527848,-2.0633487621583266,-107.59057491100333,1
1767533604.473845,1,left_wrist,0.0947,0.0742,-0.9838,0.14,-0.7,-0.77,0.0485667488368515,0.05731774599773812,-0.9965447664867687,-0.03541857265600301,175.61319061031946,-5.32112198459293,-173.21240064549596,1
1767533604.473845,2,right_wrist,0.0312,0.3655,-0.9233,-2.17,-3.36,0.35,0.1216687140510848,0.5776399962022344,-0.7947583913137113,-0.14102431792098774,158.59910070074824,-1.7461809921065523,-107.64980304540711,1
1767533604.5238929,1,left_wrist,0.0859,0.0878,-0.9872,0.98,-2.31,0.28,0.04547893372703794,0.057470455286904316,-0.9965248548184342,-0.03958569293654597,175.15634092966562,-4.938808266266204,-173.1897054858579,1
1767533604.5238929,2,right_wrist,0.0298,0.3743,-0.8945,-3.5,-3.92,1.47,0.12403935008553152,0.5762259539136231,-0.7943697023208787,-0.14681507314078063,157.89244352707598,-1.596976662733065,-107.77467032791971,1
1767533604.573992,1,left_wrist,0.0732,0.0766,-0.9823,1.12,-2.59,0.07,0.039849438608429856,0.057512846402952185,-0.9968620012366732,-0.03701952500557436,175.49115668809276,-4.3121729832662385,-173.22624887585252,1
1767533604.573992,2,right_wrist,0.0078,0.3938,-0.8223,-3.22,-3.99,10.36,0.12558109551082738,0.5719590832177118,-0.7961040417158755,-0.15267793009699449,157.23990933138657,-1.4497480861378984,-108.31765493933082,1
1767533604.6245189,1,left_wrist,0.0874,0.08,-0.9965,3.78,-2.94,0.7,0.04345036085036721,0.05704155804426594,-0.996786085048024,-0.03571872691584679,175.6168595729007,-4.734955274895184,-173.26828359238235,1
1767533604.6245189,2,right_wrist,0.1244,0.3338,-1.035,-17.57,-2.24,-0.77,0.13000291201567518,0.5708701079669113,-0.7958051007201903,-0.15459884981790586,156.7544123613335,-1.742188310059106,-108.33416481396635,1
1767533604.6985621,1,left_wrist,0.1366,0.0795,-1.016,10.99,-6.02,0.63,0.045514145972516,0.05668617619357906,-0.9968743952485587,-0.030928628206945478,176.15372820378798,-5.004692026621035,-173.32273290310195,1
1767533604.6985621,2,right_wrist,0.1137,0.3611,-1.0282,-26.25,-18.76,-5.04,0.12825175372463793,0.5696683668022234,-0.7952711475164287,-0.1630130100922775,156.07950167129636,-1.0464583483085668,-108.54878109764523,1
1767533604.7748759,1,left_wrist,0.1537,0.1166,-1.1161,20.02,-18.13,-0.42,0.03677109288296126,0.057350967002785434,-0.9974745554057924,-0.020081449899213736,177.45572497690407,-4.074474760430916,-173.3281515080402,1
1767533604.7748759,2,right_wrist,0.1606,0.6783,-1.0765,-79.31,-29.4,-8.4,0.14124922412630278,0.5647282880526941,-0.7882361938223819,-0.1995352603055292,151.69933620087056,0.15417798962761703,-108.79980064562857,1
1767533604.828056,1,left_wrist,0.6007,0.0766,-0.955,80.99,-44.38,1.96,0.019723848391015455,0.05727115376530494,-0.998063631903466,0.014141125227567577,-178.5107084117016,-2.349273445391205,-173.46221785161765,1
1767533604.828056,2,right_wrist,0.3177,0.6076,-1.0502,-69.23,-42.56,-17.85,0.14610032781325957,0.5615368118126758,-0.7805335497927374,-0.232590801279978,148.1659305226586,1.8993694364769256,-109.07719604563036,1
1767533604.896495,1,left_wrist,0.2352,-0.243,-1.1292,63.42,-57.68,19.11,-0.004162317506465072,0.04976319406111443,-0.9977710445381098,0.044263329191786105,-174.90862990021728,0.22349481503509577,-174.2796142553546,1
1767533604.896495,2,right_wrist,0.2786,0.6593,-0.5924,-147.84,-76.65,-65.31,0.14950019342023343,0.5581881084737522,-0.7362816475309147,-0.3520867268656536,135.9050150168655,9.957215924658815,-109.70826836556894,1
1767533604.948521,1,left_wrist,0.3665,-0.1083,-1.1097,-32.06,-61.46,45.99,-0.0263906188506236,0.03115256681155142,-0.9987392122750034,0.02920682594940417,-176.55662184612058,2.917326592460056,-176.33912236036213,1
1767533604.948521,2,right_wrist,0.1825,0.791,-0.5973,-54.81,-38.57,-71.96,0.14334568682256352,0.5697909141673623,-0.7128933497730154,-0.3828490564845344,133.18968620677413,13.409397593693122,-108.55754990027846,1
1767533604.999142,1,left_wrist,0.2889,0.2538,-0.9335,-20.37,-70.28,41.79,-0.053779906127282125,0.01405932248433482,-0.9983284262415112,0.01582436432750512,-178.0917562418667,6.138665040461261,-178.28399757347273,1
1767533604.999142,2,right_wrist,0.0878,0.6178,-0.5846,36.05,-10.92,-52.22,0.12599393753871932,0.5850316031101086,-0.707985036828111,-0.37499431821482865,135.36120556017912,15.091626650982086,-107.08932283385973,1
1767533605.0491982,1,left_wrist,0.0854,0.1391,-0.7725,-15.75,-56.07,6.37,-0.07461527956185172,0.011913250573259034,-0.9971283008188995,0.005078013656905385,-179.3102287496096,8.55049762430303,-178.5794104368127,1
1767533605.0491982,2,right_wrist,-0.0068,0.5324,-0.5153,1.75,-2.1,-14.56,0.12654441700498026,0.5879925006473592,-0.7061547799949222,-0.37362649316885715,135.515709891646,15.109184014683027,-106.6427534660186,1
1767533605.100678,1,left_wrist,-0.0293,0.2406,-0.6217,-0.84,-30.73,-16.66,-0.08673654346324931,0.018933860320142545,-0.996051198492645,0.0005393911295777835,-179.74643172423575,9.948775267623923,-177.79993003776545,1
1767533605.100678,2,right_wrist,-0.1864,0.4016,-0.5163,-9.8,14.7,33.88,0.13642556813630244,0.5808798926693076,-0.7131246382250057,-0.36799438176096616,135.3579034759447,13.47047168189995,-107.22220904685476,1
1767533605.176289,1,left_wrist,-0.1449,-0.0527,-0.6188,58.38,83.72,-89.53,-0.046024743745374484,0.06981889377431619,-0.9952001376767895,0.050830414157298054,-173.80077159019143,4.847837976596714,-171.71123420971264,1
1767533605.176289,2,right_wrist,-0.2006,0.2957,-0.5451,-2.31,19.39,91.35,0.1541860753791766,0.5567804564160027,-0.7347668828766448,-0.35544311125705264,135.23605648056403,9.74281497347952,-109.71302475840555,1
1767533605.244716,1,left_wrist,-0.1659,-0.1615,-0.5466,30.31,111.44,-144.06,0.0009970101534250084,0.12891812943049838,-0.9889755060264318,0.07284621029716257,-171.72872102119075,-1.1892267218503336,-165.23213918829637,1
1767533605.244716,2,right_wrist,-0.0976,0.3845,-0.4753,-72.59,29.19,215.25,0.24924121693550452,0.431971677410117,-0.7924856235770649,-0.35106384336708535,129.1927245722355,-5.263767019897556,-120.31056896408577,1
1767533605.295203,1,left_wrist,-0.1659,-0.1615,-0.5466,30.31,111.44,-144.06,0.04744201248623233,0.18675263353504648,-0.976818373046338,0.09326615355039461,-170.453832483877,-7.3262978236528316,-158.96564802122398,1
1767533605.295203,2,right_wrist,0.0112,0.4787,-0.4709,-51.24,37.24,245.84,0.3038183693100464,0.3469734817447842,-0.8229352482481311,-0.33178513924899217,128.18116619549428,-15.6526278726209,-126.63659565721741,1
1767533605.34723,1,left_wrist,0.0195,-0.3514,-0.7901,196.98,176.12,-167.09,0.10984019210748183,0.25214726837449625,-0.9423898591010679,0.19041596758817506,-161.42916326791143,-17.64090357926115,-152.9480296828721,1
1767533605.34723,2,right_wrist,0.2133,1.1536,-0.6632,20.79,37.94,253.54,0.34855232813442,0.2632332272050069,-0.8526163754900282,-0.28681851211795895,131.3770787078763,-26.31862079096495,-133.6268270628497,1
1767533605.425053,1,left_wrist,0.5334,-0.5539,-0.8267,32.62,144.97,-158.83,0.24167862399609294,0.3630004370274551,-0.8585371504321953,0.26969628612385044,-158.69944164500774,-37.64591574968693,-141.4970679901172,1
1767533605.425053,2,right_wrist,0.4104,0.4255,-0.67,6.23,50.12,196.21,0.3879210521444014,0.19640020606629757,-0.8667526817419133,-0.24430310078567996,135.18793143969864,-35.20480664110034,-139.5608631216672,1
1767533605.482236,1,left_wrist,0.855,-0.4524,-0.5178,150.99,138.11,-118.93,0.2839542736504899,0.40443838882152433,-0.8015282893693432,0.33667783037159843,-153.13530148119827,-46.679359245161535,-138.21786770124686,1
1767533605.482236,2,right_wrist,0.6856,1.0741,-0.5153,-123.76,46.97,176.12,0.4340936353685349,0.11392407204444047,-0.8551606460561553,-0.2593921567398707,132.00241515645027,-43.10500597038895,-144.87746360806162,1
1767533605.546407,1,left_wrist,1.1092,-0.7076,-0.5832,76.58,99.75,-124.32,0.32314072407873096,0.44009144337946493,-0.7526674951888171,0.3679554804487146,-152.62298928584156,-54.12556113412547,-133.5560836418836,1
1767533605.546407,2,right_wrist,1.0126,0.7559,-0.5207,-15.12,72.59,123.69,0.514362322706768,0.02068488276157845,-0.827251950083637,-0.2250727608744741,133.19020091333243,-57.32041931678279,-150.51441633765464,1
1767533605.6256819,1,left_wrist,1.3274,-0.4285,-0.5436,-8.05,15.96,-55.3,0.3804486686425668,0.47541113995654477,-0.710918030081679,0.35190710853590595,-163.32767257409088,-61.10856422960719,-122.34391907425137,1
1767533605.6256819,2,right_wrist,1.117,0.7183,-0.4148,5.88,56.98,81.27,0.5428402123957592,0.00031299597616398287,-0.813781871495549,-0.2075655835268641,133.81698575908194,-62.052465234008444,-151.1889421644962,1
1767533605.7056031,1,left_wrist,1.1258,-0.3928,-0.4016,20.09,-17.5,17.92,0.36793850205833395,0.4737591362221286,-0.7141000147341662,0.3608804629039863,-160.4153565137204,-60.16141908042747,-124.29443682273178,1
1767533605.7056031,2,right_wrist,0.9462,0.3216,-0.3953,-11.27,16.1,-12.88,0.5581047225107617,0.004531247329849542,-0.8035819575321516,-0.20677191307722825,130.83068117645436,-63.52023669501808,-147.72655663848204,1
1767533605.773516,1,left_wrist,0.7525,-0.1205,-0.4031,39.83,-13.93,27.44,0.337412554706154,0.46648052516622873,-0.7227451266942947,0.3823456151271438,-153.6339965422174,-57.61199952862622,-129.0002665055428,1
1767533605.773516,2,right_wrist,0.8408,0.3797,-0.3299,-44.59,7.14,-19.32,0.5557947628255595,0.003137025238849945,-0.7992090940273078,-0.22879502772652321,126.92866278357852,-62.493319177201805,-145.83882716266365,1
1767533605.828738,1,left_wrist,0.7998,-0.2142,-0.4109,19.18,-3.64,3.64,0.3344653125901965,0.46819915037716314,-0.718939788404429,0.38993344420431514,-152.33902147780486,-57.78502431528452,-129.32657488952358,1
1767533605.828738,2,right_wrist,0.8223,0.4494,-0.2913,-17.36,8.68,-15.61,0.5549862790666592,0.008146452715320652,-0.7958843474575192,-0.24185113360912763,124.1228661253665,-61.57841483304465,-143.75324352757312,1
1767533605.899035,1,left_wrist,0.8589,-0.1898,-0.3972,23.17,-1.05,1.82,0.33253267888832116,0.47151672566726244,-0.7134092597105578,0.3976697411755314,-151.24589339646437,-58.15511861283891,-129.30037898244362,1
1767533605.899035,2,right_wrist,0.9365,0.4246,-0.2484,-15.75,7.63,-20.37,0.5612164744944582,0.023226658062317745,-0.7873893377669551,-0.25399728715516495,119.49896224488977,-60.6910386786079,-138.91953643542305,1
1767533605.9490838,1,left_wrist,0.8823,-0.2162,-0.4002,41.72,2.8,0.28,0.3279481336637064,0.4769846564658011,-0.7036281854935447,0.4121201714327454,-149.03833495876626,-58.721872989491075,-129.4462514307684,1
1767533605.9490838,2,right_wrist,0.9677,0.4128,-0.2045,-13.93,4.34,-21.07,0.5634660279776054,0.025750142218981635,-0.7827969297832627,-0.2628153956919963,117.25058303009209,-60.299117826729905,-137.22439419543662,1
1767533606.0241,1,left_wrist,0.8438,-0.2786,-0.3909,47.04,8.19,-0.07,0.3160329651526939,0.48590210453355753,-0.6809289352930401,0.4476137786388423,-142.87246752612546,-59.92668890790639,-130.89228031010668,1
1767533606.0241,2,right_wrist,0.9433,0.4055,-0.2147,-16.17,-0.91,-22.96,0.5632678403797344,0.02673873250625308,-0.7799752724346465,-0.2713907783407681,115.69060127893715,-59.786548614105705,-136.33547330002943,1
1767533606.0992231,1,left_wrist,0.8438,-0.2786,-0.3909,47.04,8.19,-0.07,0.31122842761615294,0.4931898823438886,-0.6694257658656426,0.4601844736542034,-141.0726585252264,-60.529056769498624,-130.54356984829843,1
1767533606.0992231,2,right_wrist,0.9213,0.4168,-0.1454,-5.25,-7.56,-17.99,0.5611893761130913,0.033141263559766126,-0.7771035685915123,-0.2829808906442243,113.75886195333649,-58.58868011280257,-134.9079727076787,1
1767533606.17049,1,left_wrist,0.8491,-0.3587,-0.4524,9.8,11.34,-10.92,0.31133706086860286,0.49690740762307073,-0.6611058907269144,0.46807185775817844,-139.9336295706814,-61.26233392884705,-130.5078184528414,1
1767533606.17049,2,right_wrist,0.8784,0.4246,-0.1244,-17.5,-8.61,-17.85,0.559194937385581,0.03239710151651047,-0.7748535903860002,-0.29300744577841303,112.48034338940779,-57.951932136369656,-134.58772470739936,1
1767533606.2254488,1,left_wrist,0.8984,-0.3982,-0.5305,-3.78,16.59,-13.02,0.31656383989786774,0.49703174824840857,-0.6590698467304485,0.4673047331591568,-140.29407571274183,-61.860986124422304,-130.3732282215175,1
1767533606.2254488,2,right_wrist,0.8672,0.4631,-0.124,-3.15,-4.76,-11.06,0.5590100658953979,0.0337767515553984,-0.7733803571450574,-0.2970685113979118,111.76298749660367,-57.627690861634925,-134.11923336861256,1
1767533606.2941911,1,left_wrist,0.916,-0.3489,-0.4636,-7.07,-3.08,-1.96,0.3148741087529559,0.49773425629281387,-0.6626357042872747,0.46263249902420206,-141.27054424967235,-61.381664181219406,-129.74314181338428,1
1767533606.2941911,2,right_wrist,0.8799,0.4797,-0.1479,-3.08,-0.91,2.59,0.5636706230995092,0.02893519948087771,-0.7701034731343682,-0.2972857607622609,110.94982690594718,-58.31682338225356,-133.70148705396892,1
1767533606.351979,1,left_wrist,0.9091,-0.3109,-0.3514,8.68,-13.65,9.1,0.3088279704586903,0.4977951321070621,-0.6631185384979124,0.4659389391468283,-140.38104376903917,-60.86363511896656,-130.1051265231719,1
1767533606.351979,2,right_wrist,0.8725,0.4768,-0.1679,-0.56,2.87,3.78,0.5681321521621436,0.025941826470495786,-0.7676128920902726,-0.2955052067490405,110.41306561576332,-58.9679692944876,-133.2320200975743,1
1767533606.429024,1,left_wrist,0.894,-0.3035,-0.3045,6.93,-13.51,13.23,0.2970511992009109,0.4959780698233368,-0.6658498064659066,0.471604044233012,-138.64226594542862,-59.69976646364244,-131.07986865833735,1
1767533606.429024,2,right_wrist,0.8784,0.4812,-0.182,-0.21,3.43,5.81,0.5720622073895736,0.021198417306760056,-0.7666156916684481,-0.2908536389113327,110.55317680444132,-59.85673284900666,-133.3310003865603,1
1767533606.4973052,1,left_wrist,0.8662,-0.2557,-0.2791,-13.37,3.36,-6.65,0.3054584610187954,0.4956557980699232,-0.6644977144050239,0.4684690448494926,-139.50296965253588,-60.49953447265779,-130.84252748627972,1
1767533606.4973052,2,right_wrist,0.8935,0.4675,-0.1898,-2.45,-0.14,8.61,0.573054684917545,0.013170479683309904,-0.7692378396261207,-0.28232607503789575,112.2420460587518,-60.94972365384552,-134.91912705259136,1
1767533606.5489862,1,left_wrist,0.8662,-0.2557,-0.2791,-13.37,3.36,-6.65,0.3137138607764159,0.49509437643143256,-0.6631463266968051,0.4655127510297229,-140.31953804575124,-61.28517503731197,-130.64172709902198,1
1767533606.5489862,2,right_wrist,0.8716,0.4802,-0.1893,-1.82,-0.49,8.19,0.5718389161764809,0.013071491737119793,-0.7694864569438938,-0.28411262314407476,112.2026859937793,-60.764196822331826,-135.05050120774843,1
1767533606.630411,1,left_wrist,0.9292,-0.246,-0.324,-5.67,3.43,-9.17,0.33256742611613105,0.4985188068429872,-0.6568655093680096,0.45760857609210215,-143.17062447371424,-63.27268834477113,-128.79084770810354,1
1767533606.630411,2,right_wrist,0.8926,0.449,-0.1937,6.72,-1.12,8.47,0.5724484883585661,0.009168739623336364,-0.7719600588482601,-0.276217902990923,113.7222789643444,-61.49189403473873,-136.1919139581245,1
1767533606.698966,1,left_wrist,0.9374,-0.264,-0.3182,-9.03,1.82,-8.33,0.3392044701362772,0.4985591770431888,-0.6545954532296542,0.45594283307959715,-143.85084622491854,-63.9893274755565,-128.46019115460172,1
1767533606.698966,2,right_wrist,0.8921,0.4397,-0.1806,0.49,-6.86,5.53,0.5748126500000074,0.003399291412977706,-0.7702974816653849,-0.2760808793774477,113.51145971436067,-62.089090209189564,-136.4309388380431,1
1767533606.7728581,1,left_wrist,0.9355,-0.2298,-0.3211,-12.74,6.02,-7.63,0.3575222408491034,0.49672250043144045,-0.6499374059140998,0.4505840357325413,-145.72902203687005,-65.83419657410313,-127.79613827859123,1
1767533606.7728581,2,right_wrist,0.8833,0.4333,-0.1606,-1.89,-2.66,4.62,0.5767524295288555,0.0013653273763223402,-0.7684869228597748,-0.27709677065464433,112.96588913998872,-62.33738516792149,-136.13265716211907,1
1767533606.847764,1,left_wrist,0.9311,-0.1918,-0.3182,2.59,8.19,-1.68,0.36325614721004035,0.49708984920565036,-0.6453991477158465,0.4521134740952544,-145.79660368579582,-66.68929360510889,-127.68199341729785,1
1767533606.847764,2,right_wrist,0.8535,0.4255,-0.1396,-3.57,-1.05,6.23,0.5817824103679426,-0.004162948860619681,-0.7640021190859763,-0.2789492048301775,111.66959341813846,-63.03560731789081,-135.4297128481537,1
1767533606.9210088,1,left_wrist,0.8989,-0.1767,-0.307,-4.76,13.86,-11.76,0.37748630477788175,0.499294499031725,-0.6380629187176282,0.4484248038404437,-148.02508942516783,-68.35888797293046,-125.93241601799926,1
1767533606.9210088,2,right_wrist,0.8496,0.4402,-0.1366,2.66,2.8,8.4,0.5843430001713681,-0.0037106606830944276,-0.7619764470187333,-0.27914401898791763,110.95394099488853,-63.19961944019219,-134.6839006028308,1
1767533606.97587,1,left_wrist,0.9462,-0.2079,-0.2533,8.12,11.55,-8.54,0.38213151138178997,0.4992154336981283,-0.63120632024044,0.4542444716836758,-146.97840259601648,-69.38043754764388,-126.5091884681684,1
1767533606.97587,2,right_wrist,0.8843,0.4211,-0.1527,7.35,8.89,9.38,0.5902169391591516,-0.0027885952805108563,-0.7583929881519217,-0.2765434215235701,109.86172276894996,-63.737355478851406,-133.26566023149581,1
1767533607.048403,1,left_wrist,0.9799,-0.2098,-0.2508,-0.84,10.36,-9.94,0.388638116668017,0.49818309131207683,-0.6259951102126736,0.4570603283958281,-146.55597132691906,-70.38516666567865,-126.89780316598596,1
1767533607.048403,2,right_wrist,0.9482,0.4211,-0.1796,14.21,3.99,9.8,0.5919346143834391,-0.0015159155876366623,-0.7623228540482218,-0.261677244884675,112.22406208265002,-64.59314004805994,-134.22016264998166,1
1767533607.098783,1,left_wrist,0.9623,-0.1942,-0.2786,-4.62,13.09,-12.53,0.3960639772707241,0.4959479755141156,-0.6212304450858772,0.4596103410393944,-145.95978281151574,-71.43798105080961,-127.62493927045894,1
1767533607.098783,2,right_wrist,0.9326,0.4265,-0.1723,7.21,-0.56,6.86,0.5902754801555812,0.0010676493175843468,-0.7640239103257402,-0.2604633987772527,112.75528947476059,-64.3444250614811,-134.44094640341638,1
1767533607.177384,1,left_wrist,0.9496,-0.1786,-0.2894,-9.8,14.14,-13.37,0.4082373442647693,0.49550632003983724,-0.6184812845801462,0.4530967426194088,-148.66906625920743,-72.55380461783159,-125.86018215158273,1
1767533607.177384,2,right_wrist,0.9043,0.3841,-0.1527,4.55,-1.12,5.18,0.5933845555413989,-0.0015754155903561838,-0.7630051153905029,-0.25635030953478416,112.88774452883723,-65.00146857855789,-134.4209390543399,1
1767533607.2518148,1,left_wrist,0.9555,-0.1723,-0.2635,-2.45,8.19,-12.39,0.40991711659952235,0.49533240911003096,-0.6173237278627624,0.45334884693975863,-148.72006881041125,-72.78867187681277,-125.83351496123575,1
1767533607.2518148,2,right_wrist,0.9062,0.3704,-0.1318,4.34,0.98,5.88,0.6005772887972459,-0.0038309405863785843,-0.7592568751160057,-0.25064165987371556,112.13832824405436,-66.05073442440718,-133.33723349456815,1
1767533607.3241029,1,left_wrist,1.0092,-0.1449,-0.2001,0.0,6.58,-6.3,0.41933379999588705,0.49353963939877343,-0.6091442215002618,0.4577347550011668,-147.9156725771713,-74.29963321759655,-126.5507462629483,1
1767533607.3241029,2,right_wrist,0.9487,0.3601,-0.1269,10.92,4.69,7.14,0.6057758916212107,-0.004601755550768872,-0.7572632832631184,-0.24406292794674986,111.97917496981803,-66.88371057349913,-132.6571694659176,1
1767533607.3997161,1,left_wrist,0.9721,-0.1215,-0.1713,9.94,2.45,-1.33,0.4206824687077987,0.49455442296388424,-0.6042322913921667,0.4618934090109352,-147.06875105575105,-74.84951562320808,-126.88943988282507,1
1767533607.3997161,2,right_wrist,0.9457,0.2928,-0.1176,3.5,2.45,4.9,0.614156120889901,-0.008209511437688834,-0.7541697413294338,-0.23232060683141872,112.02528297103105,-68.46139328387268,-131.9649589535977,1
1767533607.450721,1,left_wrist,0.974,-0.1181,-0.1898,-0.63,4.76,-2.94,0.4257324371941777,0.49426638291082725,-0.600355660367168,0.4626291340912878,-147.26755446147553,-75.58219083420515,-126.72928649879096,1
1767533607.450721,2,right_wrist,0.9389,0.2728,-0.1064,6.09,-0.56,6.16,0.6170171658579318,-0.011412326834290953,-0.7536622016602452,-0.22616998390923757,112.63411966364517,-69.26165878008688,-132.30107609680803,1
1767533607.524487,1,left_wrist,0.9662,-0.0761,-0.1908,4.27,4.13,-1.96,0.43337188195814524,0.49885531952927586,-0.5913377149268729,0.4622249333500561,-149.89072596675217,-76.83167913095448,-123.77979933269529,1
1767533607.524487,2,right_wrist,0.9218,0.2562,-0.1035,0.56,-1.26,5.46,0.6195314696674498,-0.015919958892650014,-0.7527521836849762,-0.22201680782779917,113.04199634319696,-70.01402786019136,-132.71514492416432,1
1767533607.5976052,1,left_wrist,0.9716,-0.1049,-0.2103,3.08,-2.17,-1.4,0.4319293311044056,0.5025886147617172,-0.5914996967974557,0.45931453921263693,-151.9482087193676,-76.57252902129048,-121.6018722909419,1
1767533607.5976052,2,right_wrist,0.9414,0.2518,-0.1147,-3.36,-4.62,1.05,0.6231710293914355,-0.025890022343714535,-0.7503453128716306,-0.2190193743070127,113.25455318713941,-71.1784094991107,-133.47467727120218,1
1767533607.651747,1,left_wrist,0.974,-0.0888,-0.205,17.92,-7.77,6.44,0.42748367030794904,0.5082734071485129,-0.5887560890580292,0.46074084125762144,-152.78477396105814,-76.34427908747452,-119.94063270170392,1
1767533607.651747,2,right_wrist,0.9443,0.3743,-0.1274,-18.83,-9.45,-6.23,0.6181046728128198,-0.026578653506920447,-0.7511242982557728,-0.2303312336494752,112.51155303309015,-70.18476506092045,-133.76537187068922,1
1767533607.7200341,1,left_wrist,0.9667,-0.1132,-0.2216,61.18,-9.94,24.43,0.39223552564517483,0.522860058610139,-0.5812339108001169,0.4847017562048412,-145.42850253349823,-74.32793267297347,-122.59963903160927,1
1767533607.7200341,2,right_wrist,0.9267,0.3001,-0.1069,-37.66,-12.74,-9.31,0.6151923864502408,-0.035782663968613765,-0.7484837613490405,-0.24501017858399185,110.86467145648571,-69.79406609405461,-134.13484063511075,1
1767533607.7723498,1,left_wrist,0.9321,-0.164,-0.2235,82.39,-9.87,40.32,0.35862469728419816,0.5272332119526842,-0.5768405494140556,0.5105569970762946,-136.40162518289227,-72.19519366765573,-127.66144268462071,1
1767533607.7723498,2,right_wrist,0.9043,0.2967,-0.1249,-52.99,-11.9,-20.37,0.6078328258067668,-0.047351588902013624,-0.7473702827468486,-0.2640733673945762,109.83382118774192,-68.99688933416856,-135.71752474764432,1
1767533607.822366,1,left_wrist,0.856,-0.2372,-0.2298,168.56,-8.61,76.72,0.29616831337672245,0.533554606834501,-0.5591158395311321,0.561242629940622,-121.98686335754323,-68.44915625117122,-134.0088993259994,1
1767533607.822366,2,right_wrist,0.8608,0.4158,-0.0781,-95.97,-23.17,-38.08,0.5930360207384219,-0.06009586943627064,-0.7414398962322851,-0.30816171867786424,105.46251464460956,-66.41100716003902,-136.31691551600065,1
1767533607.874252,1,left_wrist,0.8686,-0.6861,-0.1903,222.18,-11.41,128.59,0.2054556332325723,0.5278588337939194,-0.5345662389748929,0.6272096702913339,-105.84876966184727,-61.86216223672594,-139.44445742428374,1
1767533607.874252,2,right_wrist,0.8023,0.7535,-0.08,-143.08,-13.09,-71.05,0.572560576260553,-0.07249923068986837,-0.7255169108633568,-0.3748912643858918,97.81442755280983,-62.27163824220716,-135.8480896069144,1
1767533607.947469,1,left_wrist,0.8584,-1.1683,0.0654,256.69,10.5,178.43,0.09620694232127074,0.498897735888348,-0.5006878433883527,0.7008259105211452,-89.92192799533872,-52.71387562374131,-142.98123297573113,1
1767533607.947469,2,right_wrist,0.7569,1.2254,0.183,-98.42,42.42,-152.25,0.525279931669752,-0.029348515027695005,-0.675488105895253,-0.5166579882714806,82.67940447469637,-47.72860299263265,-131.58335657426923,1
1767533608.02371,1,left_wrist,0.751,-1.3274,0.6344,125.02,107.03,236.39,-0.08960967398455426,0.35086519161428487,-0.48070068861012333,0.7986179134051565,-70.65436478715364,-28.31141330087943,-146.92553745908015,1
1767533608.02371,2,right_wrist,0.7115,1.2034,0.3348,-88.83,74.41,-201.95,0.49686010040589496,0.02941413345078843,-0.6359957305823202,-0.5897239015497372,76.34840132012522,-36.677437538949555,-128.98234065182234,1
1767533608.074104,1,left_wrist,0.6686,-1.2146,0.7432,91.56,149.59,237.16,-0.15418276933600447,0.24115256515017375,-0.48467998727587175,0.826533982299356,-64.70104489538004,-14.429170113633216,-149.6982716611047,1
1767533608.074104,2,right_wrist,0.6895,1.2605,0.4738,-70.7,93.59,-223.16,0.4628553364629601,0.10186814736471345,-0.5885158763916518,-0.6550090696282054,71.677069414656,-24.289435805863494,-127.1760252646667,1
1767533608.1312718,1,left_wrist,0.5178,-1.0868,0.8184,77.0,193.69,225.96,-0.20018596047507775,0.11759138238064522,-0.48616515090392926,0.8424614496017245,-60.024180939837684,-0.19970699565035652,-153.15115467147632,1
1767533608.1312718,2,right_wrist,0.5983,1.1907,0.61,-85.4,114.52,-234.78,0.42715168918047036,0.17573488948553548,-0.5237750800090777,-0.7157641710851848,66.59359553000277,-11.296915059735609,-125.777896249716,1
1767533608.199502,1,left_wrist,0.3758,-1.0985,0.7554,49.42,212.24,214.13,-0.2324368479910244,-0.006684590670276526,-0.49141527953832215,0.8393089127251306,-57.82880001204268,13.8668819808172,-156.7266367593527,1
1767533608.199502,2,right_wrist,0.2377,1.1185,0.9902,-89.67,171.85,-235.13,0.3524321074351734,0.3316498486014602,-0.3543325953602258,-0.8001552345868378,56.55631433378016,16.319082459900468,-123.63610366539089,1
1767533608.270928,1,left_wrist,-0.0381,-0.7388,0.4192,26.95,213.08,180.32,-0.2699184684510031,-0.23892005085040025,-0.4957539024131302,0.7901197997347361,-58.93134308408759,40.17896213591826,-165.6280656499425,1
1767533608.270928,2,right_wrist,0.1459,0.8857,0.7442,-51.24,209.44,-220.22,0.3147727473757087,0.42376706751832555,-0.27101127851632406,-0.8049176833151416,54.90944198620764,30.769215728405843,-121.01093050125559,1
1767533608.3214028,1,left_wrist,-0.1586,-0.5993,0.3587,26.95,194.18,159.11,-0.2765114990810318,-0.33801566856436954,-0.49030153364281803,0.7542487685031004,-62.256797071488805,51.35624687644077,-172.1160371015969,1
1767533608.3214028,2,right_wrist,0.0239,0.7852,0.5153,-24.5,223.16,-186.97,0.28017955827726965,0.5141335906004803,-0.1981970456441607,-0.7860559758934081,56.77694460687194,44.20391130154197,-116.00712054811987,1
1767533608.372403,1,left_wrist,-0.3509,-0.61,0.286,62.44,180.67,133.14,-0.2689699685499621,-0.4281036526089939,-0.47076900964971,0.7230207176799995,-67.1078871889297,60.7271499973647,178.34357709760263,1
1767533608.372403,2,right_wrist,-0.0459,0.5832,0.3001,0.56,203.0,-159.04,0.24403955097700994,0.5920227069843853,-0.1399904896491546,-0.7552194878190115,62.56027595126428,55.678597864100965,-108.60721948337098,1
1767533608.426781,1,left_wrist,-0.3977,-0.4031,0.0268,47.88,171.85,107.03,-0.2544139066168667,-0.5062730790699584,-0.4574460648227758,0.685349714603519,-79.44089181231682,67.927561371942,162.26620036093715,1
1767533608.426781,2,right_wrist,-0.223,0.4597,0.0776,-49.49,147.7,-141.19,0.22118668906715397,0.6411813011556885,-0.07509287935104107,-0.7309747239806438,67.06212139241944,64.70979005672622,-100.78307603310802,1
1767533608.498088,1,left_wrist,-0.5114,-0.4997,-0.2484,40.39,130.83,72.94,-0.23789414825108784,-0.5632765005762603,-0.4460667433298971,0.6535674552955583,-95.89148784447286,71.5339879808077,142.78725474191978,1
1767533608.498088,2,right_wrist,-0.5963,0.4929,-0.0239,-35.07,105.28,-97.51,0.18616003434965864,0.7024778374959423,0.025504290823782236,-0.686453829902299,87.031070512808,76.88913332737997,-75.63923992671963,1
1767533608.549199,1,left_wrist,-0.5275,-0.1698,-0.6041,-46.2,71.47,34.37,-0.24384598617410733,-0.5873151854771729,-0.45959452138480605,0.6199781317496301,-111.61876859632149,72.24810226604605,128.83644792035162,1
1767533608.549199,2,right_wrist,-0.4865,-0.0259,-0.632,65.73,56.98,-46.83,0.14981099924399938,0.7266445099969315,0.025554886547912894,-0.6699935584543758,107.3524628867664,78.91740087385074,-58.33400085391271,1
1767533608.624733,1,left_wrist,-0.9926,-0.4426,-0.0449,11.41,-24.64,-0.7,-0.23773222834396007,-0.5818162279475757,-0.4427568662571981,0.6394838714819752,-103.41606634488713,72.67661363301474,134.83565416234222,1
1767533608.624733,2,right_wrist,-0.7945,0.2503,-0.3777,-2.94,-31.29,-2.45,0.1505830649040097,0.719918732841076,0.024443008570214222,-0.6770851482647148,101.61483735730651,79.18982851722502,-64.10277768713236,1
1767533608.7017322,1,left_wrist,-1.0097,-0.205,-0.1898,-15.75,-7.63,-5.6,-0.2425939898038182,-0.5797605400598553,-0.4476542815555368,0.6361065292115512,-104.21918891470733,72.70281453218253,134.94800415761455,1
1767533608.7017322,2,right_wrist,-0.9531,0.063,-0.1049,-5.04,-9.59,13.93,0.15577993752806613,0.7156510134368235,0.016566304188576207,-0.6806627620166471,97.07142359979498,78.34886042996571,-68.85578076615425,1
1767533608.775554,1,left_wrist,-0.9511,-0.2752,-0.1166,5.25,-18.27,-25.13,-0.24013680977950388,-0.5646177695604793,-0.45230044457259405,0.6472753623651263,-98.45670611336087,71.46944643920166,141.02784525606288,1
1767533608.775554,2,right_wrist,-0.9628,0.2416,-0.1093,-8.4,-28.98,17.43,0.1644285095223303,0.7089598689149991,0.010495808942190524,-0.6857324605988411,91.43202304677774,77.36025654291964,-74.27039638467575,1
1767533608.845175,1,left_wrist,-0.8042,-0.2181,-0.2694,-15.96,-28.84,-46.9,-0.2360286399098728,-0.5478027520560023,-0.466388223340941,0.653211031069628,-95.73341611540972,69.36160618431967,144.90932611486593,1
1767533608.845175,2,right_wrist,-0.771,0.063,-0.2908,11.34,-59.5,41.86,0.1742411720206245,0.6891128458573064,-0.016994362543133065,-0.7031889442312614,79.34658323957503,74.41455151005005,-87.76603567191482,1
1767533608.899327,1,left_wrist,-0.6329,-0.243,-0.3133,-20.16,-79.1,-87.36,-0.23076379062515986,-0.5069366435682492,-0.4860045232658731,0.6734707979631905,-88.14420049148147,65.1101441300349,154.38981438532934,1
1767533608.899327,2,right_wrist,-0.5812,0.2264,-0.2274,51.24,-91.21,98.35,0.18794645184074812,0.6658776888322793,-0.06969725065781143,-0.7186273916339385,73.54749972634802,68.56569609755287,-96.68904373255354,1
1767533608.975296,1,left_wrist,-0.387,-0.5183,-0.0195,-49.14,-155.61,-179.2,-0.21100983910284155,-0.34077173468300476,-0.5567430805409016,0.7275895923614877,-77.49200012541641,46.956900028339625,173.91206190984875,1
1767533608.975296,2,right_wrist,-0.408,0.1869,-0.0742,56.21,-111.93,154.0,0.21561363135041758,0.6311679092915048,-0.14149269747713594,-0.731517360571245,71.19081658005997,59.587704669522715,-102.58230778752218,1
1767533609.0491571,1,left_wrist,-0.2508,-0.6637,0.0429,-110.46,-144.62,-224.7,-0.1864124000761998,-0.22529112943198248,-0.6092213255614984,0.7371185118949214,-79.1402167295552,34.00500653646447,-179.97845394489372,1
1767533609.0491571,2,right_wrist,-0.0913,0.732,0.1322,87.22,-139.44,238.49,0.28227271146062677,0.5283626763712514,-0.3166190103364961,-0.7354640717778209,72.48092977653434,36.75808915852248,-110.63249335015051,1
1767533609.0995572,1,left_wrist,-0.1435,-0.7471,0.0473,-57.54,-157.29,-242.97,-0.15116122536903775,-0.10132321596455664,-0.6352231257841412,0.7505834199611368,-79.41642479645846,20.12962824665812,-173.99699160419476,1
1767533609.0995572,2,right_wrist,-0.0913,0.732,0.1322,87.22,-139.44,238.49,0.3194984465315883,0.45567458019301343,-0.4167368735109361,-0.71875712023336,75.06949481977688,22.87644027603215,-114.39665406580306,1
1767533609.17451,1,left_wrist,0.1313,-1.2922,0.7398,-111.72,-147.56,-287.35,-0.047401774779013105,0.17171235440999907,-0.6808240839002723,0.7104551399434939,-89.1853615246037,-10.337335862539035,-162.17356513883834,1
1767533609.17451,2,right_wrist,0.1113,1.1673,0.4089,135.94,-126.14,264.18,0.35157025475422177,0.3798814560780533,-0.5261431900396535,-0.6747308936716674,80.83040535168549,8.203125032789858,-117.96779599332687,1
1767533609.244083,1,left_wrist,0.649,-1.4103,0.3089,-239.89,-59.78,-322.84,0.054465258777499304,0.2886763597566946,-0.7162987244041871,0.6329420449937404,-102.4241876621636,-26.324698727757834,-157.38835289707563,1
1767533609.244083,2,right_wrist,0.5505,1.1434,0.2191,167.51,-59.08,292.74,0.436386322718326,0.22014857733686474,-0.6942293745331096,-0.5283437865408271,93.76013997107785,-21.91780788545583,-124.25579939498117,1
1767533609.301954,1,left_wrist,0.9038,-0.6554,-0.2211,-133.77,40.53,-286.65,0.1652964084786435,0.36316220347920725,-0.7078613192060256,0.5828573273796029,-110.66242568887893,-41.09864087539857,-154.7503977248994,1
1767533609.301954,2,right_wrist,0.9496,1.1463,0.0386,108.08,-50.61,292.39,0.4764535338828362,0.1358307332230991,-0.749621632593296,-0.43887293139449124,101.5394382065612,-36.51939672500945,-129.30590548778324,1
1767533609.3743281,1,left_wrist,1.1678,-0.3265,-0.3362,-39.76,76.79,-209.3,0.3469686709679001,0.45885476312188145,-0.6538528686244661,0.49146869067997406,-130.41625218350822,-64.79076605512931,-142.5488595196159,1
1767533609.3743281,2,right_wrist,1.1492,1.0673,0.0478,144.62,-20.93,270.55,0.5111469036198141,0.0705877522226893,-0.7891446800942888,-0.3331619516615116,113.13247350518984,-49.438058397087254,-135.9654499398816,1
1767533609.44865,1,left_wrist,1.2249,-0.305,-0.2557,-122.08,61.04,-185.92,0.42990317166233155,0.47849428616752243,-0.6277203595114116,0.4383989408684344,-150.53475674450345,-73.58919717898704,-127.61877292412608,1
1767533609.44865,2,right_wrist,1.1463,0.8647,-0.1684,61.04,17.92,161.07,0.5635783496875467,-0.012690521366661576,-0.8063099626067425,-0.1791162712653906,137.59349628599392,-65.97724268949328,-153.53455718914398,1
1767533609.5230432,1,left_wrist,1.1834,0.0034,-0.3328,18.48,42.21,-93.8,0.5094704448984357,0.5150699580535245,-0.5626639431275342,0.39818600074576366,154.8948483478062,-79.58006159946707,-74.0453978840609,1
1767533609.5230432,2,right_wrist,1.0731,0.1513,-0.2591,22.89,30.66,122.43,0.5854627794115442,-0.050117536641540866,-0.7972744134249315,-0.13811254882386595,149.688104942769,-71.33262928370551,-165.1919952343787,1
1767533609.575444,1,left_wrist,1.0726,-0.0971,-0.3157,13.51,27.44,-77.35,0.5229810452302656,0.5314683119605905,-0.5394714304194749,0.3911557688092879,137.67375261552948,-78.53331347222834,-55.732248539602196,1
1767533609.575444,2,right_wrist,1.0463,0.3963,-0.2679,47.39,15.33,103.95,0.5974078423640512,-0.07037669598095916,-0.7926800522546821,-0.09904203805580374,164.70008126490504,-73.95544524192765,-178.59753392748453,1
1767533609.648833,1,left_wrist,1.0726,-0.0971,-0.3157,13.51,27.44,-77.35,0.5358966463250882,0.5471218451763626,-0.5157162972020066,0.38406922785949255,124.4691343324125,-76.657161167448,-41.420099170777895,1
1767533609.648833,2,right_wrist,0.9902,0.2201,-0.2342,9.87,14.7,58.45,0.6151979149006618,-0.10852077676257964,-0.7776658358165955,-0.07064428013930314,-174.2066577822086,-76.45090852460017,159.54716152892703,1
1767533609.6989949,1,left_wrist,1.0287,-0.0732,-0.2918,11.2,18.76,-27.37,0.5387297867720362,0.5520245787322083,-0.5059493643893096,0.3860755392331113,120.74921898078165,-76.26068056270321,-36.90286182847586,1
1767533609.6989949,2,right_wrist,0.9765,0.2015,-0.2489,-4.13,12.53,40.95,0.6197388260905154,-0.12010793987553979,-0.7727930397611591,-0.06548883806811086,-167.95213852264172,-76.80307615199347,152.76884604449188,1
1767533609.7693608,1,left_wrist,0.9643,0.0137,-0.2396,12.39,-1.47,0.77,0.5299208089181295,0.5581956877058415,-0.5050200846004401,0.39058446545186915,124.06279162382756,-76.23659456523562,-39.03682359847225,1
1767533609.7693608,2,right_wrist,0.9648,0.1249,-0.2289,9.31,5.11,27.51,0.622096487145339,-0.12367342379204922,-0.7708542723507715,-0.059029956187885646,-163.98481482545938,-76.8284937109566,149.0399727882601,1
1767533609.824388,1,left_wrist,0.9462,0.0805,-0.2201,21.63,-5.53,11.34,0.5182776729412254,0.5614799910141826,-0.508189955732131,0.39733039440032303,129.53148907381225,-76.6438975453114,-43.43519906600974,1
1767533609.824388,2,right_wrist,0.9531,0.0268,-0.1972,-1.19,4.27,10.08,0.6240304148838368,-0.12422920704067396,-0.7690682583960808,-0.060721984038492584,-163.9154990127169,-77.14361530182846,148.79049295947496,1
1767533609.895571,1,left_wrist,0.9526,0.0351,-0.1742,13.02,-9.87,15.05,0.5073278913657946,0.5612083260406506,-0.514636224000047,0.40350115535393544,136.00248448260606,-77.18079448594547,-49.304024448063835,1
1767533609.895571,2,right_wrist,0.934,0.0683,-0.1459,-4.13,-3.43,-9.24,0.6250968514391203,-0.11535470797076182,-0.76886269482207,-0.06926307949277843,-169.7684609388589,-77.74347697245656,154.6796220916976,1
1767533609.946165,1,left_wrist,0.9438,0.0473,-0.1376,15.82,-8.82,24.29,0.49521478295260757,0.558267766182978,-0.5217001520443841,0.4134348453422087,144.0606580096439,-78.04814196234535,-56.66551193564239,1
1767533609.946165,2,right_wrist,0.9516,0.0288,-0.1332,5.18,-5.81,-14.77,0.6249120354934021,-0.10715442915401141,-0.7697919410331213,-0.07364267600128588,-174.36225615611832,-77.92833325240379,159.58999650981337,1
1767533610.0198379,1,left_wrist,0.9755,0.0425,-0.1835,29.82,-9.45,41.86,0.46363047903680826,0.5488998855497565,-0.5404348681989238,0.43781942371984295,169.1619386839229,-79.04062165697994,-80.16036873884828,1
1767533610.0198379,2,right_wrist,0.9648,0.0425,-0.141,-12.04,-8.89,-27.86,0.6223073161570646,-0.099315860055108,-0.7715186288121619,-0.08734397285850344,176.95965522847297,-77.84801844679924,167.7851183759251,1
1767533610.0723908,1,left_wrist,0.9565,-0.0366,-0.2713,30.45,-9.1,53.13,0.44075677935005864,0.5443330515457138,-0.5515032171560545,0.45307746789971437,-174.34036517128723,-78.35233877180302,-95.3630002199355,1
1767533610.0723908,2,right_wrist,0.9482,0.1225,-0.1806,-21.49,-9.24,-40.95,0.6167455585212994,-0.08865062813653533,-0.7745168142727457,-0.10903983943515994,164.54905755441138,-77.08238468093252,179.27641273842286,1
1767533610.1254091,1,left_wrist,1.0751,-0.2357,-0.3357,63.63,-22.33,94.64,0.3974994428786809,0.5364987154612019,-0.5676766170539591,0.48156679668535224,-151.36207890442077,-75.47132569115747,-115.58269640030997,1
1767533610.1254091,2,right_wrist,0.9721,0.3787,-0.223,-63.7,-11.69,-83.72,0.6048480317238206,-0.07488727916741153,-0.7772608049890153,-0.15625746371469723,145.24072314310067,-74.50477656869191,-164.22935456366352,1
1767533610.1984792,1,left_wrist,1.1502,-0.5022,-0.4324,113.47,-18.76,173.81,0.3246988813503435,0.513584942170032,-0.587914273102216,0.5340018268777115,-126.62560542580783,-68.48175413908294,-135.49639102908412,1
1767533610.1984792,2,right_wrist,1.0917,0.7505,-0.1976,-116.13,-19.81,-201.88,0.5499821823104204,-0.013096743311232685,-0.7674275665741684,-0.3292461154178698,109.95319482504696,-58.51391991783998,-139.0866617531521,1
1767533610.24994,1,left_wrist,1.1844,-0.6559,-0.3382,127.19,-24.43,230.3,0.2310281508097599,0.47280565283307185,-0.6113382956933509,0.5910552397206751,-111.10022445420529,-57.28626267477454,-145.644230199276,1
1767533610.24994,2,right_wrist,1.0609,0.8818,-0.163,-109.27,12.04,-250.25,0.5127298257488523,0.048753394773338996,-0.7436153854862507,-0.4263418707490046,99.19080783219877,-46.135148390045735,-132.6466005861656,1
1767533610.3241339,1,left_wrist,0.9784,-1.1473,0.1493,174.58,27.51,302.75,0.003179712192913482,0.32805097233146074,-0.6066517260279082,0.7241174851432004,-86.81895081671273,-28.617033044913924,-153.37377074521058,1
1767533610.3241339,2,right_wrist,1.0502,1.2883,0.1469,-120.05,39.2,-261.24,0.47608735290664395,0.11438339389141078,-0.6988434092261573,-0.5214164947385042,90.20049529058875,-33.10248140437956,-128.41589569112688,1
1767533610.40081,1,left_wrist,0.8716,-1.2439,0.4163,175.49,81.06,328.51,-0.10216054958914678,0.212279316317645,-0.5873792147557195,0.7742650528367602,-77.00907499665134,-12.04658670154291,-155.37022447760413,1
1767533610.40081,2,right_wrist,0.8101,1.2444,0.6012,-129.78,102.76,-311.57,0.39418139806759556,0.27574079940891366,-0.5398791112535849,-0.6907377086788071,74.61758838046224,-2.561485769142067,-122.52811105057197,1
1767533610.479852,1,left_wrist,0.487,-1.0424,0.5944,67.2,184.17,283.08,-0.23026603117018765,-0.057350251598109726,-0.5630639068560709,0.791610725247417,-67.44194427777983,20.49386784961107,-161.32214041906968,1
1767533610.479852,2,right_wrist,0.6681,1.3283,0.6856,-103.95,150.64,-313.11,0.3461351865573604,0.36939633109651626,-0.43947342712383053,-0.7420241842766105,69.42469369347391,14.120829673505545,-120.17629452628753,1
1767533610.5545259,1,left_wrist,0.2445,-0.8159,0.3914,69.58,183.47,259.7,-0.268419669148303,-0.18624117111645563,-0.5452768834865608,0.7719703541786239,-65.63608078050544,35.46963422399331,-164.96140829702696,1
1767533610.5545259,2,right_wrist,0.1913,0.9882,0.5007,-70.84,196.28,-261.1,0.2542955634251947,0.5442816150908872,-0.23285553459268774,-0.7647676705417612,64.71002442757614,45.56701007130227,-113.41332607626569,1
1767533610.627486,1,left_wrist,-0.1747,-0.4851,0.081,37.73,154.21,161.14,-0.2930350317044664,-0.3843543970375985,-0.5234799918671295,0.701691432031642,-72.92325277833652,57.799909728013155,-179.0498249017946,1
1767533610.627486,2,right_wrist,0.0795,0.5641,0.2508,-14.84,182.91,-215.74,0.20532367291239825,0.6191696840141591,-0.15765567673465092,-0.7413607619323457,69.38842000461739,58.57411532615713,-106.59835370850429,1
1767533610.696606,1,left_wrist,-0.385,-0.5085,0.1113,42.28,130.76,122.71,-0.2899701046575327,-0.4534333504891528,-0.5071361753068918,0.6731481521657608,-79.94684125233219,64.76466587430608,170.61535243488208,1
1767533610.696606,2,right_wrist,-0.3919,0.3396,-0.0332,-28.49,98.77,-119.84,0.14226096072072603,0.7064131506889291,-0.05061323635662929,-0.6915060230352764,90.66861978743053,74.27579038275475,-81.82948159962294,1
1767533610.7704399,1,left_wrist,-0.6349,-0.4729,-0.1088,28.35,115.57,79.8,-0.2647518009990581,-0.5633482726155061,-0.4782624783377341,0.6195241798534816,-107.39396544128302,72.03729459077567,136.87551291178195,1
1767533610.7704399,2,right_wrist,-0.549,0.1874,0.0351,-49.49,69.23,-82.6,0.1361232486643142,0.7230308903304669,-0.00741659538357324,-0.6772309701379007,102.44491302735985,77.76826087453341,-67.05178712488915,1
1767533610.825953,1,left_wrist,-0.5324,-0.061,-0.8096,-63.28,80.08,31.71,-0.27089555428441936,-0.5860732941294449,-0.4978055419658149,0.5790710966412672,-125.182257519123,71.52514672792583,121.64720742539527,1
1767533610.825953,2,right_wrist,-0.771,0.3065,-0.0215,-17.29,59.71,-61.32,0.12709722442522814,0.7390055620685575,0.01723838507676045,-0.6613772848042817,119.36110935061566,79.08370258269575,-48.86964816504499,1
1767533610.8950531,1,left_wrist,-0.6466,0.1854,-0.5793,28.84,-27.09,-10.08,-0.26758404106803596,-0.5834119840677656,-0.4900393503636821,0.5898225774815281,-121.20193864778462,71.89203611459214,124.50326082734672,1
1767533610.8950531,2,right_wrist,-0.8564,0.0176,-0.2503,-51.45,-32.2,14.98,0.11724500955330498,0.7513368110028157,0.01796154846981089,-0.6491717699835162,130.30521494963466,78.43705801318158,-38.66617462307676,1
1767533610.949116,1,left_wrist,-1.0677,-0.6237,0.0117,1.96,-25.62,-8.33,-0.26873080269295613,-0.5726532762697664,-0.48936936154173893,0.6003079283548843,-115.73096537725819,71.90703057897503,130.01926366123172,1
1767533610.949116,2,right_wrist,-1.0887,0.3436,-0.0005,12.25,5.67,15.05,0.12004399266253668,0.7519906709987678,0.007770080279553614,-0.6481042326731937,127.56186879138619,77.5813092696683,-42.00603164965666,1
1767533611.024061,1,left_wrist,-0.9521,-0.3055,-0.2113,15.33,-27.09,-14.91,-0.27016740856643123,-0.5619077624866292,-0.498556332403676,0.6022547809905406,-113.41925228891384,71.1221687824756,133.4561785576835,1
1767533611.024061,2,right_wrist,-0.9755,0.1893,-0.223,8.12,6.72,13.72,0.1212824580631672,0.756688822724998,0.000881691834361498,-0.642426504394644,128.51142544127046,76.51912233628782,-41.508291949002114,1
1767533611.094296,1,left_wrist,-0.9335,-0.3001,-0.1435,1.19,-20.37,-20.86,-0.26677605383917186,-0.5532011287300016,-0.5031167064178104,0.6080070953476991,-110.48899456008404,70.2437929356388,136.6005643145199,1
1767533611.094296,2,right_wrist,-0.8721,0.202,-0.163,3.71,-33.6,21.49,0.12733600931916947,0.7467239162926474,-0.014279841180784765,-0.6526752789121792,118.9697305117224,76.19172148188063,-51.792586173762814,1
1767533604.229541,1,left_wrist,0.0839,0.0732,-0.977,0.42,-1.05,-0.21,0.044708171409894144,0.05669517014314106,-0.9967292221131554,-0.03630006718076534,175.5428531600024,-4.876473679158555,-173.2990236660147,1
1767533604.229541,2,right_wrist,0.0371,0.345,-0.916,3.43,-2.8,0.07,0.12081463520651468,0.5796389012815314,-0.7941125379750672,-0.13714169705765428,159.01869014598861,-1.8851138608540476,-107.39796859433157,1
1767533604.297241,1,left_wrist,0.0937,0.082,-0.9784,0.28,-1.47,-0.07,0.04849364991704964,0.05662956782770746,-0.996476000295921,-0.0384322624836637,175.27129245567377,-5.295518911614234,-173.27597437187242,1
1767533604.297241,2,right_wrist,0.0434,0.3523,-0.9101,5.11,-2.66,0.07,0.12414730799760815,0.5785237288806769,-0.7949960797088369,-0.1337122817340447,159.11025763231504,-2.4462295820334834,-107.46174324964358,1
1767533604.35392,1,left_wrist,0.0922,0.081,-0.9804,-0.07,-1.26,-0.56,0.052851184020768195,0.056611572160841714,-0.9962822885788934,-0.03772908306708983,175.32066270284588,-5.798922742341898,-173.25844628784353,1
1767533604.35392,2,right_wrist,0.042,0.3562,-0.916,2.24,-3.01,0.07,0.12529988448119278,0.5780137282087705,-0.7945563548379635,-0.13740548729146718,158.68483689071485,-2.307989505282418,-107.49628876768095,1
1767533604.4213262,1,left_wrist,0.0864,0.08,-0.977,3.36,-0.98,-0.42,0.04482099336591306,0.05728194842446534,-0.9966144067187406,-0.03833511783003162,175.30558584289165,-4.8729584782318955,-173.22105197290688,1
1767533604.4213262,2,right_wrist,0.0376,0.345,-0.9091,0.07,-3.36,0.28,0.12078728604247171,0.5782749005163116,-0.7954729299787018,-0.13502365953581402,159.22237633527848,-2.0633487621583266,-107.59057491100333,1
1767533604.473845,1,left_wrist,0.0947,0.0742,-0.9838,0.14,-0.7,-0.77,0.0485667488368515,0.05731774599773812,-0.9965447664867687,-0.03541857265600301,175.61319061031946,-5.32112198459293,-173.21240064549596,1
1767533604.473845,2,right_wrist,0.0312,0.3655,-0.9233,-2.17,-3.36,0.35,0.1216687140510848,0.5776399962022344,-0.7947583913137113,-0.14102431792098774,158.59910070074824,-1.7461809921065523,-107.64980304540711,1
1767533604.5238929,1,left_wrist,0.0859,0.0878,-0.9872,0.98,-2.31,0.28,0.04547893372703794,0.057470455286904316,-0.9965248548184342,-0.03958569293654597,175.15634092966562,-4.938808266266204,-173.1897054858579,1
1767533604.5238929,2,right_wrist,0.0298,0.3743,-0.8945,-3.5,-3.92,1.47,0.12403935008553152,0.5762259539136231,-0.7943697023208787,-0.14681507314078063,157.89244352707598,-1.596976662733065,-107.77467032791971,1
1767533604.573992,1,left_wrist,0.0732,0.0766,-0.9823,1.12,-2.59,0.07,0.039849438608429856,0.057512846402952185,-0.9968620012366732,-0.03701952500557436,175.49115668809276,-4.3121729832662385,-173.22624887585252,1
1767533604.573992,2,right_wrist,0.0078,0.3938,-0.8223,-3.22,-3.99,10.36,0.12558109551082738,0.5719590832177118,-0.7961040417158755,-0.15267793009699449,157.23990933138657,-1.4497480861378984,-108.31765493933082,1
1767533604.6245189,1,left_wrist,0.0874,0.08,-0.9965,3.78,-2.94,0.7,0.04345036085036721,0.05704155804426594,-0.996786085048024,-0.03571872691584679,175.6168595729007,-4.734955274895184,-173.26828359238235,1
1767533604.6245189,2,right_wrist,0.1244,0.3338,-1.035,-17.57,-2.24,-0.77,0.13000291201567518,0.5708701079669113,-0.7958051007201903,-0.15459884981790586,156.7544123613335,-1.742188310059106,-108.33416481396635,1
1767533604.6985621,1,left_wrist,0.1366,0.0795,-1.016,10.99,-6.02,0.63,0.045514145972516,0.05668617619357906,-0.9968743952485587,-0.030928628206945478,176.15372820378798,-5.004692026621035,-173.32273290310195,1
1767533604.6985621,2,right_wrist,0.1137,0.3611,-1.0282,-26.25,-18.76,-5.04,0.12825175372463793,0.5696683668022234,-0.7952711475164287,-0.1630130100922775,156.07950167129636,-1.0464583483085668,-108.54878109764523,1
1767533604.7748759,1,left_wrist,0.1537,0.1166,-1.1161,20.02,-18.13,-0.42,0.03677109288296126,0.057350967002785434,-0.9974745554057924,-0.020081449899213736,177.45572497690407,-4.074474760430916,-173.3281515080402,1
1767533604.7748759,2,right_wrist,0.1606,0.6783,-1.0765,-79.31,-29.4,-8.4,0.14124922412630278,0.5647282880526941,-0.7882361938223819,-0.1995352603055292,151.69933620087056,0.15417798962761703,-108.79980064562857,1
1767533604.828056,1,left_wrist,0.6007,0.0766,-0.955,80.99,-44.38,1.96,0.019723848391015455,0.05727115376530494,-0.998063631903466,0.014141125227567577,-178.5107084117016,-2.349273445391205,-173.46221785161765,1
1767533604.828056,2,right_wrist,0.3177,0.6076,-1.0502,-69.23,-42.56,-17.85,0.14610032781325957,0.5615368118126758,-0.7805335497927374,-0.232590801279978,148.1659305226586,1.8993694364769256,-109.07719604563036,1
1767533604.896495,1,left_wrist,0.2352,-0.243,-1.1292,63.42,-57.68,19.11,-0.004162317506465072,0.04976319406111443,-0.9977710445381098,0.044263329191786105,-174.90862990021728,0.22349481503509577,-174.2796142553546,1
1767533604.896495,2,right_wrist,0.2786,0.6593,-0.5924,-147.84,-76.65,-65.31,0.14950019342023343,0.5581881084737522,-0.7362816475309147,-0.3520867268656536,135.9050150168655,9.957215924658815,-109.70826836556894,1
1767533604.948521,1,left_wrist,0.3665,-0.1083,-1.1097,-32.06,-61.46,45.99,-0.0263906188506236,0.03115256681155142,-0.9987392122750034,0.02920682594940417,-176.55662184612058,2.917326592460056,-176.33912236036213,1
1767533604.948521,2,right_wrist,0.1825,0.791,-0.5973,-54.81,-38.57,-71.96,0.14334568682256352,0.5697909141673623,-0.7128933497730154,-0.3828490564845344,133.18968620677413,13.409397593693122,-108.55754990027846,1
1767533604.999142,1,left_wrist,0.2889,0.2538,-0.9335,-20.37,-70.28,41.79,-0.053779906127282125,0.01405932248433482,-0.9983284262415112,0.01582436432750512,-178.0917562418667,6.138665040461261,-178.28399757347273,1
1767533604.999142,2,right_wrist,0.0878,0.6178,-0.5846,36.05,-10.92,-52.22,0.12599393753871932,0.5850316031101086,-0.707985036828111,-0.37499431821482865,135.36120556017912,15.091626650982086,-107.08932283385973,1
1767533605.0491982,1,left_wrist,0.0854,0.1391,-0.7725,-15.75,-56.07,6.37,-0.07461527956185172,0.011913250573259034,-0.9971283008188995,0.005078013656905385,-179.3102287496096,8.55049762430303,-178.5794104368127,1
1767533605.0491982,2,right_wrist,-0.0068,0.5324,-0.5153,1.75,-2.1,-14.56,0.12654441700498026,0.5879925006473592,-0.7061547799949222,-0.37362649316885715,135.515709891646,15.109184014683027,-106.6427534660186,1
1767533605.100678,1,left_wrist,-0.0293,0.2406,-0.6217,-0.84,-30.73,-16.66,-0.08673654346324931,0.018933860320142545,-0.996051198492645,0.0005393911295777835,-179.74643172423575,9.948775267623923,-177.79993003776545,1
1767533605.100678,2,right_wrist,-0.1864,0.4016,-0.5163,-9.8,14.7,33.88,0.13642556813630244,0.5808798926693076,-0.7131246382250057,-0.36799438176096616,135.3579034759447,13.47047168189995,-107.22220904685476,1
1767533605.176289,1,left_wrist,-0.1449,-0.0527,-0.6188,58.38,83.72,-89.53,-0.046024743745374484,0.06981889377431619,-0.9952001376767895,0.050830414157298054,-173.80077159019143,4.847837976596714,-171.71123420971264,1
1767533605.176289,2,right_wrist,-0.2006,0.2957,-0.5451,-2.31,19.39,91.35,0.1541860753791766,0.5567804564160027,-0.7347668828766448,-0.35544311125705264,135.23605648056403,9.74281497347952,-109.71302475840555,1
1767533605.244716,1,left_wrist,-0.1659,-0.1615,-0.5466,30.31,111.44,-144.06,0.0009970101534250084,0.12891812943049838,-0.9889755060264318,0.07284621029716257,-171.72872102119075,-1.1892267218503336,-165.23213918829637,1
1767533605.244716,2,right_wrist,-0.0976,0.3845,-0.4753,-72.59,29.19,215.25,0.24924121693550452,0.431971677410117,-0.7924856235770649,-0.35106384336708535,129.1927245722355,-5.263767019897556,-120.31056896408577,1
1767533605.295203,1,left_wrist,-0.1659,-0.1615,-0.5466,30.31,111.44,-144.06,0.04744201248623233,0.18675263353504648,-0.976818373046338,0.09326615355039461,-170.453832483877,-7.3262978236528316,-158.96564802122398,1
1767533605.295203,2,right_wrist,0.0112,0.4787,-0.4709,-51.24,37.24,245.84,0.3038183693100464,0.3469734817447842,-0.8229352482481311,-0.33178513924899217,128.18116619549428,-15.6526278726209,-126.63659565721741,1
1767533605.34723,1,left_wrist,0.0195,-0.3514,-0.7901,196.98,176.12,-167.09,0.10984019210748183,0.25214726837449625,-0.9423898591010679,0.19041596758817506,-161.42916326791143,-17.64090357926115,-152.9480296828721,1
1767533605.34723,2,right_wrist,0.2133,1.1536,-0.6632,20.79,37.94,253.54,0.34855232813442,0.2632332272050069,-0.8526163754900282,-0.28681851211795895,131.3770787078763,-26.31862079096495,-133.6268270628497,1
1767533605.425053,1,left_wrist,0.5334,-0.5539,-0.8267,32.62,144.97,-158.83,0.24167862399609294,0.3630004370274551,-0.8585371504321953,0.26969628612385044,-158.69944164500774,-37.64591574968693,-141.4970679901172,1
1767533605.425053,2,right_wrist,0.4104,0.4255,-0.67,6.23,50.12,196.21,0.3879210521444014,0.19640020606629757,-0.8667526817419133,-0.24430310078567996,135.18793143969864,-35.20480664110034,-139.5608631216672,1
1767533605.482236,1,left_wrist,0.855,-0.4524,-0.5178,150.99,138.11,-118.93,0.2839542736504899,0.40443838882152433,-0.8015282893693432,0.33667783037159843,-153.13530148119827,-46.679359245161535,-138.21786770124686,1
1767533605.482236,2,right_wrist,0.6856,1.0741,-0.5153,-123.76,46.97,176.12,0.4340936353685349,0.11392407204444047,-0.8551606460561553,-0.2593921567398707,132.00241515645027,-43.10500597038895,-144.87746360806162,1
1767533605.546407,1,left_wrist,1.1092,-0.7076,-0.5832,76.58,99.75,-124.32,0.32314072407873096,0.44009144337946493,-0.7526674951888171,0.3679554804487146,-152.62298928584156,-54.12556113412547,-133.5560836418836,1
1767533605.546407,2,right_wrist,1.0126,0.7559,-0.5207,-15.12,72.59,123.69,0.514362322706768,0.02068488276157845,-0.827251950083637,-0.2250727608744741,133.19020091333243,-57.32041931678279,-150.51441633765464,1
1767533605.6256819,1,left_wrist,1.3274,-0.4285,-0.5436,-8.05,15.96,-55.3,0.3804486686425668,0.47541113995654477,-0.710918030081679,0.35190710853590595,-163.32767257409088,-61.10856422960719,-122.34391907425137,1
1767533605.6256819,2,right_wrist,1.117,0.7183,-0.4148,5.88,56.98,81.27,0.5428402123957592,0.00031299597616398287,-0.813781871495549,-0.2075655835268641,133.81698575908194,-62.052465234008444,-151.1889421644962,1
1767533605.7056031,1,left_wrist,1.1258,-0.3928,-0.4016,20.09,-17.5,17.92,0.36793850205833395,0.4737591362221286,-0.7141000147341662,0.3608804629039863,-160.4153565137204,-60.16141908042747,-124.29443682273178,1
1767533605.7056031,2,right_wrist,0.9462,0.3216,-0.3953,-11.27,16.1,-12.88,0.5581047225107617,0.004531247329849542,-0.8035819575321516,-0.20677191307722825,130.83068117645436,-63.52023669501808,-147.72655663848204,1
1767533605.773516,1,left_wrist,0.7525,-0.1205,-0.4031,39.83,-13.93,27.44,0.337412554706154,0.46648052516622873,-0.7227451266942947,0.3823456151271438,-153.6339965422174,-57.61199952862622,-129.0002665055428,1
1767533605.773516,2,right_wrist,0.8408,0.3797,-0.3299,-44.59,7.14,-19.32,0.5557947628255595,0.003137025238849945,-0.7992090940273078,-0.22879502772652321,126.92866278357852,-62.493319177201805,-145.83882716266365,1
1767533605.828738,1,left_wrist,0.7998,-0.2142,-0.4109,19.18,-3.64,3.64,0.3344653125901965,0.46819915037716314,-0.718939788404429,0.38993344420431514,-152.33902147780486,-57.78502431528452,-129.32657488952358,1
1767533605.828738,2,right_wrist,0.8223,0.4494,-0.2913,-17.36,8.68,-15.61,0.5549862790666592,0.008146452715320652,-0.7958843474575192,-0.24185113360912763,124.1228661253665,-61.57841483304465,-143.75324352757312,1
1767533605.899035,1,left_wrist,0.8589,-0.1898,-0.3972,23.17,-1.05,1.82,0.33253267888832116,0.47151672566726244,-0.7134092597105578,0.3976697411755314,-151.24589339646437,-58.15511861283891,-129.30037898244362,1
1767533605.899035,2,right_wrist,0.9365,0.4246,-0.2484,-15.75,7.63,-20.37,0.5612164744944582,0.023226658062317745,-0.7873893377669551,-0.25399728715516495,119.49896224488977,-60.6910386786079,-138.91953643542305,1
1767533605.9490838,1,left_wrist,0.8823,-0.2162,-0.4002,41.72,2.8,0.28,0.3279481336637064,0.4769846564658011,-0.7036281854935447,0.4121201714327454,-149.03833495876626,-58.721872989491075,-129.4462514307684,1
1767533605.9490838,2,right_wrist,0.9677,0.4128,-0.2045,-13.93,4.34,-21.07,0.5634660279776054,0.025750142218981635,-0.7827969297832627,-0.2628153956919963,117.25058303009209,-60.299117826729905,-137.22439419543662,1
1767533606.0241,1,left_wrist,0.8438,-0.2786,-0.3909,47.04,8.19,-0.07,0.3160329651526939,0.48590210453355753,-0.6809289352930401,0.4476137786388423,-142.87246752612546,-59.92668890790639,-130.89228031010668,1
1767533606.0241,2,right_wrist,0.9433,0.4055,-0.2147,-16.17,-0.91,-22.96,0.5632678403797344,0.02673873250625308,-0.7799752724346465,-0.2713907783407681,115.69060127893715,-59.786548614105705,-136.33547330002943,1
1767533606.0992231,1,left_wrist,0.8438,-0.2786,-0.3909,47.04,8.19,-0.07,0.31122842761615294,0.4931898823438886,-0.6694257658656426,0.4601844736542034,-141.0726585252264,-60.529056769498624,-130.54356984829843,1
1767533606.0992231,2,right_wrist,0.9213,0.4168,-0.1454,-5.25,-7.56,-17.99,0.5611893761130913,0.033141263559766126,-0.7771035685915123,-0.2829808906442243,113.75886195333649,-58.58868011280257,-134.9079727076787,1
1767533606.17049,1,left_wrist,0.8491,-0.3587,-0.4524,9.8,11.34,-10.92,0.31133706086860286,0.49690740762307073,-0.6611058907269144,0.46807185775817844,-139.9336295706814,-61.26233392884705,-130.5078184528414,1
1767533606.17049,2,right_wrist,0.8784,0.4246,-0.1244,-17.5,-8.61,-17.85,0.559194937385581,0.03239710151651047,-0.7748535903860002,-0.29300744577841303,112.48034338940779,-57.951932136369656,-134.58772470739936,1
1767533606.2254488,1,left_wrist,0.8984,-0.3982,-0.5305,-3.78,16.59,-13.02,0.31656383989786774,0.49703174824840857,-0.6590698467304485,0.4673047331591568,-140.29407571274183,-61.860986124422304,-130.3732282215175,1
1767533606.2254488,2,right_wrist,0.8672,0.4631,-0.124,-3.15,-4.76,-11.06,0.5590100658953979,0.0337767515553984,-0.7733803571450574,-0.2970685113979118,111.76298749660367,-57.627690861634925,-134.11923336861256,1
1767533606.2941911,1,left_wrist,0.916,-0.3489,-0.4636,-7.07,-3.08,-1.96,0.3148741087529559,0.49773425629281387,-0.6626357042872747,0.46263249902420206,-141.27054424967235,-61.381664181219406,-129.74314181338428,1
1767533606.2941911,2,right_wrist,0.8799,0.4797,-0.1479,-3.08,-0.91,2.59,0.5636706230995092,0.02893519948087771,-0.7701034731343682,-0.2972857607622609,110.94982690594718,-58.31682338225356,-133.70148705396892,1
1767533606.351979,1,left_wrist,0.9091,-0.3109,-0.3514,8.68,-13.65,9.1,0.3088279704586903,0.4977951321070621,-0.6631185384979124,0.4659389391468283,-140.38104376903917,-60.86363511896656,-130.1051265231719,1
1767533606.351979,2,right_wrist,0.8725,0.4768,-0.1679,-0.56,2.87,3.78,0.5681321521621436,0.025941826470495786,-0.7676128920902726,-0.2955052067490405,110.41306561576332,-58.9679692944876,-133.2320200975743,1
1767533606.429024,1,left_wrist,0.894,-0.3035,-0.3045,6.93,-13.51,13.23,0.2970511992009109,0.4959780698233368,-0.6658498064659066,0.471604044233012,-138.64226594542862,-59.69976646364244,-131.07986865833735,1
1767533606.429024,2,right_wrist,0.8784,0.4812,-0.182,-0.21,3.43,5.81,0.5720622073895736,0.021198417306760056,-0.7666156916684481,-0.2908536389113327,110.55317680444132,-59.85673284900666,-133.3310003865603,1
1767533606.4973052,1,left_wrist,0.8662,-0.2557,-0.2791,-13.37,3.36,-6.65,0.3054584610187954,0.4956557980699232,-0.6644977144050239,0.4684690448494926,-139.50296965253588,-60.49953447265779,-130.84252748627972,1
1767533606.4973052,2,right_wrist,0.8935,0.4675,-0.1898,-2.45,-0.14,8.61,0.573054684917545,0.013170479683309904,-0.7692378396261207,-0.28232607503789575,112.2420460587518,-60.94972365384552,-134.91912705259136,1
1767533606.5489862,1,left_wrist,0.8662,-0.2557,-0.2791,-13.37,3.36,-6.65,0.3137138607764159,0.49509437643143256,-0.6631463266968051,0.4655127510297229,-140.31953804575124,-61.28517503731197,-130.64172709902198,1
1767533606.5489862,2,right_wrist,0.8716,0.4802,-0.1893,-1.82,-0.49,8.19,0.5718389161764809,0.013071491737119793,-0.7694864569438938,-0.28411262314407476,112.2026859937793,-60.764196822331826,-135.05050120774843,1
1767533606.630411,1,left_wrist,0.9292,-0.246,-0.324,-5.67,3.43,-9.17,0.33256742611613105,0.4985188068429872,-0.6568655093680096,0.45760857609210215,-143.17062447371424,-63.27268834477113,-128.79084770810354,1
1767533606.630411,2,right_wrist,0.8926,0.449,-0.1937,6.72,-1.12,8.47,0.5724484883585661,0.009168739623336364,-0.7719600588482601,-0.276217902990923,113.7222789643444,-61.49189403473873,-136.1919139581245,1
1767533606.698966,1,left_wrist,0.9374,-0.264,-0.3182,-9.03,1.82,-8.33,0.3392044701362772,0.4985591770431888,-0.6545954532296542,0.45594283307959715,-143.85084622491854,-63.9893274755565,-128.46019115460172,1
1767533606.698966,2,right_wrist,0.8921,0.4397,-0.1806,0.49,-6.86,5.53,0.5748126500000074,0.003399291412977706,-0.7702974816653849,-0.2760808793774477,113.51145971436067,-62.089090209189564,-136.4309388380431,1
1767533606.7728581,1,left_wrist,0.9355,-0.2298,-0.3211,-12.74,6.02,-7.63,0.3575222408491034,0.49672250043144045,-0.6499374059140998,0.4505840357325413,-145.72902203687005,-65.83419657410313,-127.79613827859123,1
1767533606.7728581,2,right_wrist,0.8833,0.4333,-0.1606,-1.89,-2.66,4.62,0.5767524295288555,0.0013653273763223402,-0.7684869228597748,-0.27709677065464433,112.96588913998872,-62.33738516792149,-136.13265716211907,1
1767533606.847764,1,left_wrist,0.9311,-0.1918,-0.3182,2.59,8.19,-1.68,0.36325614721004035,0.49708984920565036,-0.6453991477158465,0.4521134740952544,-145.79660368579582,-66.68929360510889,-127.68199341729785,1
1767533606.847764,2,right_wrist,0.8535,0.4255,-0.1396,-3.57,-1.05,6.23,0.5817824103679426,-0.004162948860619681,-0.7640021190859763,-0.2789492048301775,111.66959341813846,-63.03560731789081,-135.4297128481537,1
1767533606.9210088,1,left_wrist,0.8989,-0.1767,-0.307,-4.76,13.86,-11.76,0.37748630477788175,0.499294499031725,-0.6380629187176282,0.4484248038404437,-148.02508942516783,-68.35888797293046,-125.93241601799926,1
1767533606.9210088,2,right_wrist,0.8496,0.4402,-0.1366,2.66,2.8,8.4,0.5843430001713681,-0.0037106606830944276,-0.7619764470187333,-0.27914401898791763,110.95394099488853,-63.19961944019219,-134.6839006028308,1
1767533606.97587,1,left_wrist,0.9462,-0.2079,-0.2533,8.12,11.55,-8.54,0.38213151138178997,0.4992154336981283,-0.63120632024044,0.4542444716836758,-146.97840259601648,-69.38043754764388,-126.5091884681684,1
1767533606.97587,2,right_wrist,0.8843,0.4211,-0.1527,7.35,8.89,9.38,0.5902169391591516,-0.0027885952805108563,-0.7583929881519217,-0.2765434215235701,109.86172276894996,-63.737355478851406,-133.26566023149581,1
1767533607.048403,1,left_wrist,0.9799,-0.2098,-0.2508,-0.84,10.36,-9.94,0.388638116668017,0.49818309131207683,-0.6259951102126736,0.4570603283958281,-146.55597132691906,-70.38516666567865,-126.89780316598596,1
1767533607.048403,2,right_wrist,0.9482,0.4211,-0.1796,14.21,3.99,9.8,0.5919346143834391,-0.0015159155876366623,-0.7623228540482218,-0.261677244884675,112.22406208265002,-64.59314004805994,-134.22016264998166,1
1767533607.098783,1,left_wrist,0.9623,-0.1942,-0.2786,-4.62,13.09,-12.53,0.3960639772707241,0.4959479755141156,-0.6212304450858772,0.4596103410393944,-145.95978281151574,-71.43798105080961,-127.62493927045894,1
1767533607.098783,2,right_wrist,0.9326,0.4265,-0.1723,7.21,-0.56,6.86,0.5902754801555812,0.0010676493175843468,-0.7640239103257402,-0.2604633987772527,112.75528947476059,-64.3444250614811,-134.44094640341638,1
1767533607.177384,1,left_wrist,0.9496,-0.1786,-0.2894,-9.8,14.14,-13.37,0.4082373442647693,0.49550632003983724,-0.6184812845801462,0.4530967426194088,-148.66906625920743,-72.55380461783159,-125.86018215158273,1
1767533607.177384,2,right_wrist,0.9043,0.3841,-0.1527,4.55,-1.12,5.18,0.5933845555413989,-0.0015754155903561838,-0.7630051153905029,-0.25635030953478416,112.88774452883723,-65.00146857855789,-134.4209390543399,1
1767533607.2518148,1,left_wrist,0.9555,-0.1723,-0.2635,-2.45,8.19,-12.39,0.40991711659952235,0.49533240911003096,-0.6173237278627624,0.45334884693975863,-148.72006881041125,-72.78867187681277,-125.83351496123575,1
1767533607.2518148,2,right_wrist,0.9062,0.3704,-0.1318,4.34,0.98,5.88,0.6005772887972459,-0.0038309405863785843,-0.7592568751160057,-0.25064165987371556,112.13832824405436,-66.05073442440718,-133.33723349456815,1
1767533607.3241029,1,left_wrist,1.0092,-0.1449,-0.2001,0.0,6.58,-6.3,0.41933379999588705,0.49353963939877343,-0.6091442215002618,0.4577347550011668,-147.9156725771713,-74.29963321759655,-126.5507462629483,1
1767533607.3241029,2,right_wrist,0.9487,0.3601,-0.1269,10.92,4.69,7.14,0.6057758916212107,-0.004601755550768872,-0.7572632832631184,-0.24406292794674986,111.97917496981803,-66.88371057349913,-132.6571694659176,1
1767533607.3997161,1,left_wrist,0.9721,-0.1215,-0.1713,9.94,2.45,-1.33,0.4206824687077987,0.49455442296388424,-0.6042322913921667,0.4618934090109352,-147.06875105575105,-74.84951562320808,-126.88943988282507,1
1767533607.3997161,2,right_wrist,0.9457,0.2928,-0.1176,3.5,2.45,4.9,0.614156120889901,-0.008209511437688834,-0.7541697413294338,-0.23232060683141872,112.02528297103105,-68.46139328387268,-131.9649589535977,1
1767533607.450721,1,left_wrist,0.974,-0.1181,-0.1898,-0.63,4.76,-2.94,0.4257324371941777,0.49426638291082725,-0.600355660367168,0.4626291340912878,-147.26755446147553,-75.58219083420515,-126.72928649879096,1
1767533607.450721,2,right_wrist,0.9389,0.2728,-0.1064,6.09,-0.56,6.16,0.6170171658579318,-0.011412326834290953,-0.7536622016602452,-0.22616998390923757,112.63411966364517,-69.26165878008688,-132.30107609680803,1
1767533607.524487,1,left_wrist,0.9662,-0.0761,-0.1908,4.27,4.13,-1.96,0.43337188195814524,0.49885531952927586,-0.5913377149268729,0.4622249333500561,-149.89072596675217,-76.83167913095448,-123.77979933269529,1
1767533607.524487,2,right_wrist,0.9218,0.2562,-0.1035,0.56,-1.26,5.46,0.6195314696674498,-0.015919958892650014,-0.7527521836849762,-0.22201680782779917,113.04199634319696,-70.01402786019136,-132.71514492416432,1
1767533607.5976052,1,left_wrist,0.9716,-0.1049,-0.2103,3.08,-2.17,-1.4,0.4319293311044056,0.5025886147617172,-0.5914996967974557,0.45931453921263693,-151.9482087193676,-76.57252902129048,-121.6018722909419,1
1767533607.5976052,2,right_wrist,0.9414,0.2518,-0.1147,-3.36,-4.62,1.05,0.6231710293914355,-0.025890022343714535,-0.7503453128716306,-0.2190193743070127,113.25455318713941,-71.1784094991107,-133.47467727120218,1
1767533607.651747,1,left_wrist,0.974,-0.0888,-0.205,17.92,-7.77,6.44,0.42748367030794904,0.5082734071485129,-0.5887560890580292,0.46074084125762144,-152.78477396105814,-76.34427908747452,-119.94063270170392,1
1767533607.651747,2,right_wrist,0.9443,0.3743,-0.1274,-18.83,-9.45,-6.23,0.6181046728128198,-0.026578653506920447,-0.7511242982557728,-0.2303312336494752,112.51155303309015,-70.18476506092045,-133.76537187068922,1
1767533607.7200341,1,left_wrist,0.9667,-0.1132,-0.2216,61.18,-9.94,24.43,0.39223552564517483,0.522860058610139,-0.5812339108001169,0.4847017562048412,-145.42850253349823,-74.32793267297347,-122.59963903160927,1
1767533607.7200341,2,right_wrist,0.9267,0.3001,-0.1069,-37.66,-12.74,-9.31,0.6151923864502408,-0.035782663968613765,-0.7484837613490405,-0.24501017858399185,110.86467145648571,-69.79406609405461,-134.13484063511075,1
1767533607.7723498,1,left_wrist,0.9321,-0.164,-0.2235,82.39,-9.87,40.32,0.35862469728419816,0.5272332119526842,-0.5768405494140556,0.5105569970762946,-136.40162518289227,-72.19519366765573,-127.66144268462071,1
1767533607.7723498,2,right_wrist,0.9043,0.2967,-0.1249,-52.99,-11.9,-20.37,0.6078328258067668,-0.047351588902013624,-0.7473702827468486,-0.2640733673945762,109.83382118774192,-68.99688933416856,-135.71752474764432,1
1767533607.822366,1,left_wrist,0.856,-0.2372,-0.2298,168.56,-8.61,76.72,0.29616831337672245,0.533554606834501,-0.5591158395311321,0.561242629940622,-121.98686335754323,-68.44915625117122,-134.0088993259994,1
1767533607.822366,2,right_wrist,0.8608,0.4158,-0.0781,-95.97,-23.17,-38.08,0.5930360207384219,-0.06009586943627064,-0.7414398962322851,-0.30816171867786424,105.46251464460956,-66.41100716003902,-136.31691551600065,1
1767533607.874252,1,left_wrist,0.8686,-0.6861,-0.1903,222.18,-11.41,128.59,0.2054556332325723,0.5278588337939194,-0.5345662389748929,0.6272096702913339,-105.84876966184727,-61.86216223672594,-139.44445742428374,1
1767533607.874252,2,right_wrist,0.8023,0.7535,-0.08,-143.08,-13.09,-71.05,0.572560576260553,-0.07249923068986837,-0.7255169108633568,-0.3748912643858918,97.81442755280983,-62.27163824220716,-135.8480896069144,1
1767533607.947469,1,left_wrist,0.8584,-1.1683,0.0654,256.69,10.5,178.43,0.09620694232127074,0.498897735888348,-0.5006878433883527,0.7008259105211452,-89.92192799533872,-52.71387562374131,-142.98123297573113,1
1767533607.947469,2,right_wrist,0.7569,1.2254,0.183,-98.42,42.42,-152.25,0.525279931669752,-0.029348515027695005,-0.675488105895253,-0.5166579882714806,82.67940447469637,-47.72860299263265,-131.58335657426923,1
1767533608.02371,1,left_wrist,0.751,-1.3274,0.6344,125.02,107.03,236.39,-0.08960967398455426,0.35086519161428487,-0.48070068861012333,0.7986179134051565,-70.65436478715364,-28.31141330087943,-146.92553745908015,1
1767533608.02371,2,right_wrist,0.7115,1.2034,0.3348,-88.83,74.41,-201.95,0.49686010040589496,0.02941413345078843,-0.6359957305823202,-0.5897239015497372,76.34840132012522,-36.677437538949555,-128.98234065182234,1
1767533608.074104,1,left_wrist,0.6686,-1.2146,0.7432,91.56,149.59,237.16,-0.15418276933600447,0.24115256515017375,-0.48467998727587175,0.826533982299356,-64.70104489538004,-14.429170113633216,-149.6982716611047,1
1767533608.074104,2,right_wrist,0.6895,1.2605,0.4738,-70.7,93.59,-223.16,0.4628553364629601,0.10186814736471345,-0.5885158763916518,-0.6550090696282054,71.677069414656,-24.289435805863494,-127.1760252646667,1
1767533608.1312718,1,left_wrist,0.5178,-1.0868,0.8184,77.0,193.69,225.96,-0.20018596047507775,0.11759138238064522,-0.48616515090392926,0.8424614496017245,-60.024180939837684,-0.19970699565035652,-153.15115467147632,1
1767533608.1312718,2,right_wrist,0.5983,1.1907,0.61,-85.4,114.52,-234.78,0.42715168918047036,0.17573488948553548,-0.5237750800090777,-0.7157641710851848,66.59359553000277,-11.296915059735609,-125.777896249716,1
1767533608.199502,1,left_wrist,0.3758,-1.0985,0.7554,49.42,212.24,214.13,-0.2324368479910244,-0.006684590670276526,-0.49141527953832215,0.8393089127251306,-57.82880001204268,13.8668819808172,-156.7266367593527,1
1767533608.199502,2,right_wrist,0.2377,1.1185,0.9902,-89.67,171.85,-235.13,0.3524321074351734,0.3316498486014602,-0.3543325953602258,-0.8001552345868378,56.55631433378016,16.319082459900468,-123.63610366539089,1
1767533608.270928,1,left_wrist,-0.0381,-0.7388,0.4192,26.95,213.08,180.32,-0.2699184684510031,-0.23892005085040025,-0.4957539024131302,0.7901197997347361,-58.93134308408759,40.17896213591826,-165.6280656499425,1
1767533608.270928,2,right_wrist,0.1459,0.8857,0.7442,-51.24,209.44,-220.22,0.3147727473757087,0.42376706751832555,-0.27101127851632406,-0.8049176833151416,54.90944198620764,30.769215728405843,-121.01093050125559,1
1767533608.3214028,1,left_wrist,-0.1586,-0.5993,0.3587,26.95,194.18,159.11,-0.2765114990810318,-0.33801566856436954,-0.49030153364281803,0.7542487685031004,-62.256797071488805,51.35624687644077,-172.1160371015969,1
1767533608.3214028,2,right_wrist,0.0239,0.7852,0.5153,-24.5,223.16,-186.97,0.28017955827726965,0.5141335906004803,-0.1981970456441607,-0.7860559758934081,56.77694460687194,44.20391130154197,-116.00712054811987,1
1767533608.372403,1,left_wrist,-0.3509,-0.61,0.286,62.44,180.67,133.14,-0.2689699685499621,-0.4281036526089939,-0.47076900964971,0.7230207176799995,-67.1078871889297,60.7271499973647,178.34357709760263,1
1767533608.372403,2,right_wrist,-0.0459,0.5832,0.3001,0.56,203.0,-159.04,0.24403955097700994,0.5920227069843853,-0.1399904896491546,-0.7552194878190115,62.56027595126428,55.678597864100965,-108.60721948337098,1
1767533608.426781,1,left_wrist,-0.3977,-0.4031,0.0268,47.88,171.85,107.03,-0.2544139066168667,-0.5062730790699584,-0.4574460648227758,0.685349714603519,-79.44089181231682,67.927561371942,162.26620036093715,1
1767533608.426781,2,right_wrist,-0.223,0.4597,0.0776,-49.49,147.7,-141.19,0.22118668906715397,0.6411813011556885,-0.07509287935104107,-0.7309747239806438,67.06212139241944,64.70979005672622,-100.78307603310802,1
1767533608.498088,1,left_wrist,-0.5114,-0.4997,-0.2484,40.39,130.83,72.94,-0.23789414825108784,-0.5632765005762603,-0.4460667433298971,0.6535674552955583,-95.89148784447286,71.5339879808077,142.78725474191978,1
1767533608.498088,2,right_wrist,-0.5963,0.4929,-0.0239,-35.07,105.28,-97.51,0.18616003434965864,0.7024778374959423,0.025504290823782236,-0.686453829902299,87.031070512808,76.88913332737997,-75.63923992671963,1
1767533608.549199,1,left_wrist,-0.5275,-0.1698,-0.6041,-46.2,71.47,34.37,-0.24384598617410733,-0.5873151854771729,-0.45959452138480605,0.6199781317496301,-111.61876859632149,72.24810226604605,128.83644792035162,1
1767533608.549199,2,right_wrist,-0.4865,-0.0259,-0.632,65.73,56.98,-46.83,0.14981099924399938,0.7266445099969315,0.025554886547912894,-0.6699935584543758,107.3524628867664,78.91740087385074,-58.33400085391271,1
1767533608.624733,1,left_wrist,-0.9926,-0.4426,-0.0449,11.41,-24.64,-0.7,-0.23773222834396007,-0.5818162279475757,-0.4427568662571981,0.6394838714819752,-103.41606634488713,72.67661363301474,134.83565416234222,1
1767533608.624733,2,right_wrist,-0.7945,0.2503,-0.3777,-2.94,-31.29,-2.45,0.1505830649040097,0.719918732841076,0.024443008570214222,-0.6770851482647148,101.61483735730651,79.18982851722502,-64.10277768713236,1
1767533608.7017322,1,left_wrist,-1.0097,-0.205,-0.1898,-15.75,-7.63,-5.6,-0.2425939898038182,-0.5797605400598553,-0.4476542815555368,0.6361065292115512,-104.21918891470733,72.70281453218253,134.94800415761455,1
1767533608.7017322,2,right_wrist,-0.9531,0.063,-0.1049,-5.04,-9.59,13.93,0.15577993752806613,0.7156510134368235,0.016566304188576207,-0.6806627620166471,97.07142359979498,78.34886042996571,-68.85578076615425,1
1767533608.775554,1,left_wrist,-0.9511,-0.2752,-0.1166,5.25,-18.27,-25.13,-0.24013680977950388,-0.5646177695604793,-0.45230044457259405,0.6472753623651263,-98.45670611336087,71.46944643920166,141.02784525606288,1
1767533608.775554,2,right_wrist,-0.9628,0.2416,-0.1093,-8.4,-28.98,17.43,0.1644285095223303,0.7089598689149991,0.010495808942190524,-0.6857324605988411,91.43202304677774,77.36025654291964,-74.27039638467575,1
1767533608.845175,1,left_wrist,-0.8042,-0.2181,-0.2694,-15.96,-28.84,-46.9,-0.2360286399098728,-0.5478027520560023,-0.466388223340941,0.653211031069628,-95.73341611540972,69.36160618431967,144.90932611486593,1
1767533608.845175,2,right_wrist,-0.771,0.063,-0.2908,11.34,-59.5,41.86,0.1742411720206245,0.6891128458573064,-0.016994362543133065,-0.7031889442312614,79.34658323957503,74.41455151005005,-87.76603567191482,1
1767533608.899327,1,left_wrist,-0.6329,-0.243,-0.3133,-20.16,-79.1,-87.36,-0.23076379062515986,-0.5069366435682492,-0.4860045232658731,0.6734707979631905,-88.14420049148147,65.1101441300349,154.38981438532934,1
1767533608.899327,2,right_wrist,-0.5812,0.2264,-0.2274,51.24,-91.21,98.35,0.18794645184074812,0.6658776888322793,-0.06969725065781143,-0.7186273916339385,73.54749972634802,68.56569609755287,-96.68904373255354,1
1767533608.975296,1,left_wrist,-0.387,-0.5183,-0.0195,-49.14,-155.61,-179.2,-0.21100983910284155,-0.34077173468300476,-0.5567430805409016,0.7275895923614877,-77.49200012541641,46.956900028339625,173.91206190984875,1
1767533608.975296,2,right_wrist,-0.408,0.1869,-0.0742,56.21,-111.93,154.0,0.21561363135041758,0.6311679092915048,-0.14149269747713594,-0.731517360571245,71.19081658005997,59.587704669522715,-102.58230778752218,1
1767533609.0491571,1,left_wrist,-0.2508,-0.6637,0.0429,-110.46,-144.62,-224.7,-0.1864124000761998,-0.22529112943198248,-0.6092213255614984,0.7371185118949214,-79.1402167295552,34.00500653646447,-179.97845394489372,1
1767533609.0491571,2,right_wrist,-0.0913,0.732,0.1322,87.22,-139.44,238.49,0.28227271146062677,0.5283626763712514,-0.3166190103364961,-0.7354640717778209,72.48092977653434,36.75808915852248,-110.63249335015051,1
1767533609.0995572,1,left_wrist,-0.1435,-0.7471,0.0473,-57.54,-157.29,-242.97,-0.15116122536903775,-0.10132321596455664,-0.6352231257841412,0.7505834199611368,-79.41642479645846,20.12962824665812,-173.99699160419476,1
1767533609.0995572,2,right_wrist,-0.0913,0.732,0.1322,87.22,-139.44,238.49,0.3194984465315883,0.45567458019301343,-0.4167368735109361,-0.71875712023336,75.06949481977688,22.87644027603215,-114.39665406580306,1
1767533609.17451,1,left_wrist,0.1313,-1.2922,0.7398,-111.72,-147.56,-287.35,-0.047401774779013105,0.17171235440999907,-0.6808240839002723,0.7104551399434939,-89.1853615246037,-10.337335862539035,-162.17356513883834,1
1767533609.17451,2,right_wrist,0.1113,1.1673,0.4089,135.94,-126.14,264.18,0.35157025475422177,0.3798814560780533,-0.5261431900396535,-0.6747308936716674,80.83040535168549,8.203125032789858,-117.96779599332687,1
1767533609.244083,1,left_wrist,0.649,-1.4103,0.3089,-239.89,-59.78,-322.84,0.054465258777499304,0.2886763597566946,-0.7162987244041871,0.6329420449937404,-102.4241876621636,-26.324698727757834,-157.38835289707563,1
1767533609.244083,2,right_wrist,0.5505,1.1434,0.2191,167.51,-59.08,292.74,0.436386322718326,0.22014857733686474,-0.6942293745331096,-0.5283437865408271,93.76013997107785,-21.91780788545583,-124.25579939498117,1
1767533609.301954,1,left_wrist,0.9038,-0.6554,-0.2211,-133.77,40.53,-286.65,0.1652964084786435,0.36316220347920725,-0.7078613192060256,0.5828573273796029,-110.66242568887893,-41.09864087539857,-154.7503977248994,1
1767533609.301954,2,right_wrist,0.9496,1.1463,0.0386,108.08,-50.61,292.39,0.4764535338828362,0.1358307332230991,-0.749621632593296,-0.43887293139449124,101.5394382065612,-36.51939672500945,-129.30590548778324,1
1767533609.3743281,1,left_wrist,1.1678,-0.3265,-0.3362,-39.76,76.79,-209.3,0.3469686709679001,0.45885476312188145,-0.6538528686244661,0.49146869067997406,-130.41625218350822,-64.79076605512931,-142.5488595196159,1
1767533609.3743281,2,right_wrist,1.1492,1.0673,0.0478,144.62,-20.93,270.55,0.5111469036198141,0.0705877522226893,-0.7891446800942888,-0.3331619516615116,113.13247350518984,-49.438058397087254,-135.9654499398816,1
1767533609.44865,1,left_wrist,1.2249,-0.305,-0.2557,-122.08,61.04,-185.92,0.42990317166233155,0.47849428616752243,-0.6277203595114116,0.4383989408684344,-150.53475674450345,-73.58919717898704,-127.61877292412608,1
1767533609.44865,2,right_wrist,1.1463,0.8647,-0.1684,61.04,17.92,161.07,0.5635783496875467,-0.012690521366661576,-0.8063099626067425,-0.1791162712653906,137.59349628599392,-65.97724268949328,-153.53455718914398,1
1767533609.5230432,1,left_wrist,1.1834,0.0034,-0.3328,18.48,42.21,-93.8,0.5094704448984357,0.5150699580535245,-0.5626639431275342,0.39818600074576366,154.8948483478062,-79.58006159946707,-74.0453978840609,1
1767533609.5230432,2,right_wrist,1.0731,0.1513,-0.2591,22.89,30.66,122.43,0.5854627794115442,-0.050117536641540866,-0.7972744134249315,-0.13811254882386595,149.688104942769,-71.33262928370551,-165.1919952343787,1
1767533609.575444,1,left_wrist,1.0726,-0.0971,-0.3157,13.51,27.44,-77.35,0.5229810452302656,0.5314683119605905,-0.5394714304194749,0.3911557688092879,137.67375261552948,-78.53331347222834,-55.732248539602196,1
1767533609.575444,2,right_wrist,1.0463,0.3963,-0.2679,47.39,15.33,103.95,0.5974078423640512,-0.07037669598095916,-0.7926800522546821,-0.09904203805580374,164.70008126490504,-73.95544524192765,-178.59753392748453,1
1767533609.648833,1,left_wrist,1.0726,-0.0971,-0.3157,13.51,27.44,-77.35,0.5358966463250882,0.5471218451763626,-0.5157162972020066,0.38406922785949255,124.4691343324125,-76.657161167448,-41.420099170777895,1
1767533609.648833,2,right_wrist,0.9902,0.2201,-0.2342,9.87,14.7,58.45,0.6151979149006618,-0.10852077676257964,-0.7776658358165955,-0.07064428013930314,-174.2066577822086,-76.45090852460017,159.54716152892703,1
1767533609.6989949,1,left_wrist,1.0287,-0.0732,-0.2918,11.2,18.76,-27.37,0.5387297867720362,0.5520245787322083,-0.5059493643893096,0.3860755392331113,120.74921898078165,-76.26068056270321,-36.90286182847586,1
1767533609.6989949,2,right_wrist,0.9765,0.2015,-0.2489,-4.13,12.53,40.95,0.6197388260905154,-0.12010793987553979,-0.7727930397611591,-0.06548883806811086,-167.95213852264172,-76.80307615199347,152.76884604449188,1
1767533609.7693608,1,left_wrist,0.9643,0.0137,-0.2396,12.39,-1.47,0.77,0.5299208089181295,0.5581956877058415,-0.5050200846004401,0.39058446545186915,124.06279162382756,-76.23659456523562,-39.03682359847225,1
1767533609.7693608,2,right_wrist,0.9648,0.1249,-0.2289,9.31,5.11,27.51,0.622096487145339,-0.12367342379204922,-0.7708542723507715,-0.059029956187885646,-163.98481482545938,-76.8284937109566,149.0399727882601,1
1767533609.824388,1,left_wrist,0.9462,0.0805,-0.2201,21.63,-5.53,11.34,0.5182776729412254,0.5614799910141826,-0.508189955732131,0.39733039440032303,129.53148907381225,-76.6438975453114,-43.43519906600974,1
1767533609.824388,2,right_wrist,0.9531,0.0268,-0.1972,-1.19,4.27,10.08,0.6240304148838368,-0.12422920704067396,-0.7690682583960808,-0.060721984038492584,-163.9154990127169,-77.14361530182846,148.79049295947496,1
1767533609.895571,1,left_wrist,0.9526,0.0351,-0.1742,13.02,-9.87,15.05,0.5073278913657946,0.5612083260406506,-0.514636224000047,0.40350115535393544,136.00248448260606,-77.18079448594547,-49.304024448063835,1
1767533609.895571,2,right_wrist,0.934,0.0683,-0.1459,-4.13,-3.43,-9.24,0.6250968514391203,-0.11535470797076182,-0.76886269482207,-0.06926307949277843,-169.7684609388589,-77.74347697245656,154.6796220916976,1
1767533609.946165,1,left_wrist,0.9438,0.0473,-0.1376,15.82,-8.82,24.29,0.49521478295260757,0.558267766182978,-0.5217001520443841,0.4134348453422087,144.0606580096439,-78.04814196234535,-56.66551193564239,1
1767533609.946165,2,right_wrist,0.9516,0.0288,-0.1332,5.18,-5.81,-14.77,0.6249120354934021,-0.10715442915401141,-0.7697919410331213,-0.07364267600128588,-174.36225615611832,-77.92833325240379,159.58999650981337,1
1767533610.0198379,1,left_wrist,0.9755,0.0425,-0.1835,29.82,-9.45,41.86,0.46363047903680826,0.5488998855497565,-0.5404348681989238,0.43781942371984295,169.1619386839229,-79.04062165697994,-80.16036873884828,1
1767533610.0198379,2,right_wrist,0.9648,0.0425,-0.141,-12.04,-8.89,-27.86,0.6223073161570646,-0.099315860055108,-0.7715186288121619,-0.08734397285850344,176.95965522847297,-77.84801844679924,167.7851183759251,1
1767533610.0723908,1,left_wrist,0.9565,-0.0366,-0.2713,30.45,-9.1,53.13,0.44075677935005864,0.5443330515457138,-0.5515032171560545,0.45307746789971437,-174.34036517128723,-78.35233877180302,-95.3630002199355,1
1767533610.0723908,2,right_wrist,0.9482,0.1225,-0.1806,-21.49,-9.24,-40.95,0.6167455585212994,-0.08865062813653533,-0.7745168142727457,-0.10903983943515994,164.54905755441138,-77.08238468093252,179.27641273842286,1
1767533610.1254091,1,left_wrist,1.0751,-0.2357,-0.3357,63.63,-22.33,94.64,0.3974994428786809,0.5364987154612019,-0.5676766170539591,0.48156679668535224,-151.36207890442077,-75.47132569115747,-115.58269640030997,1
1767533610.1254091,2,right_wrist,0.9721,0.3787,-0.223,-63.7,-11.69,-83.72,0.6048480317238206,-0.07488727916741153,-0.7772608049890153,-0.15625746371469723,145.24072314310067,-74.50477656869191,-164.22935456366352,1
1767533610.1984792,1,left_wrist,1.1502,-0.5022,-0.4324,113.47,-18.76,173.81,0.3246988813503435,0.513584942170032,-0.587914273102216,0.5340018268777115,-126.62560542580783,-68.48175413908294,-135.49639102908412,1
1767533610.1984792,2,right_wrist,1.0917,0.7505,-0.1976,-116.13,-19.81,-201.88,0.5499821823104204,-0.013096743311232685,-0.7674275665741684,-0.3292461154178698,109.95319482504696,-58.51391991783998,-139.0866617531521,1
1767533610.24994,1,left_wrist,1.1844,-0.6559,-0.3382,127.19,-24.43,230.3,0.2310281508097599,0.47280565283307185,-0.6113382956933509,0.5910552397206751,-111.10022445420529,-57.28626267477454,-145.644230199276,1
1767533610.24994,2,right_wrist,1.0609,0.8818,-0.163,-109.27,12.04,-250.25,0.5127298257488523,0.048753394773338996,-0.7436153854862507,-0.4263418707490046,99.19080783219877,-46.135148390045735,-132.6466005861656,1
1767533610.3241339,1,left_wrist,0.9784,-1.1473,0.1493,174.58,27.51,302.75,0.003179712192913482,0.32805097233146074,-0.6066517260279082,0.7241174851432004,-86.81895081671273,-28.617033044913924,-153.37377074521058,1
1767533610.3241339,2,right_wrist,1.0502,1.2883,0.1469,-120.05,39.2,-261.24,0.47608735290664395,0.11438339389141078,-0.6988434092261573,-0.5214164947385042,90.20049529058875,-33.10248140437956,-128.41589569112688,1
1767533610.40081,1,left_wrist,0.8716,-1.2439,0.4163,175.49,81.06,328.51,-0.10216054958914678,0.212279316317645,-0.5873792147557195,0.7742650528367602,-77.00907499665134,-12.04658670154291,-155.37022447760413,1
1767533610.40081,2,right_wrist,0.8101,1.2444,0.6012,-129.78,102.76,-311.57,0.39418139806759556,0.27574079940891366,-0.5398791112535849,-0.6907377086788071,74.61758838046224,-2.561485769142067,-122.52811105057197,1
1767533610.479852,1,left_wrist,0.487,-1.0424,0.5944,67.2,184.17,283.08,-0.23026603117018765,-0.057350251598109726,-0.5630639068560709,0.791610725247417,-67.44194427777983,20.49386784961107,-161.32214041906968,1
1767533610.479852,2,right_wrist,0.6681,1.3283,0.6856,-103.95,150.64,-313.11,0.3461351865573604,0.36939633109651626,-0.43947342712383053,-0.7420241842766105,69.42469369347391,14.120829673505545,-120.17629452628753,1
1767533610.5545259,1,left_wrist,0.2445,-0.8159,0.3914,69.58,183.47,259.7,-0.268419669148303,-0.18624117111645563,-0.5452768834865608,0.7719703541786239,-65.63608078050544,35.46963422399331,-164.96140829702696,1
1767533610.5545259,2,right_wrist,0.1913,0.9882,0.5007,-70.84,196.28,-261.1,0.2542955634251947,0.5442816150908872,-0.23285553459268774,-0.7647676705417612,64.71002442757614,45.56701007130227,-113.41332607626569,1
1767533610.627486,1,left_wrist,-0.1747,-0.4851,0.081,37.73,154.21,161.14,-0.2930350317044664,-0.3843543970375985,-0.5234799918671295,0.701691432031642,-72.92325277833652,57.799909728013155,-179.0498249017946,1
1767533610.627486,2,right_wrist,0.0795,0.5641,0.2508,-14.84,182.91,-215.74,0.20532367291239825,0.6191696840141591,-0.15765567673465092,-0.7413607619323457,69.38842000461739,58.57411532615713,-106.59835370850429,1
1767533610.696606,1,left_wrist,-0.385,-0.5085,0.1113,42.28,130.76,122.71,-0.2899701046575327,-0.4534333504891528,-0.5071361753068918,0.6731481521657608,-79.94684125233219,64.76466587430608,170.61535243488208,1
1767533610.696606,2,right_wrist,-0.3919,0.3396,-0.0332,-28.49,98.77,-119.84,0.14226096072072603,0.7064131506889291,-0.05061323635662929,-0.6915060230352764,90.66861978743053,74.27579038275475,-81.82948159962294,1
1767533610.7704399,1,left_wrist,-0.6349,-0.4729,-0.1088,28.35,115.57,79.8,-0.2647518009990581,-0.5633482726155061,-0.4782624783377341,0.6195241798534816,-107.39396544128302,72.03729459077567,136.87551291178195,1
1767533610.7704399,2,right_wrist,-0.549,0.1874,0.0351,-49.49,69.23,-82.6,0.1361232486643142,0.7230308903304669,-0.00741659538357324,-0.6772309701379007,102.44491302735985,77.76826087453341,-67.05178712488915,1
1767533610.825953,1,left_wrist,-0.5324,-0.061,-0.8096,-63.28,80.08,31.71,-0.27089555428441936,-0.5860732941294449,-0.4978055419658149,0.5790710966412672,-125.182257519123,71.52514672792583,121.64720742539527,1
1767533610.825953,2,right_wrist,-0.771,0.3065,-0.0215,-17.29,59.71,-61.32,0.12709722442522814,0.7390055620685575,0.01723838507676045,-0.6613772848042817,119.36110935061566,79.08370258269575,-48.86964816504499,1
1767533610.8950531,1,left_wrist,-0.6466,0.1854,-0.5793,28.84,-27.09,-10.08,-0.26758404106803596,-0.5834119840677656,-0.4900393503636821,0.5898225774815281,-121.20193864778462,71.89203611459214,124.50326082734672,1
1767533610.8950531,2,right_wrist,-0.8564,0.0176,-0.2503,-51.45,-32.2,14.98,0.11724500955330498,0.7513368110028157,0.01796154846981089,-0.6491717699835162,130.30521494963466,78.43705801318158,-38.66617462307676,1
1767533610.949116,1,left_wrist,-1.0677,-0.6237,0.0117,1.96,-25.62,-8.33,-0.26873080269295613,-0.5726532762697664,-0.48936936154173893,0.6003079283548843,-115.73096537725819,71.90703057897503,130.01926366123172,1
1767533610.949116,2,right_wrist,-1.0887,0.3436,-0.0005,12.25,5.67,15.05,0.12004399266253668,0.7519906709987678,0.007770080279553614,-0.6481042326731937,127.56186879138619,77.5813092696683,-42.00603164965666,1
1767533611.024061,1,left_wrist,-0.9521,-0.3055,-0.2113,15.33,-27.09,-14.91,-0.27016740856643123,-0.5619077624866292,-0.498556332403676,0.6022547809905406,-113.41925228891384,71.1221687824756,133.4561785576835,1
1767533611.024061,2,right_wrist,-0.9755,0.1893,-0.223,8.12,6.72,13.72,0.1212824580631672,0.756688822724998,0.000881691834361498,-0.642426504394644,128.51142544127046,76.51912233628782,-41.508291949002114,1
1767533611.094296,1,left_wrist,-0.9335,-0.3001,-0.1435,1.19,-20.37,-20.86,-0.26677605383917186,-0.5532011287300016,-0.5031167064178104,0.6080070953476991,-110.48899456008404,70.2437929356388,136.6005643145199,1
1767533611.094296,2,right_wrist,-0.8721,0.202,-0.163,3.71,-33.6,21.49,0.12733600931916947,0.7467239162926474,-0.014279841180784765,-0.6526752789121792,118.9697305117224,76.19172148188063,-51.792586173762814,1
1767533611.147465,1,left_wrist,-0.8106,-0.2991,-0.2879,-2.17,-36.19,-31.64,-0.2653356883307922,-0.5379651614918183,-0.5089277540756534,0.6174001932706356,-105.7667823471089,69.12386474825139,141.8889322933403,2
1767533611.147465,2,right_wrist,-0.774,0.1532,-0.2772,13.51,-48.72,43.96,0.13434581329200743,0.7356113010390234,-0.03494904975109453,-0.6630277370940675,109.14178186905934,75.03214378085602,-62.72823418228471,2
1767533611.199299,1,left_wrist,-0.7066,-0.2904,-0.3035,-13.44,-73.29,-58.45,-0.2673617428218976,-0.5050429785543601,-0.5193534853208625,0.6353906243982911,-97.24826645120436,66.85450149472277,151.9505613741449,2
1767533611.199299,2,right_wrist,-0.5983,0.1118,-0.2694,43.61,-82.74,83.72,0.142037647518453,0.7146703030929936,-0.07871020511303511,-0.6803501805507632,96.23796586024349,71.82211116032266,-78.56367912410106,2
1767533611.274741,1,left_wrist,-0.426,-0.3431,-0.1771,-49.07,-137.34,-148.19,-0.2652715209191838,-0.3732256417559686,-0.5663486793835459,0.6852611282464386,-82.13166694315748,54.29046455203247,174.17957479937783,2
1767533611.274741,2,right_wrist,-0.5231,0.2303,-0.1059,44.31,-107.03,129.92,0.16363018952033223,0.6814757224143435,-0.14019715713932976,-0.6994002845062612,85.65150037076299,65.144078296008,-92.40410347122514,2
1767533611.3442361,1,left_wrist,-0.3065,-0.4963,-0.0005,-68.18,-146.37,-208.25,-0.24521625748467182,-0.26560593740676525,-0.6020353636630158,0.711952171131337,-79.55515877704997,42.33429950341109,-177.72407661536533,2
1767533611.3442361,2,right_wrist,-0.2328,0.7413,0.2821,58.31,-153.09,197.61,0.23325562245658624,0.5576150505037505,-0.2972589505915487,-0.7391173021498694,73.93858198464372,43.28369514823464,-111.71277240106515,2
1767533611.397481,1,left_wrist,-0.3065,-0.4963,-0.0005,-68.18,-146.37,-208.25,-0.22250485191355548,-0.15549412767205448,-0.6301946956462221,0.7274392158206752,-79.48380118728849,30.44212785164012,-171.47972294529686,2
1767533611.397481,2,right_wrist,-0.1196,0.8677,0.0942,58.24,-145.39,224.49,0.27343846655829324,0.48231600099885885,-0.3861074171417269,-0.7372406273496206,74.14601412172011,30.000837726243237,-116.41058139643165,2
1767533611.474296,1,left_wrist,0.2484,-1.0546,0.0595,18.83,-94.64,-215.32,-0.14389348593556925,0.07938608982031908,-0.651886445771294,0.7402949245186139,-82.07813436866071,4.0177888160528985,-161.4985563492513,2
1767533611.474296,2,right_wrist,-0.1196,0.8677,0.0942,58.24,-145.39,224.49,0.3089983571020825,0.40016320884830825,-0.46941660546740294,-0.7239043252418786,75.53964708134669,16.813768363258472,-120.70429000713766,2
1767533611.549068,1,left_wrist,0.2484,-1.0546,0.0595,18.83,-94.64,-215.32,-0.09811754245527839,0.17268874891990196,-0.629287654191353,0.7513644868779464,-81.3879721951184,-7.817378398829178,-158.39487241635803,2
1767533611.549068,2,right_wrist,0.487,1.3713,0.2469,178.99,-66.85,272.37,0.40422095147908527,0.2593350992809651,-0.6400309239797997,-0.5997592392084001,87.29303499056371,-11.908571824071569,-123.40477630523131,2
1767533611.620704,1,left_wrist,0.9531,-0.7135,0.1254,-142.8,-9.45,-269.99,0.09257552799231085,0.3409036906642861,-0.6350443527526912,0.6869738825787552,-92.75812792177449,-35.87105046323159,-157.83013797514255,2
1767533611.620704,2,right_wrist,0.8164,1.0111,0.1049,81.13,-21.14,277.13,0.4606965230980266,0.185728296227086,-0.691543940773468,-0.5244336865281208,91.62653243316896,-26.25579683322036,-124.38832506587987,2
1767533611.670729,1,left_wrist,1.1556,-0.8516,-0.2401,-113.54,10.22,-255.22,0.19019870518681953,0.4040512822601381,-0.6254165145263588,0.6398602950698662,-99.55110419187308,-49.0235844919397,-156.45040282413282,2
1767533611.670729,2,right_wrist,0.9926,0.995,0.0503,106.47,-18.83,258.16,0.5044324761474601,0.12057914820551573,-0.7351083754197615,-0.4366053394239394,98.18659865266099,-39.51900078276315,-126.7927783421688,2
1767533611.725985,1,left_wrist,1.1902,-0.4978,0.0488,-77.56,48.79,-211.47,0.2780956472413328,0.44093377179268817,-0.6000104356050852,0.6068176802327813,-102.70368787858996,-60.3256691119634,-157.22813304152461,2
1767533611.725985,2,right_wrist,1.0614,0.8843,-0.0381,77.35,-8.19,211.75,0.5383618000981211,0.0647947009279154,-0.758155678697818,-0.3621714867090225,104.32027852387482,-50.29919008450639,-130.15677675886835,2
1767533611.80217,1,left_wrist,1.1102,-0.3367,-0.3289,-158.97,39.27,-177.45,0.36506146115581567,0.457971832080843,-0.5998494166481472,0.5451354033138692,-113.52098103736006,-69.59920088577758,-154.25524334289486,2
1767533611.80217,2,right_wrist,1.0746,0.6769,-0.2137,8.19,0.7,131.67,0.5817607358879952,-0.02804561054501874,-0.7718312326330409,-0.25503811134882626,118.12855977975708,-65.83181705371038,-141.7531880009305,2
1767533611.874681,1,left_wrist,1.0721,-0.1513,-0.3733,-8.33,28.21,-83.58,0.43242640346937394,0.4948461137302198,-0.5506006041913191,0.5147559654562491,-124.67259354527226,-80.27791685254265,-143.79922523677863,2
1767533611.874681,2,right_wrist,1.0268,0.5334,-0.2718,10.22,2.73,120.89,0.5929496011460595,-0.06291985928400613,-0.7710721520216891,-0.22338217964970056,126.13173692493804,-70.47987782857763,-149.8398267807409,2
1767533611.9450922,1,left_wrist,1.0565,-0.3182,-0.3231,3.15,23.45,-57.33,0.44706693875462256,0.5039900221639831,-0.5357870053732537,0.5089769097954043,-130.91841869521954,-82.79505508595742,-137.35275260510787,2
1767533611.9450922,2,right_wrist,0.9984,0.4695,-0.2738,21.07,8.82,70.63,0.6117734203137417,-0.09881794865305601,-0.7656314906002187,-0.17255931102932412,143.24674884648957,-76.14142316354888,-165.538153138459,2
1767533611.995147,1,left_wrist,1.017,-0.1796,-0.3553,-14.77,21.49,-34.58,0.4604857508352069,0.5055129879519207,-0.5295762506782429,0.5019546662869387,-137.4490219455796,-84.39204458407781,-131.55249955942762,2
1767533611.995147,2,right_wrist,0.9926,0.4128,-0.3157,9.1,8.33,48.16,0.6161418254519703,-0.10913671592655966,-0.7634586959204986,-0.1599663958112788,149.92625276284508,-77.34687620635852,-172.00115301794293,2
1767533612.048218,1,left_wrist,1.0097,-0.121,-0.3357,-0.35,15.12,-18.41,0.4657867524731773,0.5077454752412309,-0.5247631246175729,0.49986087727901757,-142.12569458456025,-85.17729448268963,-126.89616336039978,2
1767533612.048218,2,right_wrist,0.9638,0.2513,-0.264,8.4,3.85,31.08,0.6175490645195962,-0.11449418020969959,-0.7632197202941096,-0.15172308381805857,154.75091408096185,-77.79408393742226,-176.5767690728037,2
1767533612.1256268,1,left_wrist,0.9555,-0.0512,-0.2567,0.42,-1.68,-4.55,0.46111002791796135,0.5168513583948884,-0.5215904249731455,0.4981823401679242,-151.2271008112203,-84.86949086070615,-116.9184014038843,2
1767533612.1256268,2,right_wrist,0.9345,0.2367,-0.2352,1.33,0.14,17.5,0.6168256173599184,-0.11716669456153404,-0.7637822869899084,-0.149782313824246,156.54313682291163,-77.77942890166797,-178.4300263681043,2
1767533612.199307,1,left_wrist,0.9579,0.0444,-0.2391,-3.01,-0.49,1.4,0.46061578827622907,0.5185732090109101,-0.5234571582144166,0.49488132516885525,-154.81429007108576,-84.55615449245455,-113.5003067536262,2
1767533612.199307,2,right_wrist,0.956,0.0917,-0.1815,-2.38,-7.91,-2.52,0.6138850318926728,-0.11321883186176757,-0.7665965342402843,-0.15052048837541515,155.45762907061828,-77.23584923438337,-177.0895349543822,2
1767533612.2698398,1,left_wrist,0.9731,0.0317,-0.184,2.59,-4.13,8.89,0.45452321001827267,0.5230565836952475,-0.5280723497908723,0.4908768228324579,-157.73144329829307,-83.49146781214465,-110.47005645080998,2
1767533612.2698398,2,right_wrist,0.9462,0.0766,-0.1576,12.18,-5.18,-0.77,0.6154963624246329,-0.11044057923501155,-0.766558466903961,-0.14613426401131574,156.18862764556462,-77.39722656773144,-177.22278377658097,2
1767533612.3248441,1,left_wrist,0.9609,0.0381,-0.1889,2.94,-6.51,13.3,0.44948273812048206,0.5247306219512485,-0.5318891375246596,0.4896090153394274,-157.13730219517672,-82.73671339017552,-110.96989736952952,2
1767533612.3248441,2,right_wrist,0.9692,0.061,-0.164,7.49,-2.87,-7.35,0.6171754837198019,-0.1073969312511927,-0.7660136793707647,-0.14416436615862618,155.81630225733122,-77.5528792881668,-176.4317979328462,2
1767533612.397921,1,left_wrist,0.9658,-0.0107,-0.2484,19.46,-7.07,24.78,0.4368101786561932,0.5264090991478958,-0.5359690240583739,0.4948004985916644,-151.28924471829126,-81.5593414940151,-115.92807988980165,2
1767533612.397921,2,right_wrist,0.9008,0.3079,-0.1854,-16.17,-7.14,-35.98,0.6104295204864848,-0.09172161612298982,-0.7688939078918637,-0.1666286411791354,144.09092545071016,-75.76095938395403,-165.30833436211185,2
1767533612.448637,1,left_wrist,1.0238,-0.2464,-0.3035,45.36,-9.24,58.66,0.4081089540153268,0.5229334467379388,-0.5439194623754117,0.5139448515011489,-136.3437422422177,-78.95430956004648,-128.7705645745484,2
1767533612.448637,2,right_wrist,0.9492,0.3411,-0.2816,-58.59,-10.78,-84.77,0.595328759003516,-0.07689276567852503,-0.7714247489595903,-0.21112798957569318,130.7822674123873,-71.98417073015568,-154.58231689618316,2
1767533612.5234182,1,left_wrist,1.0214,-0.6256,-0.3196,131.74,3.15,189.98,0.2609006752101864,0.48278863732083815,-0.5607984622042186,0.6199605262741659,-102.11201407152446,-63.03013635670676,-151.27029791810259,2
1767533612.5234182,2,right_wrist,0.9794,0.6276,-0.3065,-115.29,-20.51,-147.7,0.5668191485687731,-0.055792191345089906,-0.7691522686338399,-0.2898414598640113,116.33792484335936,-64.72678681998511,-145.34821141436086,2
1767533612.5966258,1,left_wrist,1.0214,-0.6256,-0.3196,131.74,3.15,189.98,0.17962503536856333,0.4488678038760646,-0.564490406276991,0.6690314809734732,-93.87733955098606,-53.456651351152786,-153.4210929266794,2
1767533612.5966258,2,right_wrist,0.9877,1.0189,-0.0747,-134.26,11.62,-251.79,0.48124185778793865,0.0327320314912332,-0.7211301792545145,-0.4972988568211493,93.22587989869908,-41.41596490070645,-135.47647855191624,2
1767533612.673003,1,left_wrist,0.8725,-1.1156,0.1615,102.9,49.77,249.76,-0.00030102399882879423,0.30677739178288316,-0.5708067729163105,0.7616214080948034,-79.56675428498833,-27.83667762606206,-156.6360764681992,2
1767533612.673003,2,right_wrist,0.9516,1.3122,0.0874,-152.46,37.45,-273.98,0.4312432049305103,0.0961317134063917,-0.6674248336803463,-0.5994431443144341,84.14184271431421,-27.412525200626764,-133.36787428526762,2
1767533612.724257,1,left_wrist,0.7964,-1.1912,0.2396,82.6,76.37,261.66,-0.07556850043418241,0.2178427742635023,-0.5723100954371987,0.7869530367842635,-75.00968597223259,-14.8545915926728,-157.60319781343878,2
1767533612.724257,2,right_wrist,0.8359,1.2952,0.364,-112.49,79.1,-278.04,0.38492371585691637,0.17353137308463126,-0.6036842530815298,-0.6762291905172845,77.48371938128598,-13.300063273540287,-131.38953235135483,2
1767533612.8010209,1,left_wrist,0.6144,-1.2132,0.4236,87.43,90.79,264.18,-0.14819840775901194,0.11974046837248556,-0.5638186137815162,0.8036218158593761,-70.38797085281067,-1.45191949297138,-158.0785804846405,2
1767533612.8010209,2,right_wrist,0.4597,1.1907,0.589,-116.13,131.6,-251.65,0.3083916765598746,0.33149339826691,-0.43892484447678326,-0.7761131886748717,65.97064741371082,14.112775315077089,-127.47214022772393,2
1767533612.872409,1,left_wrist,0.2381,-1.1527,0.5275,81.27,155.47,248.36,-0.2522814420304095,-0.10917899320345428,-0.531766810128773,0.801035630353361,-62.73817461953286,26.309659462001086,-161.25572288111405,2
1767533612.872409,2,right_wrist,0.3128,0.9726,0.6461,-86.59,147.63,-237.09,0.2691483244331292,0.4087130201838292,-0.3533154704998746,-0.79729607103792,62.017052695833605,27.486657149622143,-125.96732435034049,2
1767533612.922605,1,left_wrist,0.062,-1.0097,0.405,20.44,189.84,226.17,-0.28164800480855073,-0.22456407315089977,-0.5313252593888745,0.7667717047287185,-64.07969997774065,40.06619090468781,-165.37080881377696,2
1767533612.922605,2,right_wrist,0.0981,1.0272,0.507,-50.89,173.25,-216.16,0.2305957586827237,0.4899213373618128,-0.27714464979120784,-0.7937213127838137,61.18316114957638,40.53445870200589,-122.9704665771819,2
1767533612.998198,1,left_wrist,-0.082,-0.6012,0.2211,11.69,174.16,196.91,-0.30174817489122036,-0.3243449777424494,-0.5273785627769485,0.7249967075003774,-67.70007283197488,52.05199383948779,-171.072731219817,2
1767533612.998198,2,right_wrist,-0.1723,0.6124,0.2796,-28.56,157.99,-158.48,0.16699030602761883,0.6227059374760945,-0.14662176699285911,-0.7502357033417648,67.02101401441362,62.29876752795451,-111.27906564253952,2
1767533613.04916,1,left_wrist,-0.082,-0.6012,0.2211,11.69,174.16,196.91,-0.31826164411708696,-0.4206741058571559,-0.5165274695488634,0.6744940294373397,-75.31075721971327,63.671523425168395,179.32198097128216,2
1767533613.04916,2,right_wrist,-0.365,0.4412,0.0898,-49.0,132.3,-134.19,0.14740820799481222,0.668084034732293,-0.08786792982063987,-0.7240260835499047,74.17600008423409,70.30766386601115,-100.92592644668012,2
1767533613.0998201,1,left_wrist,-0.3782,-0.3177,-0.0049,18.97,126.84,125.02,-0.3188715267694145,-0.48577979839041496,-0.5073762921854872,0.6363240016057994,-87.75397136656686,70.35648226312597,164.9772941148522,2
1767533613.0998201,2,right_wrist,-0.365,0.4412,0.0898,-49.0,132.3,-134.19,0.12703578828766185,0.7086636353091758,-0.027852990089874297,-0.6934565389608559,91.56113783855875,77.36366074079992,-80.34639521129334,2
1767533613.169892,1,left_wrist,-0.611,-0.3387,-0.1825,56.42,98.28,72.59,-0.290305878122801,-0.5870014396337466,-0.4802740191799539,0.5835140730916366,-124.40961570031814,74.55788406589667,122.30622149715117,2
1767533613.169892,2,right_wrist,-0.6154,0.2582,0.0371,-42.28,86.1,-83.44,0.11895826757703101,0.7312574982820008,0.01255629214163068,-0.6715308937860379,113.95084534429844,80.10067525342944,-55.33724965843192,2
1767533613.221739,1,left_wrist,-0.7183,-0.2977,-0.3431,1.4,71.12,49.28,-0.28475376969705696,-0.6159927390821646,-0.4784658514749868,0.5572599617895434,-139.91175199541402,73.54168024516788,106.1775381971087,2
1767533613.221739,2,right_wrist,-0.7257,0.3289,-0.0137,-21.49,84.84,-62.02,0.11052853757671907,0.753427408492438,0.039861749935933305,-0.6469479294391209,140.299467359064,79.63078626185072,-27.441205209806647,2
1767533613.2735732,1,left_wrist,-0.6154,0.1469,-0.9433,-36.82,22.05,6.65,-0.2910096905187721,-0.6207417311020239,-0.48921312904577224,0.5391322450585528,-146.30711356265957,72.56458158007133,101.54866980962184,2
1767533613.2735732,2,right_wrist,-0.8091,0.3299,-0.4958,23.45,96.53,-45.29,0.08953524367924601,0.7824554112911888,0.05131764895722478,-0.6140956508443434,161.45137280118004,75.97602396721777,-7.0301400280514805,2
1767533613.327004,1,left_wrist,-0.9882,-0.4904,-0.2606,74.62,-63.07,-0.49,-0.2805320388265425,-0.6127393154777832,-0.4655972695037142,0.5736475303619173,-134.09354973489846,74.62748741299256,110.23876002354504,2
1767533613.327004,2,right_wrist,-0.6017,-0.5144,-0.6666,79.8,27.51,-2.1,0.05788073800785667,0.794221695448803,0.034101175560097834,-0.6039029959120209,169.11399346223115,74.41081815166946,-3.357934687918254,2
1767533613.4020748,1,left_wrist,-1.138,-0.4729,-0.1952,-41.79,12.18,7.0,-0.2878189394223939,-0.6098178569419437,-0.4778278141035075,0.5629946887258951,-136.98105599550627,74.09224461925893,109.29432760426714,2
1767533613.4020748,2,right_wrist,-0.9477,0.0922,-0.3026,20.72,9.66,5.25,0.06195416680222021,0.7909168057791833,0.02178159794886609,-0.608389554103857,164.16307154289285,74.81168967813113,-8.987832979389633,2
1767533613.4743261,1,left_wrist,-0.9984,-0.3699,-0.1186,2.1,-11.48,-13.58,-0.2844371600470041,-0.5986226191299076,-0.4821057771698555,0.5729925666794415,-130.5830382213159,73.79518123752939,115.80733566774566,2
1767533613.4743261,2,right_wrist,-0.9365,0.0839,-0.2747,15.47,-17.78,16.8,0.06231288075321123,0.7888417760863962,0.010442980027929979,-0.6113400864995133,160.73596316000618,74.97275916114359,-13.315012412298024,2
1767533613.547442,1,left_wrist,-0.8823,-0.2069,-0.2499,-5.25,-6.16,-17.5,-0.2811197912981013,-0.5943409183419666,-0.4889082057084242,0.5733230346985103,-129.1791120233937,73.01518779830056,117.6274184334104,2
1767533613.547442,2,right_wrist,-0.8706,0.1108,-0.2606,5.95,-32.62,18.06,0.0697263222178595,0.7777111826435019,-0.0063853530170860815,-0.6247101597125373,150.96552492532476,76.11938428456308,-23.862412475172032,2
1767533613.621275,1,left_wrist,-0.852,-0.3489,-0.2528,-6.02,-29.75,-32.76,-0.27243834792714433,-0.5689989166872993,-0.5030079648531874,0.5907626991285612,-118.37545056705483,71.14934736176639,129.15995176601083,2
1767533613.621275,2,right_wrist,-0.8233,0.1493,-0.2806,7.21,-47.6,31.01,0.07662220846511623,0.7668811602161087,-0.021397873486035775,-0.6368394258255362,140.73958941519402,76.77551029586738,-34.754541756104345,2
1767533611.147465,1,left_wrist,-0.8106,-0.2991,-0.2879,-2.17,-36.19,-31.64,-0.2653356883307922,-0.5379651614918183,-0.5089277540756534,0.6174001932706356,-105.7667823471089,69.12386474825139,141.8889322933403,2
1767533611.147465,2,right_wrist,-0.774,0.1532,-0.2772,13.51,-48.72,43.96,0.13434581329200743,0.7356113010390234,-0.03494904975109453,-0.6630277370940675,109.14178186905934,75.03214378085602,-62.72823418228471,2
1767533611.199299,1,left_wrist,-0.7066,-0.2904,-0.3035,-13.44,-73.29,-58.45,-0.2673617428218976,-0.5050429785543601,-0.5193534853208625,0.6353906243982911,-97.24826645120436,66.85450149472277,151.9505613741449,2
1767533611.199299,2,right_wrist,-0.5983,0.1118,-0.2694,43.61,-82.74,83.72,0.142037647518453,0.7146703030929936,-0.07871020511303511,-0.6803501805507632,96.23796586024349,71.82211116032266,-78.56367912410106,2
1767533611.274741,1,left_wrist,-0.426,-0.3431,-0.1771,-49.07,-137.34,-148.19,-0.2652715209191838,-0.3732256417559686,-0.5663486793835459,0.6852611282464386,-82.13166694315748,54.29046455203247,174.17957479937783,2
1767533611.274741,2,right_wrist,-0.5231,0.2303,-0.1059,44.31,-107.03,129.92,0.16363018952033223,0.6814757224143435,-0.14019715713932976,-0.6994002845062612,85.65150037076299,65.144078296008,-92.40410347122514,2
1767533611.3442361,1,left_wrist,-0.3065,-0.4963,-0.0005,-68.18,-146.37,-208.25,-0.24521625748467182,-0.26560593740676525,-0.6020353636630158,0.711952171131337,-79.55515877704997,42.33429950341109,-177.72407661536533,2
1767533611.3442361,2,right_wrist,-0.2328,0.7413,0.2821,58.31,-153.09,197.61,0.23325562245658624,0.5576150505037505,-0.2972589505915487,-0.7391173021498694,73.93858198464372,43.28369514823464,-111.71277240106515,2
1767533611.397481,1,left_wrist,-0.3065,-0.4963,-0.0005,-68.18,-146.37,-208.25,-0.22250485191355548,-0.15549412767205448,-0.6301946956462221,0.7274392158206752,-79.48380118728849,30.44212785164012,-171.47972294529686,2
1767533611.397481,2,right_wrist,-0.1196,0.8677,0.0942,58.24,-145.39,224.49,0.27343846655829324,0.48231600099885885,-0.3861074171417269,-0.7372406273496206,74.14601412172011,30.000837726243237,-116.41058139643165,2
1767533611.474296,1,left_wrist,0.2484,-1.0546,0.0595,18.83,-94.64,-215.32,-0.14389348593556925,0.07938608982031908,-0.651886445771294,0.7402949245186139,-82.07813436866071,4.0177888160528985,-161.4985563492513,2
1767533611.474296,2,right_wrist,-0.1196,0.8677,0.0942,58.24,-145.39,224.49,0.3089983571020825,0.40016320884830825,-0.46941660546740294,-0.7239043252418786,75.53964708134669,16.813768363258472,-120.70429000713766,2
1767533611.549068,1,left_wrist,0.2484,-1.0546,0.0595,18.83,-94.64,-215.32,-0.09811754245527839,0.17268874891990196,-0.629287654191353,0.7513644868779464,-81.3879721951184,-7.817378398829178,-158.39487241635803,2
1767533611.549068,2,right_wrist,0.487,1.3713,0.2469,178.99,-66.85,272.37,0.40422095147908527,0.2593350992809651,-0.6400309239797997,-0.5997592392084001,87.29303499056371,-11.908571824071569,-123.40477630523131,2
1767533611.620704,1,left_wrist,0.9531,-0.7135,0.1254,-142.8,-9.45,-269.99,0.09257552799231085,0.3409036906642861,-0.6350443527526912,0.6869738825787552,-92.75812792177449,-35.87105046323159,-157.83013797514255,2
1767533611.620704,2,right_wrist,0.8164,1.0111,0.1049,81.13,-21.14,277.13,0.4606965230980266,0.185728296227086,-0.691543940773468,-0.5244336865281208,91.62653243316896,-26.25579683322036,-124.38832506587987,2
1767533611.670729,1,left_wrist,1.1556,-0.8516,-0.2401,-113.54,10.22,-255.22,0.19019870518681953,0.4040512822601381,-0.6254165145263588,0.6398602950698662,-99.55110419187308,-49.0235844919397,-156.45040282413282,2
1767533611.670729,2,right_wrist,0.9926,0.995,0.0503,106.47,-18.83,258.16,0.5044324761474601,0.12057914820551573,-0.7351083754197615,-0.4366053394239394,98.18659865266099,-39.51900078276315,-126.7927783421688,2
1767533611.725985,1,left_wrist,1.1902,-0.4978,0.0488,-77.56,48.79,-211.47,0.2780956472413328,0.44093377179268817,-0.6000104356050852,0.6068176802327813,-102.70368787858996,-60.3256691119634,-157.22813304152461,2
1767533611.725985,2,right_wrist,1.0614,0.8843,-0.0381,77.35,-8.19,211.75,0.5383618000981211,0.0647947009279154,-0.758155678697818,-0.3621714867090225,104.32027852387482,-50.29919008450639,-130.15677675886835,2
1767533611.80217,1,left_wrist,1.1102,-0.3367,-0.3289,-158.97,39.27,-177.45,0.36506146115581567,0.457971832080843,-0.5998494166481472,0.5451354033138692,-113.52098103736006,-69.59920088577758,-154.25524334289486,2
1767533611.80217,2,right_wrist,1.0746,0.6769,-0.2137,8.19,0.7,131.67,0.5817607358879952,-0.02804561054501874,-0.7718312326330409,-0.25503811134882626,118.12855977975708,-65.83181705371038,-141.7531880009305,2
1767533611.874681,1,left_wrist,1.0721,-0.1513,-0.3733,-8.33,28.21,-83.58,0.43242640346937394,0.4948461137302198,-0.5506006041913191,0.5147559654562491,-124.67259354527226,-80.27791685254265,-143.79922523677863,2
1767533611.874681,2,right_wrist,1.0268,0.5334,-0.2718,10.22,2.73,120.89,0.5929496011460595,-0.06291985928400613,-0.7710721520216891,-0.22338217964970056,126.13173692493804,-70.47987782857763,-149.8398267807409,2
1767533611.9450922,1,left_wrist,1.0565,-0.3182,-0.3231,3.15,23.45,-57.33,0.44706693875462256,0.5039900221639831,-0.5357870053732537,0.5089769097954043,-130.91841869521954,-82.79505508595742,-137.35275260510787,2
1767533611.9450922,2,right_wrist,0.9984,0.4695,-0.2738,21.07,8.82,70.63,0.6117734203137417,-0.09881794865305601,-0.7656314906002187,-0.17255931102932412,143.24674884648957,-76.14142316354888,-165.538153138459,2
1767533611.995147,1,left_wrist,1.017,-0.1796,-0.3553,-14.77,21.49,-34.58,0.4604857508352069,0.5055129879519207,-0.5295762506782429,0.5019546662869387,-137.4490219455796,-84.39204458407781,-131.55249955942762,2
1767533611.995147,2,right_wrist,0.9926,0.4128,-0.3157,9.1,8.33,48.16,0.6161418254519703,-0.10913671592655966,-0.7634586959204986,-0.1599663958112788,149.92625276284508,-77.34687620635852,-172.00115301794293,2
1767533612.048218,1,left_wrist,1.0097,-0.121,-0.3357,-0.35,15.12,-18.41,0.4657867524731773,0.5077454752412309,-0.5247631246175729,0.49986087727901757,-142.12569458456025,-85.17729448268963,-126.89616336039978,2
1767533612.048218,2,right_wrist,0.9638,0.2513,-0.264,8.4,3.85,31.08,0.6175490645195962,-0.11449418020969959,-0.7632197202941096,-0.15172308381805857,154.75091408096185,-77.79408393742226,-176.5767690728037,2
1767533612.1256268,1,left_wrist,0.9555,-0.0512,-0.2567,0.42,-1.68,-4.55,0.46111002791796135,0.5168513583948884,-0.5215904249731455,0.4981823401679242,-151.2271008112203,-84.86949086070615,-116.9184014038843,2
1767533612.1256268,2,right_wrist,0.9345,0.2367,-0.2352,1.33,0.14,17.5,0.6168256173599184,-0.11716669456153404,-0.7637822869899084,-0.149782313824246,156.54313682291163,-77.77942890166797,-178.4300263681043,2
1767533612.199307,1,left_wrist,0.9579,0.0444,-0.2391,-3.01,-0.49,1.4,0.46061578827622907,0.5185732090109101,-0.5234571582144166,0.49488132516885525,-154.81429007108576,-84.55615449245455,-113.5003067536262,2
1767533612.199307,2,right_wrist,0.956,0.0917,-0.1815,-2.38,-7.91,-2.52,0.6138850318926728,-0.11321883186176757,-0.7665965342402843,-0.15052048837541515,155.45762907061828,-77.23584923438337,-177.0895349543822,2
1767533612.2698398,1,left_wrist,0.9731,0.0317,-0.184,2.59,-4.13,8.89,0.45452321001827267,0.5230565836952475,-0.5280723497908723,0.4908768228324579,-157.73144329829307,-83.49146781214465,-110.47005645080998,2
1767533612.2698398,2,right_wrist,0.9462,0.0766,-0.1576,12.18,-5.18,-0.77,0.6154963624246329,-0.11044057923501155,-0.766558466903961,-0.14613426401131574,156.18862764556462,-77.39722656773144,-177.22278377658097,2
1767533612.3248441,1,left_wrist,0.9609,0.0381,-0.1889,2.94,-6.51,13.3,0.44948273812048206,0.5247306219512485,-0.5318891375246596,0.4896090153394274,-157.13730219517672,-82.73671339017552,-110.96989736952952,2
1767533612.3248441,2,right_wrist,0.9692,0.061,-0.164,7.49,-2.87,-7.35,0.6171754837198019,-0.1073969312511927,-0.7660136793707647,-0.14416436615862618,155.81630225733122,-77.5528792881668,-176.4317979328462,2
1767533612.397921,1,left_wrist,0.9658,-0.0107,-0.2484,19.46,-7.07,24.78,0.4368101786561932,0.5264090991478958,-0.5359690240583739,0.4948004985916644,-151.28924471829126,-81.5593414940151,-115.92807988980165,2
1767533612.397921,2,right_wrist,0.9008,0.3079,-0.1854,-16.17,-7.14,-35.98,0.6104295204864848,-0.09172161612298982,-0.7688939078918637,-0.1666286411791354,144.09092545071016,-75.76095938395403,-165.30833436211185,2
1767533612.448637,1,left_wrist,1.0238,-0.2464,-0.3035,45.36,-9.24,58.66,0.4081089540153268,0.5229334467379388,-0.5439194623754117,0.5139448515011489,-136.3437422422177,-78.95430956004648,-128.7705645745484,2
1767533612.448637,2,right_wrist,0.9492,0.3411,-0.2816,-58.59,-10.78,-84.77,0.595328759003516,-0.07689276567852503,-0.7714247489595903,-0.21112798957569318,130.7822674123873,-71.98417073015568,-154.58231689618316,2
1767533612.5234182,1,left_wrist,1.0214,-0.6256,-0.3196,131.74,3.15,189.98,0.2609006752101864,0.48278863732083815,-0.5607984622042186,0.6199605262741659,-102.11201407152446,-63.03013635670676,-151.27029791810259,2
1767533612.5234182,2,right_wrist,0.9794,0.6276,-0.3065,-115.29,-20.51,-147.7,0.5668191485687731,-0.055792191345089906,-0.7691522686338399,-0.2898414598640113,116.33792484335936,-64.72678681998511,-145.34821141436086,2
1767533612.5966258,1,left_wrist,1.0214,-0.6256,-0.3196,131.74,3.15,189.98,0.17962503536856333,0.4488678038760646,-0.564490406276991,0.6690314809734732,-93.87733955098606,-53.456651351152786,-153.4210929266794,2
1767533612.5966258,2,right_wrist,0.9877,1.0189,-0.0747,-134.26,11.62,-251.79,0.48124185778793865,0.0327320314912332,-0.7211301792545145,-0.4972988568211493,93.22587989869908,-41.41596490070645,-135.47647855191624,2
1767533612.673003,1,left_wrist,0.8725,-1.1156,0.1615,102.9,49.77,249.76,-0.00030102399882879423,0.30677739178288316,-0.5708067729163105,0.7616214080948034,-79.56675428498833,-27.83667762606206,-156.6360764681992,2
1767533612.673003,2,right_wrist,0.9516,1.3122,0.0874,-152.46,37.45,-273.98,0.4312432049305103,0.0961317134063917,-0.6674248336803463,-0.5994431443144341,84.14184271431421,-27.412525200626764,-133.36787428526762,2
1767533612.724257,1,left_wrist,0.7964,-1.1912,0.2396,82.6,76.37,261.66,-0.07556850043418241,0.2178427742635023,-0.5723100954371987,0.7869530367842635,-75.00968597223259,-14.8545915926728,-157.60319781343878,2
1767533612.724257,2,right_wrist,0.8359,1.2952,0.364,-112.49,79.1,-278.04,0.38492371585691637,0.17353137308463126,-0.6036842530815298,-0.6762291905172845,77.48371938128598,-13.300063273540287,-131.38953235135483,2
1767533612.8010209,1,left_wrist,0.6144,-1.2132,0.4236,87.43,90.79,264.18,-0.14819840775901194,0.11974046837248556,-0.5638186137815162,0.8036218158593761,-70.38797085281067,-1.45191949297138,-158.0785804846405,2
1767533612.8010209,2,right_wrist,0.4597,1.1907,0.589,-116.13,131.6,-251.65,0.3083916765598746,0.33149339826691,-0.43892484447678326,-0.7761131886748717,65.97064741371082,14.112775315077089,-127.47214022772393,2
1767533612.872409,1,left_wrist,0.2381,-1.1527,0.5275,81.27,155.47,248.36,-0.2522814420304095,-0.10917899320345428,-0.531766810128773,0.801035630353361,-62.73817461953286,26.309659462001086,-161.25572288111405,2
1767533612.872409,2,right_wrist,0.3128,0.9726,0.6461,-86.59,147.63,-237.09,0.2691483244331292,0.4087130201838292,-0.3533154704998746,-0.79729607103792,62.017052695833605,27.486657149622143,-125.96732435034049,2
1767533612.922605,1,left_wrist,0.062,-1.0097,0.405,20.44,189.84,226.17,-0.28164800480855073,-0.22456407315089977,-0.5313252593888745,0.7667717047287185,-64.07969997774065,40.06619090468781,-165.37080881377696,2
1767533612.922605,2,right_wrist,0.0981,1.0272,0.507,-50.89,173.25,-216.16,0.2305957586827237,0.4899213373618128,-0.27714464979120784,-0.7937213127838137,61.18316114957638,40.53445870200589,-122.9704665771819,2
1767533612.998198,1,left_wrist,-0.082,-0.6012,0.2211,11.69,174.16,196.91,-0.30174817489122036,-0.3243449777424494,-0.5273785627769485,0.7249967075003774,-67.70007283197488,52.05199383948779,-171.072731219817,2
1767533612.998198,2,right_wrist,-0.1723,0.6124,0.2796,-28.56,157.99,-158.48,0.16699030602761883,0.6227059374760945,-0.14662176699285911,-0.7502357033417648,67.02101401441362,62.29876752795451,-111.27906564253952,2
1767533613.04916,1,left_wrist,-0.082,-0.6012,0.2211,11.69,174.16,196.91,-0.31826164411708696,-0.4206741058571559,-0.5165274695488634,0.6744940294373397,-75.31075721971327,63.671523425168395,179.32198097128216,2
1767533613.04916,2,right_wrist,-0.365,0.4412,0.0898,-49.0,132.3,-134.19,0.14740820799481222,0.668084034732293,-0.08786792982063987,-0.7240260835499047,74.17600008423409,70.30766386601115,-100.92592644668012,2
