timestamp,node_id,node_name,ax,ay,az,gx,gy,gz,qw,qx,qy,qz,roll,pitch,yaw,rep_number
1767380388.9316869,1,left_wrist,0.4055,-0.3855,-0.834,7.42,-31.5,9.73,-0.2692997907497945,0.04249518161314903,0.9576861561788252,-0.09224428711421193,-166.60354364003382,-30.528672725591846,171.2472045337621,1
1767380388.9316869,2,right_wrist,0.3655,-0.1591,-0.954,-6.65,-37.94,-2.1,-0.22916948516936375,-0.006048053784490514,0.9730667168560821,-0.024206045929774097,-177.16019347455267,-26.505722643684265,-179.95673504169454,1
1767380389.003098,1,left_wrist,0.4792,-0.0551,-0.8891,-1.82,-24.85,8.19,-0.2570497005779105,0.044052817985168795,0.9613345573323796,-0.08843454946416635,-167.26006936283045,-29.106200602197404,171.43241820336007,1
1767380389.003098,2,right_wrist,0.5773,-0.1542,-0.791,-6.93,-21.91,-1.19,-0.2175038094546983,-0.0052001333022963295,0.9757812051362156,-0.02271764048591912,-177.3363726254685,-25.13221559087438,-179.983163209411,1
1767380389.075448,1,left_wrist,0.3084,-0.0673,-0.9823,-8.4,-4.97,0.21,-0.23975464932975243,0.04559172290641708,0.9678974715204961,-0.06011312295516283,-171.0511268491662,-27.29903036445537,172.42896542476475,1
1767380389.075448,2,right_wrist,0.4597,-0.2577,-0.9072,-39.13,-34.86,-4.97,-0.20333031988968886,-0.0029224110194306144,0.9790534578192707,-0.010127549531833034,-178.83548830865433,-23.465806051532027,-179.8998168976664,1
1767380389.126776,1,left_wrist,0.4016,-0.2357,-0.9306,-11.27,19.25,-5.67,-0.24483590066031136,0.046028606142466275,0.9667218931130719,-0.05818531206682802,-171.21045576901227,-27.905851770201956,172.3602227413233,1
1767380389.126776,2,right_wrist,0.3055,0.2084,-0.8164,33.81,9.38,1.68,-0.20636068842794628,-0.006142798049372361,0.9782525346879947,-0.01998776326111664,-177.70878691603613,-23.827931905173916,-179.76392722310976,1
1767380389.20562,1,left_wrist,0.4909,-0.0542,-0.9262,-5.32,48.93,-10.08,-0.26521792846187636,0.04239733817941876,0.9620060279764017,-0.04905423809170237,-172.21203052252872,-30.40592493122154,172.83360986317658,1
1767380389.20562,2,right_wrist,0.4172,-0.2386,-0.9008,17.64,42.84,-3.99,-0.24243329778152875,-0.00977882184917567,0.9691200366537351,-0.044009377708368116,-174.76103980059338,-28.083293822846098,179.84511550452925,1
1767380389.275784,1,left_wrist,0.5261,-0.2128,-0.792,-12.81,91.28,-7.07,-0.3306452381368996,0.04406915213667313,0.9420096065312094,-0.036736052186700875,-172.80088556684538,-38.294531551830374,172.14061066223744,1
1767380389.275784,2,right_wrist,0.5104,-0.2167,-0.8633,22.33,55.51,-4.41,-0.2670539836562233,-0.011883019831811384,0.9618827840494408,-0.05764090042942802,-172.994323411144,-31.005419771326704,179.4701419914137,1
1767380389.330071,1,left_wrist,0.5261,-0.2128,-0.792,-12.81,91.28,-7.07,-0.36516086041197815,0.04593309475115378,0.9292407733689765,-0.03254661178051563,-172.67187959905138,-42.505018872699026,171.48683530609617,1
1767380389.330071,2,right_wrist,0.6495,-0.1854,-0.6544,38.64,79.38,-17.85,-0.3039347834363467,-0.02163186879099885,0.9495834299914261,-0.07380392371567013,-171.02643753742692,-35.47980028032895,179.73399288268368,1
1767380389.4022222,1,left_wrist,0.7261,-0.059,-0.6339,-20.86,119.7,3.57,-0.4162869721027907,0.05169687578695177,0.9075183266835962,-0.021049385377355515,-172.9025336849759,-48.88573816564264,170.25009191169627,1
1767380389.4022222,2,right_wrist,0.7178,-0.2059,-0.6427,43.75,82.88,-22.75,-0.3772167227550775,-0.04330871126806594,0.9188442714418441,-0.10750397406945043,-166.60345008160326,-44.629419849587386,179.8778935796374,1
1767380389.455595,1,left_wrist,0.7618,-0.0054,-0.5051,-4.2,127.96,5.32,-0.46924800053431714,0.05463711241834836,0.8812377800982958,-0.015526585862896337,-171.9938426280155,-55.623127136422646,168.67615949445252,1
1767380389.455595,2,right_wrist,0.9199,-0.1962,-0.4699,36.12,79.87,-32.76,-0.4130259542500121,-0.058657822078079236,0.9010392445572801,-0.1187312123772398,-165.2942872064929,-49.30877661365594,-179.32965376273182,1
1767380389.5284631,1,left_wrist,0.9023,-0.0293,-0.344,7.35,124.67,5.6,-0.5682888162329,0.0556887679603983,0.8207986054160171,-0.015369834572414373,-165.9454753477791,-68.62099901361346,162.620333572885,1
1767380389.5284631,2,right_wrist,0.8891,-0.1991,-0.3357,19.53,82.95,-46.34,-0.4501914734212833,-0.07596340034215394,0.8814322375169166,-0.12097276442717834,-165.62891786811136,-54.292345479024874,-177.545894896346,1
1767380389.602389,1,left_wrist,0.7779,-0.0903,-0.2147,66.08,100.1,28.77,-0.6075506951972413,0.050467130215766084,0.791428225943012,-0.044458797935061196,-152.9412357765857,-73.17199727065683,152.44909117053353,1
1767380389.602389,2,right_wrist,0.8174,-0.2235,-0.2142,28.35,79.87,-65.94,-0.5191980434837399,-0.12428926587484505,0.8358486003610602,-0.12783852042872396,-168.8175634654256,-64.12126423169734,-170.10193695698342,1
1767380389.6767612,1,left_wrist,0.8438,-0.2347,-0.0849,63.91,133.07,-5.6,-0.7089538497299559,0.026969984701694337,0.698168538185412,-0.0960091202246449,-82.17905215804143,-79.98419565499248,87.79687413999014,1
1767380389.6767612,2,right_wrist,0.8174,-0.2235,-0.2142,28.35,79.87,-65.94,-0.5517532276707531,-0.1486546319196763,0.8102784224777335,-0.13007326485764564,-172.54563519020778,-68.87867086236201,-164.32356388849254,1
1767380391.555802,1,left_wrist,0.5348,-0.0303,-0.8194,-16.24,-75.88,-0.21,-0.3374079163169367,0.1091955991619257,0.9347312605890743,0.022576306338530222,-177.6626913622315,-39.47206405996976,165.83514230141068,2
1767380391.555802,2,right_wrist,0.5344,-0.2313,-0.773,-27.72,-49.35,20.23,-0.2495808405110792,-0.0847939502692978,0.9558856239040223,-0.12962277601227795,-166.282597024781,-29.94205653764483,-173.54592560529755,2
1767380391.6253839,1,left_wrist,0.5148,-0.081,-0.7735,-2.66,-39.41,8.47,-0.2975146602139783,0.115826277038618,0.9476420450573868,0.006622306591205799,-176.08126087225696,-34.430689228116556,164.84845554386507,2
1767380391.6253839,2,right_wrist,0.4958,-0.121,-0.8745,-16.31,-30.8,14.77,-0.23613222612956158,-0.07982354283238567,0.9611487563227838,-0.11858685429654384,-167.53017114464694,-28.21935415164783,-173.65102886539282,2
1767380391.6818519,1,left_wrist,0.5139,-0.0254,-0.7891,10.01,-40.46,-0.63,-0.2780338883729584,0.11349733955209135,0.9538355667026716,0.00363627884025319,-176.1982376549274,-32.088100888737806,165.3348386889332,2
1767380391.6818519,2,right_wrist,0.73,-0.0605,-0.7803,-6.86,-22.4,11.62,-0.23021511577931839,-0.07614209549803432,0.9633509752785514,-0.11470954707323637,-167.90395556434308,-27.453227561121363,-173.9266241425931,2
1767380391.7557418,1,left_wrist,0.5139,-0.0254,-0.7891,10.01,-40.46,-0.63,-0.26347368620002176,0.11077847315157571,0.9582830519261488,0.001827281446357343,-176.3540802557757,-30.355889186960084,165.82226506360826,2
1767380391.7557418,2,right_wrist,0.2284,-0.6505,-0.426,-0.14,-11.83,4.83,-0.21870031214632427,-0.07000363761631313,0.9665104793404707,-0.11457380814408623,-167.73736527130046,-26.026924054601903,-174.55905723121438,2
1767380391.8057642,1,left_wrist,0.3401,-0.0224,-0.8384,15.05,-7.91,0.07,-0.2563890073557487,0.10909003084396642,0.9603878352843714,-0.0043872446244945466,-175.76142519258389,-29.439783040867265,165.9251324276482,2
1767380391.8057642,2,right_wrist,0.2855,-0.1493,-0.8847,11.34,-3.29,-3.71,-0.21278773185928293,-0.07270395892404727,0.9672862656537182,-0.11744273415003939,-167.4531018332854,-25.387015373394057,-174.23998067506705,2
1767380391.878811,1,left_wrist,0.5031,-0.1303,-0.8247,-6.23,57.33,-3.99,-0.28869806897698724,0.10941228954847453,0.9511277167444142,0.0062001859066501,-176.47140815075215,-33.40367064978437,165.81667448940078,2
1767380391.878811,2,right_wrist,0.3933,-0.3074,-0.8398,21.91,39.27,-1.33,-0.22761074046681934,-0.07211123689311619,0.9620122592292263,-0.1323847930487901,-165.55434687059355,-27.195077207886342,-174.93803598575016,2
1767380391.9514298,1,left_wrist,0.6163,-0.04,-0.7886,-17.92,73.43,0.49,-0.3221455313706466,0.11119905050300326,0.9399630050928743,0.018071437184886765,-177.27605429404952,-37.56266884010637,165.57988937063976,2
1767380391.9514298,2,right_wrist,0.528,-0.204,-0.8067,18.55,59.71,-12.46,-0.28577234065571705,-0.0809806783897699,0.9435763730130559,-0.14642379361023258,-163.83840605694925,-34.26428901359627,-175.20141448512157,2
1767380392.002624,1,left_wrist,0.6461,-0.1313,-0.7213,1.96,88.27,3.29,-0.36113925210510495,0.11247105254482061,0.9255296510192156,0.017987996349636933,-176.28599356897817,-42.26313079431832,164.70679869508146,2
1767380392.002624,2,right_wrist,0.693,-0.2152,-0.712,29.4,70.49,-23.8,-0.31901751198394973,-0.09033366823778645,0.9300800956474384,-0.15817291522485064,-162.41303726183307,-38.46235862314822,-175.0829367899527,2
1767380392.055768,1,left_wrist,0.7681,-0.183,-0.6446,4.27,105.21,3.99,-0.40650380675409536,0.11332037927095459,0.9064093379706184,0.018310073074173143,-174.96415361978103,-47.822429886014525,163.51366108244216,2
1767380392.055768,2,right_wrist,0.693,-0.2152,-0.712,29.4,70.49,-23.8,-0.35186410033046706,-0.09989347105974852,0.9152451338309454,-0.1689357698565964,-161.03501400664905,-42.67469090499835,-175.0085243723673,2
1767380392.125228,1,left_wrist,0.9194,-0.143,-0.3753,42.42,113.33,6.16,-0.5009027311496375,0.10814608213756821,0.858685988179823,0.007697567717733163,-169.18790475814583,-59.5307285849653,159.44766551254406,2
1767380392.125228,2,right_wrist,0.7828,-0.2245,-0.6324,38.92,77.0,-31.78,-0.38665986542716885,-0.11328184820470613,0.8967670310245035,-0.18294879994869293,-159.22609128435363,-47.30190946871516,-174.77999491616012,2
1767380392.178454,1,left_wrist,0.9799,-0.1479,-0.3231,68.25,103.18,5.04,-0.5450608580248418,0.09466991216608185,0.8329051728696153,-0.014671120840811904,-162.52275045536692,-64.84891049909751,155.87751569350561,2
1767380392.178454,2,right_wrist,0.8969,-0.2743,-0.4241,19.67,78.33,-42.49,-0.42245604162725925,-0.1268159400460043,0.8774775897299213,-0.18836584022758346,-158.66754216940308,-52.107734408189366,-174.07460872423536,2
1767380392.252299,1,left_wrist,0.8096,-0.2201,-0.204,84.63,95.69,5.04,-0.5849235321504267,0.07775493627982806,0.8061233143521477,-0.044540245606608055,-152.43083850695098,-69.4089598408649,149.69520087522312,2
1767380392.252299,2,right_wrist,0.7559,-0.3845,-0.326,4.97,89.46,-49.63,-0.49500065618417294,-0.14979829263341346,0.8334831401869933,-0.19452680258869512,-157.94175714909463,-62.05880534644019,-172.99714290295867,2
1767380392.3262248,1,left_wrist,0.8491,-0.2586,-0.1005,105.42,149.03,-1.4,-0.6706929316175727,0.03867281862297872,0.7317435977621622,-0.1150074419855825,-108.55029600509843,-76.57019530971212,114.78136622575026,2
1767380392.3262248,2,right_wrist,0.8247,-0.1181,-0.2567,8.26,102.9,-53.83,-0.5388514443874761,-0.1625283465388199,0.8038555067465709,-0.192457740104423,-158.74727640330863,-68.26044320689167,-171.6345670055614,2
1767380393.701437,1,left_wrist,0.8032,-0.1591,-0.4973,-30.45,-78.75,-16.59,-0.4600773882397121,0.158661216315789,0.8735706208461591,0.005457624224508823,-166.6853537333682,-53.6635992463603,152.65425068813408,3
1767380393.701437,2,right_wrist,0.6876,-0.0698,-0.6525,-10.71,-76.3,26.53,-0.3879123972840598,-0.08330607934324098,0.9096311812031036,-0.12310639041430098,-166.59869164429668,-46.57088615678035,-175.32362767762586,3
1767380393.7539048,1,left_wrist,0.8032,-0.1591,-0.4973,-30.45,-78.75,-16.59,-0.4308162663647748,0.15881878326666435,0.888246146691447,0.013882420718591661,-169.87837848142746,-50.33156603367607,154.96007836428174,3
1767380393.7539048,2,right_wrist,0.5851,-0.2323,-0.7017,-24.78,-61.88,24.43,-0.3589800073606498,-0.07154608153280778,0.9232199706892155,-0.11695895969635185,-167.03493174049945,-42.81012342689023,-176.23800059002144,3
1767380393.831717,1,left_wrist,0.8252,0.0132,-0.6334,6.09,-70.98,-2.24,-0.3721041988153171,0.15512459806602635,0.9150916557783417,0.009060122720902699,-172.21271139592088,-43.14364616890973,157.67480349061765,3
1767380393.831717,2,right_wrist,0.6256,-0.2006,-0.7276,-20.02,-64.61,22.47,-0.3286301613207408,-0.06138900614903679,0.935710635911807,-0.11260201079847092,-167.3424858811264,-38.96389343739393,-176.98653825678406,3
1767380393.901681,1,left_wrist,0.7549,-0.2381,-0.6315,4.34,-71.82,-2.17,-0.34632800927878316,0.15467223604645677,0.9252747681302558,0.00011334410367267196,-171.99276510397033,-39.861366427548134,158.11241762277086,3
1767380393.901681,2,right_wrist,0.5724,-0.082,-0.7954,-10.01,-60.41,15.05,-0.2773935599393765,-0.048044804331787296,0.9541505823505717,-0.1016915723201511,-168.53538185588184,-32.623886632331626,-177.6001398816109,3
1767380393.952873,1,left_wrist,0.7549,-0.2381,-0.6315,4.34,-71.82,-2.17,-0.32064414305196975,0.1535825661765747,0.934630447384623,-0.008102821404032364,-171.857621561055,-36.646673238087175,158.6360456406069,3
1767380393.952873,2,right_wrist,0.5661,-0.2084,-0.794,-0.49,-53.9,16.03,-0.25670623929481545,-0.04292621041083528,0.9597401237528577,-0.1056321069832802,-167.9403299164707,-30.11990901469976,-178.1341516707376,3
1767380394.028414,1,left_wrist,0.6085,0.0102,-0.9443,26.81,-57.89,5.6,-0.2704649796874339,0.1486200931355042,0.9509771374653176,-0.02008100339476156,-172.084326096062,-30.56018382450051,160.0694471650455,3
1767380394.028414,2,right_wrist,0.4104,-0.2865,-0.8203,-18.06,-43.96,14.98,-0.23513520273253347,-0.03530525960107843,0.9658619565257656,-0.10283800861865794,-168.15826006424214,-27.482504484819355,-178.71865440816825,3
1767380394.078686,1,left_wrist,0.4826,-0.3748,-0.7998,-6.72,-54.88,-3.29,-0.24781562991308023,0.1487154046882284,0.9569997531267207,-0.02495224427973511,-172.10505000192535,-27.833089545674113,160.37491873309193,3
1767380394.078686,2,right_wrist,0.3089,-0.142,-0.8477,0.42,-34.09,10.29,-0.215900659864672,-0.03240573786992747,0.9704966836463086,-0.10233748215889232,-168.22575664613578,-25.19462408043199,-178.81521532524803,3
1767380394.152297,1,left_wrist,0.4397,-0.1527,-1.0028,7.14,-20.3,11.34,-0.23539059612435634,0.15309473498218576,0.959233433200026,-0.03200765546311675,-171.44335685559614,-26.218059985599957,159.86789109124885,3
1767380394.152297,2,right_wrist,0.1893,0.122,-0.9755,-6.44,-27.65,8.4,-0.18212100998432573,-0.02725556298447082,0.9783144675041815,-0.09481494966880638,-169.1448300036688,-21.193064212947558,-178.84502911115806,3
1767380394.205642,1,left_wrist,0.4333,0.0937,-0.9262,-23.73,3.71,2.31,-0.23416821399990817,0.15550954593043262,0.9595213825258967,-0.017342005426006207,-173.19891585882482,-26.358425438299246,159.99390072021328,3
1767380394.205642,2,right_wrist,0.2108,-0.4387,-0.8384,2.31,9.31,-1.47,-0.18414630159858694,-0.026703334845605026,0.9774323994381305,-0.10001487911458243,-168.49415182234205,-21.427436446305617,-179.05413764882712,3
1767380394.275491,1,left_wrist,0.5168,-0.2045,-0.8028,4.2,63.42,-7.42,-0.28258758414136015,0.1496407125985492,0.9474619795120345,-0.008228718082743489,-173.20108801109924,-32.20968340194332,160.08471367338177,3
1767380394.275491,2,right_wrist,0.3982,-0.1976,-0.8633,2.03,53.62,2.45,-0.2109236816822492,-0.023518348953409155,0.9717272637626974,-0.10346116483189303,-167.87326642009808,-24.50590708302972,-179.87015840813194,3
1767380394.351258,1,left_wrist,0.6412,-0.2635,-0.7335,-10.36,76.44,-8.33,-0.3164990413928532,0.1482500661385756,0.9369364732667586,-0.0005654642001276231,-173.23190572896294,-36.363878420057155,159.79224996800644,3
1767380394.351258,2,right_wrist,0.61,-0.1532,-0.8169,14.14,71.19,-16.45,-0.266400381366406,-0.024728844484446233,0.9568536267641607,-0.11335986064992169,-166.2445018409451,-31.025456207200396,179.12579486709916,3
1767380394.4086988,1,left_wrist,0.7178,-0.1967,-0.6817,-18.06,89.95,1.96,-0.35538820885055544,0.1517653599216408,0.9222522499195726,0.010829776365892801,-173.29061434046665,-41.20859476953254,158.785429814728,3
1767380394.4086988,2,right_wrist,0.6222,-0.1942,-0.7008,26.81,87.71,-21.21,-0.30751535104890065,-0.032681254122273656,0.942952218982315,-0.12331811389489815,-164.7711824965225,-36.01556060545491,178.99332648334826,3
1767380394.475456,1,left_wrist,0.7798,0.0264,-0.5358,12.46,103.6,3.5,-0.437246221455903,0.1526197758890698,0.8859461929854447,0.024945720368485032,-171.7598452777857,-51.47787124336505,156.47358085314966,3
1767380394.475456,2,right_wrist,0.67,-0.2908,-0.6461,25.06,101.29,-29.19,-0.3530709298104143,-0.04218116545162871,0.9250914630655328,-0.13329460892032916,-163.132625055924,-41.64327663969087,178.7668833501158,3
1767380394.528638,1,left_wrist,0.8969,-0.2435,-0.3797,59.5,109.55,-1.82,-0.48586442883947534,0.13958307327370462,0.8627778610366514,0.008166085290923544,-167.03011026819198,-57.21049759880126,154.52601246168481,3
1767380394.528638,2,right_wrist,0.67,-0.2908,-0.6461,25.06,101.29,-29.19,-0.39645750138502217,-0.050684316776077945,0.9052268217006548,-0.14428080573041657,-161.05766268502495,-47.087424674563124,178.09443823063452,3
1767380394.6021109,1,left_wrist,1.0219,-0.1322,-0.1879,119.77,119.63,-0.35,-0.5396915080572718,0.11288360813606724,0.8337402904953842,-0.029453270611648052,-157.64650337193828,-63.28777858483374,150.69408031320867,3
1767380394.6021109,2,right_wrist,0.8847,-0.2826,-0.4499,14.77,94.5,-31.57,-0.4785043280358193,-0.067829962705922,0.8622148557532814,-0.15171765463732378,-158.36804201427313,-57.75013575805616,176.96774495087092,3
1767380394.655107,1,left_wrist,0.9858,-0.3011,-0.1596,105.21,51.87,16.03,-0.5654287020964632,0.09484297255499556,0.8163135355476795,-0.07019547766123453,-147.68399268802864,-65.48036587173347,145.64012714057836,3
1767380394.655107,2,right_wrist,0.957,-0.1137,-0.3636,7.63,81.55,-51.45,-0.51508505822374,-0.08427022290206947,0.8405407112846711,-0.14517997451350267,-159.7928866834757,-62.919604110704235,179.0063031195333,3
1767380394.705802,1,left_wrist,0.8262,-0.3523,-0.0839,167.02,159.18,-8.26,-0.6283854824879552,0.05600207602906805,0.7661638719240512,-0.12242701596118596,-124.9473616974035,-71.6552910510186,130.40144530014155,3
1767380394.705802,2,right_wrist,0.8301,-0.0898,-0.3665,3.99,95.97,-67.69,-0.5561333290516421,-0.10594864653179117,0.813721046442236,-0.1317143241753605,-164.44532613706616,-68.90496032676172,-175.869554176094,3
1767380396.226059,1,left_wrist,0.8701,-0.162,-0.4197,-13.16,-65.66,-6.79,-0.42148782522926664,0.10254927096234702,0.899898438687517,-0.04488273895790635,-165.3711044622332,-48.53731336954341,160.3733928436234,4
1767380396.226059,2,right_wrist,0.6895,-0.0625,-0.7105,-13.09,-47.46,21.49,-0.30549367440116343,-0.1139742353672921,0.9372077413015593,-0.12379474228636154,-168.27773534029015,-36.93014610578169,-170.05901046987364,4
1767380396.278671,1,left_wrist,0.7696,-0.1996,-0.5427,-9.66,-86.59,5.6,-0.3898495501758714,0.10505588632831454,0.913642185677179,-0.047313270088528654,-166.31695434619482,-44.62188050436893,161.24404658968757,4
1767380396.278671,2,right_wrist,0.6578,-0.1449,-0.7208,-13.37,-56.98,18.62,-0.2856762888514631,-0.10797346571984218,0.9448942852270711,-0.11792191668101336,-168.73344262562247,-34.425395111377725,-170.4626459833758,4
1767380396.354052,1,left_wrist,0.9209,-0.0566,-0.5305,4.13,-51.24,-5.04,-0.37274828216361355,0.10029474218622386,0.9211995817195769,-0.04889799048581104,-167.05695670140892,-42.60519436301019,162.50767033086703,4
1767380396.354052,2,right_wrist,0.6983,-0.1064,-0.8018,-0.14,-59.85,11.34,-0.24414762282169547,-0.10057493676895006,0.958225038789411,-0.10991540111134818,-169.32086848902892,-29.34098906610354,-170.81969383892502,4
1767380396.405774,1,left_wrist,0.669,-0.203,-0.6256,-19.67,-78.75,2.87,-0.34293300865675747,0.10357847523991537,0.9324342793883089,-0.04727330813687184,-168.17404989725787,-39.03035210426016,163.11832204006015,4
1767380396.405774,2,right_wrist,0.5944,-0.1127,-0.8023,-2.38,-54.25,9.38,-0.22517146576836664,-0.09961471115543492,0.9633480591250103,-0.10646707145977219,-169.6312277965977,-27.068045979330655,-170.69493003818738,4
1767380396.475809,1,left_wrist,0.63,-0.2704,-0.8545,4.34,-43.05,-4.2,-0.30758916621528165,0.09924380732797541,0.9449821905892555,-0.05048000597432284,-169.01031594052927,-34.84182994867596,164.5514086679629,4
1767380396.475809,2,right_wrist,0.5944,-0.1127,-0.8023,-2.38,-54.25,9.38,-0.2061360086598222,-0.09844319970276552,0.9680538032700398,-0.10338624831422336,-169.87512771719432,-24.800300313976358,-170.6185461069463,4
1767380396.525995,1,left_wrist,0.63,-0.2704,-0.8545,4.34,-43.05,-4.2,-0.2911461928790676,0.09725352708529912,0.9499560338581619,-0.05795842974032777,-168.55663660476213,-32.81163157137186,164.92971318259384,4
1767380396.525995,2,right_wrist,0.527,-0.0805,-0.814,6.44,-43.26,-0.07,-0.19167093080229772,-0.10170776571896255,0.97076833999389,-0.10259929211912121,-169.9661014455424,-23.14169821404387,-170.09722927925174,4
1767380396.576312,1,left_wrist,0.6046,-0.1523,-0.8725,54.04,-30.94,2.38,-0.2834419257602228,0.08925772858039743,0.9515918820847253,-0.07852784576476464,-166.40116454220987,-31.69676666047378,165.4056265593651,4
1767380396.576312,2,right_wrist,0.527,-0.0805,-0.814,6.44,-43.26,-0.07,-0.1772339386940885,-0.10482769235130118,0.9732288033058103,-0.10210280264136556,-169.99953439510548,-21.492827486848732,-169.60726033127236,4
1767380396.628452,1,left_wrist,0.5139,0.3055,-1.0516,-39.76,-19.81,11.27,-0.2719137270306018,0.09698532112589255,0.9555649238746957,-0.0596024227593293,-168.84355199956602,-30.537442147761876,165.3547410713055,4
1767380396.628452,2,right_wrist,0.4207,-0.2572,-0.8682,9.38,-33.39,0.49,-0.16457622208973224,-0.10623314623915008,0.9745970685323087,-0.10858056810973644,-169.1550998282364,-20.112265266191166,-169.4871826135098,4
1767380396.705765,1,left_wrist,0.5148,0.0356,-0.8901,16.45,18.13,-6.58,-0.27966132203371286,0.09150769381972268,0.9538329659919742,-0.060154467141728334,-168.77779992636613,-31.499503992093253,165.86571374599686,4
1767380396.705765,2,right_wrist,0.3094,-0.2054,-0.8672,-3.01,-2.94,-0.98,-0.152198861908808,-0.10755921951971247,0.9754087103922345,-0.11766209423995397,-168.0016059627289,-18.79744478552495,-169.40786470660328,4
1767380396.773644,1,left_wrist,0.6588,-0.285,-0.7823,5.6,47.6,-4.76,-0.31018407791178704,0.08501773342979298,0.9447512662144312,-0.06326822108060275,-167.84002115894143,-35.12314901008877,165.85421284900625,4
1767380396.773644,2,right_wrist,0.3465,-0.1254,-0.915,8.82,35.07,-1.12,-0.16913111161913266,-0.10776615853147818,0.9724686834556966,-0.11868353658274948,-168.00174918587376,-20.764614748480987,-169.5589555286528,4
1767380396.824723,1,left_wrist,0.7564,-0.243,-0.7013,2.45,66.08,-3.29,-0.34111284075541254,0.08508890573591646,0.9340841670209222,-0.06235925683703181,-167.05720331451388,-38.802958021728486,165.01489134109832,4
1767380396.824723,2,right_wrist,0.5124,-0.1303,-0.8428,1.12,60.97,-5.67,-0.19957510236016163,-0.10764480961981993,0.9664429543957926,-0.12070786792324574,-167.94354784070816,-24.31437785558459,-169.89534625346369,4
1767380396.878581,1,left_wrist,0.7266,-0.2162,-0.6539,-4.62,84.98,3.92,-0.37883186427550913,0.08962197193316332,0.9192353873320394,-0.05882706377908852,-165.9987224427517,-43.30854751261861,163.28070091455035,4
1767380396.878581,2,right_wrist,0.6149,-0.082,-0.8067,10.85,75.6,-7.49,-0.2353570296666001,-0.10838411107318276,0.9574838930627891,-0.1268248697169309,-167.38246919937305,-28.56743284834132,-170.30812703391877,4
1767380396.954483,1,left_wrist,0.7496,-0.1152,-0.5822,1.61,95.34,4.48,-0.42014483208654313,0.09257319935950648,0.9010482105511776,-0.054960395684857534,-164.57551257123168,-48.32822344919695,161.3141072888557,4
1767380396.954483,2,right_wrist,0.6388,-0.0932,-0.693,23.52,97.51,-25.55,-0.3148761744493149,-0.11774303050000261,0.9310679174336647,-0.14178189820487838,-165.99968220210096,-38.29641073904164,-170.46786141145458,4
1767380397.026752,1,left_wrist,0.7964,0.0434,-0.5563,28.91,97.23,6.23,-0.49865479372330473,0.08678940291072536,0.8600879643013898,-0.0637156958924528,-158.3654543694225,-57.85607448009875,156.41968654322304,4
1767380397.026752,2,right_wrist,0.6388,-0.0932,-0.693,23.52,97.51,-25.55,-0.35766188012573624,-0.12664374218623875,0.9130642626644013,-0.1495091780296517,-165.3816963373402,-43.70974502298488,-170.0966691413798,4
1767380397.077732,1,left_wrist,0.9789,-0.3206,-0.2298,101.78,87.08,-4.48,-0.537143705245348,0.06550411321307101,0.8351223054685881,-0.09877543204814665,-149.74257588742938,-62.15580736080795,152.5203649266934,4
1767380397.077732,2,right_wrist,0.8442,-0.2142,-0.4939,19.04,72.59,-32.41,-0.3906034759997585,-0.1375752953481459,0.8965522691973388,-0.15714958238531535,-164.88752353972907,-48.041789342264195,-169.31866357595527,4
1767380397.13127,1,left_wrist,0.8974,-0.2601,-0.2245,97.58,64.12,12.18,-0.5648255108651317,0.049784050064253,0.8123768073628798,-0.13615290483143372,-139.50110750337436,-64.70848187872178,146.67811927612325,4
1767380397.13127,2,right_wrist,0.8442,-0.2142,-0.4939,19.04,72.59,-32.41,-0.4228523543849535,-0.14807788106792918,0.8786898577966543,-0.1648422316484133,-164.37515703349413,-52.36634629935909,-168.58759600584284,4
1767380397.203385,1,left_wrist,0.8428,-0.4006,-0.1488,116.62,106.89,-2.59,-0.6057721467634073,0.027649063009373625,0.7752778202564613,-0.1766916436585119,-123.51703856878233,-68.3589811699486,135.8360545339846,4
1767380397.203385,2,right_wrist,0.8389,-0.2528,-0.2996,-1.75,118.65,-45.01,-0.5088493845930682,-0.16825675090936335,0.8271918690018979,-0.16886557206792419,-165.72864182059143,-63.982183957833705,-165.9477947269341,4
1767380398.72544,1,left_wrist,0.7925,-0.2967,-0.4046,-19.6,-38.15,-10.78,-0.4238202706913316,0.010407591722092891,0.8949890916036528,-0.1387897189857409,-156.86936793123533,-49.09008056669312,167.98947375592937,5
1767380398.72544,2,right_wrist,0.7022,-0.0844,-0.6647,-8.47,-54.95,19.67,-0.3801110662320108,-0.14020597753893108,0.9069120746843706,-0.11562158095272401,-171.4294937115161,-46.20960970929927,-166.08568866029387,5
1767380398.7768068,1,left_wrist,0.9755,-0.2372,-0.3992,-33.25,-66.5,-3.57,-0.40085001316212965,0.010634260017435435,0.9074617508801793,-0.1253768325939102,-159.95987852595275,-46.4559992585817,169.984227093378,5
1767380398.7768068,2,right_wrist,0.6637,-0.2162,-0.6456,-11.97,-49.77,18.69,-0.35874344974858746,-0.13133748601687037,0.9169336639656511,-0.11526603105762515,-170.70820933884008,-43.48505871669313,-167.4097917285119,5
1767380398.8329,1,left_wrist,0.7017,-0.2396,-0.4294,-37.8,-68.53,0.84,-0.37636454071696274,0.013922570246936682,0.9195718118407168,-0.11199811336183312,-162.62094483249408,-43.556523835335916,171.27665305727646,5
1767380398.8329,2,right_wrist,0.6637,-0.2162,-0.6456,-11.97,-49.77,18.69,-0.3388634061454809,-0.12273858180574686,0.9256998242418367,-0.11483321780055449,-170.13173440648694,-40.962165498448364,-168.58814718816134,5
1767380398.905112,1,left_wrist,0.7017,-0.2396,-0.4294,-37.8,-68.53,0.84,-0.3514872060959557,0.017229346340521482,0.9308322981018594,-0.09854504749579615,-165.07062824991363,-40.613685357161344,172.32750377606536,5
1767380398.905112,2,right_wrist,0.6954,0.0142,-0.8018,7.7,-58.59,6.79,-0.29644259662680106,-0.12041312893691578,0.9418034559274694,-0.10309566279847383,-171.3051318427674,-35.67659750196641,-168.23094579350143,5
1767380398.9782012,1,left_wrist,0.6539,-0.0459,-0.7139,-10.01,-51.31,1.75,-0.30848058163128744,0.013978981253234893,0.9472204989319365,-0.08612575249411612,-167.80459666551144,-35.590656090359246,174.3812667518028,5
1767380398.9782012,2,right_wrist,0.4714,-0.0468,-0.8364,3.22,-57.68,1.33,-0.26921785856141,-0.12355024848464041,0.9500196764681746,-0.09858851380509384,-171.77408631968078,-32.40400391257928,-167.5744451489515,5
1767380399.0287092,1,left_wrist,0.7047,-0.1147,-0.7364,-18.06,-55.02,-1.61,-0.28931933629931417,0.012820326520198828,0.9540265389299355,-0.07722256074883874,-169.32040041860637,-33.370896959227736,175.2506593113768,5
1767380399.0287092,2,right_wrist,0.4714,-0.0468,-0.8364,3.22,-57.68,1.33,-0.24282856838033687,-0.12682212108695545,0.957240550242913,-0.09295679077941099,-172.33590519404657,-29.23998061640171,-166.9079752176672,5
1767380399.08286,1,left_wrist,0.5846,-0.2606,-0.7759,-7.0,-39.76,-0.91,-0.27449065799410866,0.013016481955753915,0.9583056744239385,-0.07833060856610907,-169.3584956031263,-31.60449552816217,175.4239391762474,5
1767380399.08286,2,right_wrist,0.5173,-0.1513,-0.7832,-9.31,-26.53,4.55,-0.23521835172130862,-0.12446091303450123,0.9596461269216042,-0.09089069932888338,-172.4364137442369,-28.29929917477793,-167.13000062393604,5
1767380399.156171,1,left_wrist,0.5744,-0.1074,-0.8789,7.35,-28.98,10.29,-0.2637447205632864,0.014032023767879674,0.961303323613995,-0.07834375975569896,-169.45125324450527,-30.32330118979484,175.4614854038351,5
1767380399.156171,2,right_wrist,0.3328,0.3123,-0.8965,22.26,-13.3,5.25,-0.20009068099611052,-0.1262601668775037,0.9670969107993915,-0.09351820550487173,-171.78057404670832,-24.244379323465775,-166.89185773049164,5
1767380399.2269728,1,left_wrist,0.5729,-0.102,-0.8433,-26.39,-28.77,2.94,-0.24629372978129777,0.01884877737063748,0.9675903775025646,-0.052468882458974,-172.76680062738623,-28.336234456036475,175.9397523126249,5
1767380399.2269728,2,right_wrist,0.5436,-0.1596,-0.9033,-7.7,-11.83,1.96,-0.1994941687049827,-0.1252125907074842,0.9675776870318707,-0.09119925075943938,-172.03047539231284,-24.135175717173873,-166.95928616532635,5
1767380399.278461,1,left_wrist,0.4841,-0.1898,-0.812,3.57,10.5,-4.13,-0.2526662327726201,0.017905065034823885,0.9656710337565195,-0.057607621251062564,-172.08800737577678,-29.07289622561218,175.82093790153363,5
1767380399.278461,2,right_wrist,0.2464,-0.08,-0.9174,0.63,13.86,-3.36,-0.20111421150725495,-0.1262449299448132,0.9672139003155632,-0.09006976534553798,-172.2140254751585,-24.316865763759658,-166.80703774148606,5
1767380399.352096,1,left_wrist,0.5241,-0.1337,-0.855,10.64,28.63,-4.76,-0.2689702979097025,0.015524985038245707,0.9609814018460338,-0.06267933461644155,-171.35679561684194,-30.99777023859479,175.74789923536417,5
1767380399.352096,2,right_wrist,0.3357,-0.1488,-0.8969,-17.36,22.75,-1.54,-0.20875943708202263,-0.1249277691940735,0.9662976379087101,-0.08415120251925524,-172.99202598577932,-25.117319823901585,-166.82976870796665,5
1767380399.402242,1,left_wrist,0.5334,-0.2469,-0.8091,3.15,62.3,-9.24,-0.2964850044107565,0.014104564568728009,0.9525927403117401,-0.06681896828932542,-170.55211856983428,-34.26172164498831,175.38531915358485,5
1767380399.402242,2,right_wrist,0.3475,-0.2059,-0.8379,-2.24,56.07,2.1,-0.22984971028271786,-0.12067076657339162,0.9614583747172559,-0.09058405192744137,-172.29917426672256,-27.6354043487079,-167.58935860385415,5
1767380399.457998,1,left_wrist,0.6651,-0.2303,-0.7598,22.4,68.74,-6.09,-0.3283130918273808,0.011236521979322069,0.9413188087447905,-0.07748002718018658,-168.77838979957326,-38.050324142916274,174.75182947432083,5
1767380399.457998,2,right_wrist,0.5085,-0.143,-0.8355,-0.56,59.01,-0.98,-0.2582297333933318,-0.11829377570413255,0.9540327816499231,-0.09563178843135463,-171.85760091300742,-31.02048812636917,-168.1267250421216,5
1767380399.527151,1,left_wrist,0.8677,-0.1366,-0.5451,4.97,94.78,-5.32,-0.40064494481265245,0.009225884408733537,0.911799056315516,-0.089559991933216,-165.55916090664448,-46.79951434047644,172.5645186843324,5
1767380399.527151,2,right_wrist,0.5514,-0.0332,-0.8194,-2.45,80.29,-2.45,-0.2945163231301134,-0.11682832736866197,0.9437415133209593,-0.09467435433540049,-172.2614271147786,-35.31110904094624,-168.35265451419488,5
1767380399.602973,1,left_wrist,0.8677,-0.1366,-0.5451,4.97,94.78,-5.32,-0.44170084914176244,0.009370427312543943,0.892622646519593,-0.08965135737836898,-164.17141318608958,-51.8934259492076,171.0576296233396,5
1767380399.602973,2,right_wrist,0.7818,-0.0898,-0.6764,10.5,91.56,-20.65,-0.37693325614276546,-0.1288344098717221,0.9109239036813902,-0.10742744969734129,-171.9001638153837,-45.593698942573816,-167.3088023086226,5
1767380399.68085,1,left_wrist,0.954,-0.1357,-0.3314,74.62,91.28,9.1,-0.5185449877991454,-0.0018326605531958113,0.8443692837536557,-0.1347154394901323,-152.0913349349931,-61.185019974580754,163.53388777012685,5
1767380399.68085,2,right_wrist,0.8472,-0.1942,-0.4782,22.05,91.28,-17.01,-0.41532753130565536,-0.13422131188767403,0.8916405786909736,-0.12026952900185174,-170.65911365041407,-50.61784529521454,-167.30354830276056,5
1767380399.754781,1,left_wrist,1.0028,-0.3192,-0.1039,135.24,93.87,9.24,-0.5536059575200762,-0.02323074033629269,0.8110600620004595,-0.18751627217262512,-138.6785041535913,-65.05698275448297,156.23631429979108,5
1767380399.754781,2,right_wrist,0.8721,-0.0098,-0.4392,1.12,82.32,-41.93,-0.4901976901929573,-0.15145459942491915,0.8510774820465454,-0.11151165139051143,-175.22337720335605,-60.24671197298641,-162.59155287206065,5
1767380399.82553,1,left_wrist,0.9135,-0.4573,0.0615,79.59,128.8,-2.8,-0.6244188078133126,-0.044507106205767345,0.7376371513821441,-0.25300534153852494,-106.18123601428309,-70.68425545738783,130.8242982239028,5
1767380399.82553,2,right_wrist,0.8218,-0.0112,-0.3113,12.04,108.15,-40.04,-0.533983212902227,-0.1634867542023262,0.8216020584795252,-0.11447299699584242,-178.08324370280562,-66.18770507952262,-158.74124947024077,5
1767380399.876833,1,left_wrist,0.9575,-0.3548,-0.0102,-21.63,93.73,-25.9,-0.6592425519035396,-0.03557187644776515,0.7109377223708199,-0.2422838299926035,-92.57729565698124,-72.6686178556129,115.50415576433276,5
1767380399.876833,2,right_wrist,0.9257,0.1449,-0.2987,27.93,103.46,-30.45,-0.5724254537086434,-0.17723257239723514,0.7912110611392352,-0.12207691001511302,178.23035605130727,-71.63901156718866,-153.47087551644196,5
1767380402.075806,1,left_wrist,0.9384,-0.3538,-0.3616,-29.68,-44.87,-16.17,-0.5505733305296514,-0.016242842101905245,0.8237850283792493,-0.13410221775995912,-150.42243819761072,-65.70853060449579,162.90829492859692,6
1767380402.075806,2,right_wrist,0.7554,-0.0537,-0.5807,-10.92,-51.8,11.69,-0.38964839821438796,-0.12623226549167138,0.9085010889873435,-0.08285717969260573,-175.6288124129913,-46.79513395337789,-166.07140183232892,6
1767380402.127851,1,left_wrist,0.9418,-0.1552,-0.4055,-26.67,-81.76,-4.06,-0.5198960752611202,-0.018160600478570616,0.8456397595014582,-0.11946405596938756,-156.96967483870162,-62.083233552378395,168.47984541604617,6
1767380402.127851,2,right_wrist,0.6817,0.1425,-0.6603,-8.26,-40.88,19.81,-0.3734542941925816,-0.12041260825472039,0.9166450895321726,-0.07612144086242145,-175.999665240847,-44.666746818918845,-166.67662340024054,6
1767380402.201442,1,left_wrist,0.8657,-0.1962,-0.427,-20.23,-66.43,-3.92,-0.493889171318129,-0.01588716052311647,0.8618223819330519,-0.1143821077985769,-159.52477867653553,-58.75132836803766,170.5020901955366,6
1767380402.201442,2,right_wrist,0.6891,-0.041,-0.6876,2.59,-48.37,15.61,-0.33791010481282413,-0.11816904429904385,0.9302075467344573,-0.08103553561925339,-174.65995038547743,-40.37630016666672,-167.4851351642808,6
1767380402.255201,1,left_wrist,0.8145,-0.082,-0.4836,-33.11,-58.24,-2.03,-0.4718093277377503,-0.01481319534729827,0.8762425076758187,-0.09682765743963792,-163.8022883613249,-56.0686958125486,173.2707460147816,6
1767380402.255201,2,right_wrist,0.732,-0.2059,-0.7257,7.98,-64.26,3.64,-0.312804668013668,-0.11877317073144614,0.9384970075602562,-0.08526159970175413,-173.80475294445571,-37.40073790520602,-167.6731810727053,6
1767380402.305484,1,left_wrist,0.7466,-0.0839,-0.5602,-1.4,-48.72,-1.89,-0.45073421145374143,-0.018587098697415212,0.8876361864995166,-0.09271025188069382,-165.6173840187726,-53.477423952517114,175.12481131845652,6
1767380402.305484,2,right_wrist,0.732,-0.2059,-0.7257,7.98,-64.26,3.64,-0.2883459535008693,-0.1198337150416312,0.9458513428064915,-0.08866639245031079,-173.1251516114791,-34.521487073343664,-167.69730159029464,6
1767380402.355702,1,left_wrist,0.7466,-0.2323,-0.5783,11.76,-33.11,-4.41,-0.43596153575715535,-0.02175129435368869,0.8941229896644415,-0.10004249041143727,-165.0709930973242,-51.62446112613474,175.53478466100833,6
1767380402.355702,2,right_wrist,0.6007,-0.1684,-0.8062,1.47,-46.48,6.86,-0.27009402670320337,-0.11771906430775525,0.9511802531729457,-0.09191063383312495,-172.43026302433893,-32.37480601625557,-168.09011653381265,6
1767380402.427233,1,left_wrist,0.588,-0.1108,-0.7042,4.27,-62.72,8.26,-0.39353305210239886,-0.025679376186670655,0.9124733194856355,-0.10892542296681404,-165.00204704695247,-46.36671317018192,176.77098116912833,6
1767380402.427233,2,right_wrist,0.6007,-0.1684,-0.8062,1.47,-46.48,6.86,-0.25322719015955,-0.11617338778913676,0.9557972786576071,-0.09397497669170515,-171.94927991995357,-30.391280752228887,-168.32984806276187,6
1767380402.4794738,1,left_wrist,0.5061,-1.1902,-1.8237,113.33,-32.97,-42.0,-0.37681679665126483,-0.061803059179490645,0.9121538334504132,-0.14887870149639118,-161.47853250587,-44.896806561874655,-179.9556920122609,6
1767380402.4794738,2,right_wrist,0.5246,-0.0805,-0.7823,-61.25,-32.76,8.82,-0.24621922727397402,-0.10775259796855922,0.960950342785061,-0.06587798154851926,-175.16813028239065,-29.170224259179808,-168.4621139580539,6
1767380402.5516531,1,left_wrist,0.8062,-0.1303,-0.7422,12.18,-18.76,17.5,-0.36928669734469716,-0.060080143695896676,0.9148710363106702,-0.15175209526582087,-161.09490771963135,-43.942330139402365,179.82900540886544,6
1767380402.5516531,2,right_wrist,0.3323,-0.1352,-0.8813,2.31,11.55,-2.1,-0.23992214932815797,-0.09838142639106118,0.9647608283947932,-0.04466543627918654,-177.4665735429807,-28.14622973956961,-168.98997331635948,6
1767380402.6235719,1,left_wrist,0.5656,-0.0644,-0.8101,7.42,35.35,-4.48,-0.37744255136454036,-0.05619391510262481,0.9135063674778074,-0.14101588882947363,-162.32301819039682,-44.86516806335358,179.69412237550836,6
1767380402.6235719,2,right_wrist,0.3255,-0.1513,-0.8804,-1.89,35.28,-1.4,-0.2509505591280072,-0.09730256333994576,0.9618999199055501,-0.04800595928124597,-177.1345928459147,-29.480074543392433,-169.20161225563712,6
1767380402.677693,1,left_wrist,0.691,-0.2098,-0.7642,12.67,54.81,-5.95,-0.3956773248661677,-0.05738789271458982,0.905050401022176,-0.14501674374405918,-161.3940049802883,-47.12671824120438,179.08358747380072,6
1767380402.677693,2,right_wrist,0.3255,-0.1513,-0.8804,-1.89,35.28,-1.4,-0.26172408073209785,-0.09621855300808302,0.9589834935720077,-0.050923026995609896,-176.84368317847392,-30.782309256388377,-169.41000521116783,6
1767380402.755297,1,left_wrist,0.794,-0.2445,-0.6388,9.45,69.16,-4.83,-0.42595906252753757,-0.05610545582618275,0.8902186989773234,-0.15139921686824956,-159.44126111770095,-50.839686937822414,177.35993640075304,6
1767380402.755297,2,right_wrist,0.6603,0.0122,-0.7647,-2.1,80.08,-3.01,-0.31902229605825705,-0.09029661806270063,0.9418190745930526,-0.05520983713834506,-176.6414344895447,-37.65410726931467,-170.19245558548351,6
1767380402.807793,1,left_wrist,0.794,-0.2445,-0.6388,9.45,69.16,-4.83,-0.4490627455201038,-0.05416730534275404,0.8779675869977349,-0.15678478816271166,-157.51217558000778,-53.659565524791105,175.57712931570688,6
1767380402.807793,2,right_wrist,0.7042,0.04,-0.731,11.2,69.58,-15.47,-0.3508863629406607,-0.09732118675404437,0.9295258932172864,-0.05821478119571653,-176.9403847569055,-41.578609162722294,-169.20766059466638,6
1767380402.878788,1,left_wrist,0.855,-0.1342,-0.4138,1.26,98.84,10.85,-0.5192109463893523,-0.04124734476536391,0.8380971975257533,-0.16220893069975692,-150.7020140339178,-62.08949889013553,167.75199003183425,6
1767380402.878788,2,right_wrist,0.7042,0.04,-0.731,11.2,69.58,-15.47,-0.38130724485524015,-0.10494230520910784,0.9165336121247182,-0.05964927027148798,-177.60943656279602,-45.35556423000687,-167.9352811847387,6
1767380402.955318,1,left_wrist,0.9077,-0.0795,-0.2845,60.48,99.33,1.05,-0.5564779915023188,-0.049266869275349394,0.80872359668803,-0.18404120387926054,-142.18654010270862,-66.66549880692422,161.5824535510358,6
1767380402.955318,2,right_wrist,0.7374,-0.2074,-0.5285,23.38,89.04,-19.11,-0.4487849809697562,-0.11950602427978425,0.8813564689769587,-0.08672442337244023,-175.52057239040025,-54.27288470569292,-166.85303821332246,6
1767380403.0257652,1,left_wrist,1.0116,-0.1523,-0.1981,96.74,99.33,4.62,-0.6218779761405249,-0.0811914427325179,0.7367531484258003,-0.25272619710478716,-110.00165319951913,-73.21190312011692,137.618025120888,6
1767380403.0257652,2,right_wrist,0.8852,-0.1313,-0.5056,-11.13,93.66,-21.77,-0.48821194220922565,-0.12074998867893914,0.8600803258123838,-0.08561759672401228,-176.69494811158793,-59.37047735342962,-165.90090992195465,6
1767380403.076586,1,left_wrist,0.8477,-0.327,-0.0571,70.84,110.95,5.53,-0.6532795399129991,-0.08326467372603832,0.6969141399367607,-0.2839075877756031,-87.05614416099444,-73.30318008397121,117.48244242898022,6
1767380403.076586,2,right_wrist,0.8257,-0.0298,-0.3226,10.43,98.56,-48.02,-0.5289339044054551,-0.13692153404250523,0.8332255640991166,-0.08495044212690686,179.5590016142753,-64.78366032375459,-161.05652509147873,6
1767380404.4818392,1,left_wrist,0.8828,-0.1054,-0.4397,-15.54,-57.82,-9.1,-0.5365107336094944,-0.10296685805101109,0.8206328927850145,-0.16767741095390212,-155.89131752899274,-66.21810554151615,178.44748672768094,7
1767380404.4818392,2,right_wrist,0.8364,-0.0625,-0.6237,-9.38,-56.77,10.22,-0.40957291409666474,-0.17456242054833632,0.8882004321962462,-0.11348119499315076,-174.7585679874306,-50.10175351772767,-160.2133072822909,7
1767380404.553601,1,left_wrist,0.8272,-0.2869,-0.3943,-57.68,-72.17,-3.15,-0.5106545768299776,-0.09334523251791471,0.8421104602592592,-0.14617983257177364,-160.90224419108466,-62.541556165364895,-179.01593246704,7
1767380404.553601,2,right_wrist,0.6886,-0.0639,-0.6642,-2.59,-47.81,12.25,-0.3681048431014884,-0.16824820520840972,0.9083149814143868,-0.10561846650827525,-174.50341559894727,-44.76902664538543,-161.2771897157239,7
1767380404.626519,1,left_wrist,0.6871,-0.1357,-0.5768,-4.83,-44.52,-3.08,-0.46526881521455893,-0.09057724183032788,0.8713307999563585,-0.12689889636503296,-165.64705352522188,-56.49051099805147,-175.86989544551304,7
1767380404.626519,2,right_wrist,0.6886,-0.0639,-0.6642,-2.59,-47.81,12.25,-0.35239573994331547,-0.16507331385114152,0.9153376476580698,-0.10356174150620047,-174.27175493412165,-42.78996104894914,-161.8000354934513,7
1767380404.686013,1,left_wrist,0.6871,-0.1357,-0.5768,-4.83,-44.52,-3.08,-0.44511252819745195,-0.09301711071838545,0.8821776021991464,-0.12241459281246067,-166.93277017416654,-53.911673358581496,-174.6287339591276,7
1767380404.686013,2,right_wrist,0.6827,0.02,-0.7832,-1.61,-61.81,8.05,-0.32675862921461885,-0.16608692562959065,0.9255224070883185,-0.09514307828811734,-174.97400846168017,-39.52753035344455,-161.45976208243468,7
1767380404.7554848,1,left_wrist,0.773,-0.122,-0.5065,-12.6,-29.12,-2.17,-0.43786032744988523,-0.09304284884404503,0.8866174780684427,-0.11632200784038146,-168.04783810819242,-52.946679147252915,-173.98692153480178,7
1767380404.7554848,2,right_wrist,0.6442,0.0278,-0.7754,10.15,-41.51,5.04,-0.2886858631835667,-0.16871369392550897,0.9385543509747929,-0.085509602655222,-175.592695741222,-34.80240449158679,-161.00067293235685,7
1767380404.828932,1,left_wrist,0.6891,-0.1318,-0.6876,-27.58,-12.04,-0.56,-0.39319553604997104,-0.0892823842593245,0.9088909072383055,-0.10650467140401115,-169.53608036548002,-47.202682741873616,-173.36158595779494,7
1767380404.828932,2,right_wrist,0.4953,-0.1464,-0.7818,0.14,-25.48,-2.17,-0.275496411698091,-0.16925625680259493,0.9422548428251936,-0.08723449917962463,-175.11888878565563,-33.27825873401999,-161.09279588753725,7
1767380404.905189,1,left_wrist,0.1752,-0.8594,0.0654,1.96,41.09,5.11,-0.4092740042985414,-0.08457330344658157,0.9015255743555891,-0.1122220322948886,-168.24693167143502,-49.19376451476375,-174.6765412456916,7
1767380404.905189,2,right_wrist,0.4246,0.0161,-0.8808,-0.49,-7.14,-2.24,-0.2513067161830545,-0.17228621951079748,0.9488634502871869,-0.08258659502039284,-175.3380804513408,-30.355822585401395,-160.683043676623,7
1767380404.975862,1,left_wrist,0.5217,-0.1035,-0.7335,-20.72,2.87,0.98,-0.4051406017346987,-0.0762406696505598,0.9061027073149662,-0.0950070361276959,-170.41397908093552,-48.47657861951813,-174.7046471712325,7
1767380404.975862,2,right_wrist,0.4246,0.0161,-0.8808,-0.49,-7.14,-2.24,-0.24599948695981225,-0.17438401142524557,0.9502847004939984,-0.07767533058687695,-175.92036323987756,-29.645339853814864,-160.2830556596846,7
1767380405.0278761,1,left_wrist,0.57,-0.1679,-0.7774,18.55,37.94,-7.28,-0.41575710907076213,-0.08025490072085525,0.9000629785643944,-0.1029165282410883,-169.39592541985135,-49.90114521944882,-174.75398245085304,7
1767380405.0278761,2,right_wrist,0.3933,-0.0737,-0.8516,-5.46,47.95,-0.7,-0.2617626499394914,-0.17229980338413922,0.9463400924281101,-0.07895265868606548,-176.01632309972814,-31.509507069044094,-160.48670176575234,7
1767380405.101241,1,left_wrist,0.69,-0.2791,-0.6344,4.97,67.76,-5.18,-0.4403611724317001,-0.07805580764269127,0.8875863159434626,-0.1103624050922113,-167.79264109117835,-53.02956600435238,-176.05613880031905,7
1767380405.101241,2,right_wrist,0.6271,-0.039,-0.7735,-11.76,66.36,4.2,-0.31602926098007983,-0.16306526407745206,0.9309327246137798,-0.08306315728949731,-176.24718226029097,-37.98777987836514,-161.42150921614336,7
1767380405.1539378,1,left_wrist,0.8096,-0.2494,-0.551,7.14,82.74,1.68,-0.47234283298580515,-0.07271022678500663,0.8701340649521817,-0.12030037430369542,-164.99632229969157,-57.08707519163034,-178.6407469214714,7
1767380405.1539378,2,right_wrist,0.6271,-0.039,-0.7735,-11.76,66.36,4.2,-0.3473851141185067,-0.157960584403932,0.9207003233844024,-0.08174931671578076,-176.86750440332668,-41.72081164964931,-161.72353767767862,7
1767380405.206275,1,left_wrist,0.8096,-0.2494,-0.551,7.14,82.74,1.68,-0.5010486979499384,-0.06687431055063044,0.8530264296932963,-0.12970712823803024,-161.61818270607364,-60.71105883211954,178.13889414377547,7
1767380405.206275,2,right_wrist,0.7837,0.0503,-0.6534,11.27,70.63,-17.01,-0.3790104134953744,-0.16449904907992932,0.9064728778930804,-0.08716702907694529,-177.26378715326726,-45.709055436604565,-160.5822017124036,7
1767380405.2762082,1,left_wrist,0.9423,-0.1859,-0.304,47.46,91.84,3.08,-0.5748480658044921,-0.07132876236223981,0.7984714478399074,-0.1640282167346444,-147.75956672555694,-70.28791015067546,167.20911260417282,7
1767380405.2762082,2,right_wrist,0.8208,-0.0932,-0.5836,20.23,80.36,-17.99,-0.41281113233517713,-0.17103969640201191,0.8890262129644063,-0.09982376439016247,-176.7518959353335,-50.187825100726755,-159.74127810336014,7
1767380405.32789,1,left_wrist,0.9423,-0.1859,-0.304,47.46,91.84,3.08,-0.6015536539243699,-0.07500761209905799,0.7737061448438746,-0.1840811261598154,-136.97314885406604,-73.42888686020137,158.31125153685915,7
1767380405.32789,2,right_wrist,0.7505,-0.0522,-0.5275,18.83,95.97,-23.31,-0.45240668974899095,-0.17846201931144606,0.8666238852952725,-0.11154611678300524,-176.7767093975526,-55.481815040447984,-158.42325284980234,7
1767380405.378183,1,left_wrist,0.9077,-0.2172,-0.0683,108.64,88.83,14.56,-0.6279186038108407,-0.09060308937146692,0.7384205318428682,-0.2285703947091265,-115.54384858830268,-75.63949250429371,141.84060597750212,7
1767380405.378183,2,right_wrist,0.7505,-0.0522,-0.5275,18.83,95.97,-23.31,-0.48538605534638685,-0.1842987463185701,0.8454880469357475,-0.12483714138609923,-176.299528484025,-60.087832973815395,-157.54688749941067,7
1767380405.4551308,1,left_wrist,0.9077,-0.2172,-0.0683,108.64,88.83,14.56,-0.6517391417390136,-0.10584089913871725,0.699996788683376,-0.2720997813813214,-90.5648828521419,-75.93701198582909,121.8064986496947,7
1767380405.4551308,2,right_wrist,0.9496,-0.021,-0.2015,38.71,129.29,-27.37,-0.5638357838382964,-0.19920398654852883,0.7874572297954596,-0.14939240894198133,-178.09224721683262,-71.3540408598948,-152.9770539979661,7
1767380405.505306,1,left_wrist,0.9067,-0.2611,0.0468,4.41,160.09,-2.38,-0.7004835124282368,-0.08671388369467918,0.6499685991535569,-0.28168132935135887,-60.21573629594079,-73.62476847017028,90.73308899706936,7
1767380405.505306,2,right_wrist,0.9653,0.0556,-0.1967,64.26,106.4,-29.19,-0.5986959521474562,-0.21832919672554096,0.7510664429066446,-0.17261146276823783,179.45143727433825,-77.08254139036103,-147.14552971769885,7
1767380406.855005,1,left_wrist,0.9618,-0.141,-0.184,-46.55,-77.21,-11.83,-0.5822329444579283,-0.08863931357000995,0.7700116668142234,-0.2454178140389765,-126.26466870425554,-70.07838538620734,154.01758506054415,8
1767380406.855005,2,right_wrist,0.9521,-0.0088,-0.4865,-21.49,-102.27,0.77,-0.41107163482748166,-0.24969865547209497,0.8723610691250414,-0.0875034717637207,175.3485586805692,-49.54402636329404,-145.90680640318345,8
1767380406.905637,1,left_wrist,0.9726,-0.1371,-0.3494,-10.22,-65.87,-19.67,-0.5610168806973334,-0.10171744268344607,0.7883076328336098,-0.23126758839674152,-136.45550057837295,-68.67862925285839,164.18034358091754,8
1767380406.905637,2,right_wrist,0.9033,-0.0151,-0.6129,-4.69,-55.72,0.56,-0.3927464567892538,-0.2494200707576816,0.8813395755381505,-0.08234319384717076,175.71693183692574,-47.16899473344543,-146.5263053682149,8
1767380406.9562151,1,left_wrist,0.9213,-0.3157,-0.2977,14.77,-42.49,-10.01,-0.54389469418925,-0.11062548838780017,0.7981040062118775,-0.23445800950339588,-139.6072838431093,-66.9323884098327,168.448679346466,8
1767380406.9562151,2,right_wrist,0.9033,-0.0151,-0.6129,-4.69,-55.72,0.56,-0.37450159375554637,-0.24930594316973964,0.8897798131317026,-0.07672670407436089,175.94341753333737,-44.805697223893006,-147.02267456232795,8
1767380407.009303,1,left_wrist,0.8711,-0.4089,-0.4241,-29.05,-75.46,3.22,-0.5151802281424842,-0.10833425574573903,0.8203994818237553,-0.2231540091201332,-145.44528283798536,-63.336523988884124,173.32334444170974,8
1767380407.009303,2,right_wrist,0.6803,0.0434,-0.6852,-3.29,-74.27,-5.46,-0.3438014367374577,-0.25167721359884687,0.9019467805833477,-0.07036446011812177,176.49804726213782,-40.965119871411915,-147.50931824573814,8
1767380407.0769868,1,left_wrist,0.8311,-0.1879,-0.426,-44.45,-59.15,-2.17,-0.47399570238466254,-0.10484618600338251,0.8559992714902982,-0.1777655720590833,-157.1966114563974,-58.07662572685513,-178.81059350647533,8
1767380407.0769868,2,right_wrist,0.6832,-0.1679,-0.6959,11.69,-47.39,5.39,-0.32365752637891015,-0.25104435953630483,0.9091747300088061,-0.07499230278306,178.0785247569337,-38.76850178588296,-148.4517372863994,8
1767380407.128155,1,left_wrist,0.9526,-0.1025,-0.5314,-24.92,-67.83,-9.31,-0.45174903808932654,-0.11087950521953326,0.8707767840327325,-0.15929951129005898,-161.8624316179079,-55.292674655806096,-175.04538758401176,8
1767380407.128155,2,right_wrist,0.813,-0.0337,-0.6417,-1.75,-48.86,10.08,-0.3072253373009315,-0.24766417331172,0.9160073269135621,-0.07215002715745811,178.5695367098137,-36.76821323419979,-149.2655208415874,8
1767380407.208399,1,left_wrist,0.6422,-0.426,-0.4895,1.19,-68.67,7.91,-0.4230384467130631,-0.11051707015841838,0.884662788343054,-0.16185240414430277,-161.88902395571316,-51.65299555150553,-174.58013286079708,8
1767380407.208399,2,right_wrist,0.6754,-0.0015,-0.7808,12.32,-41.23,3.08,-0.2783259389607374,-0.24984051540397623,0.9241928353642986,-0.07734333601285796,-179.7327387613503,-33.579993401824176,-149.8258465226036,8
1767380407.276004,1,left_wrist,0.731,-0.1303,-0.7061,-20.02,-27.3,-3.36,-0.39849743452981584,-0.11122171930006527,0.8999439855734049,-0.13758759631357753,-166.1425709781347,-48.40501474404584,-172.16221016367294,8
1767380407.276004,2,right_wrist,0.6661,0.1835,-0.7369,-4.27,-52.22,0.98,-0.26095615103964315,-0.25139806320794705,0.9295925765653728,-0.06751698041544553,179.61915574180398,-31.272777298998953,-149.62737529394488,8
1767380407.326124,1,left_wrist,0.5832,-0.059,-0.425,-159.88,-20.51,-6.65,-0.4009003098431397,-0.08826245576527478,0.909154169801875,-0.07019527050892241,-175.13915623414752,-47.84667797625323,-171.06742023933992,8
1767380407.326124,2,right_wrist,0.509,0.0996,-0.8838,5.18,-12.25,-3.01,-0.25557068974589536,-0.25490769677405767,0.9304416641457217,-0.06311892180552672,179.14621815414958,-30.51515390842227,-149.12498364289084,8
1767380407.403363,1,left_wrist,0.5827,-0.1498,-0.8711,-37.03,5.53,0.35,-0.40042677037242136,-0.08094137838873261,0.910983447416948,-0.05671025803130041,-176.72514378644556,-47.62459552650011,-171.29068371821975,8
1767380407.403363,2,right_wrist,0.5256,-0.0346,-0.7769,16.31,-8.12,-0.21,-0.2482893073008403,-0.2594478243800716,0.9308189629389809,-0.0679360326904395,179.84386417452103,-29.83318673454948,-148.80883486744327,8
1767380407.4757838,1,left_wrist,0.6403,-0.2108,-0.7052,6.93,-2.38,-2.31,-0.39100558891523435,-0.08220910402219278,0.9150166341793331,-0.05568529274452711,-176.870502955958,-46.44463811838422,-171.0751801790129,8
1767380407.4757838,2,right_wrist,0.3518,-0.1191,-0.874,3.57,-0.91,-9.03,-0.2435736544755763,-0.26294049206136855,0.9308943118218046,-0.07049789144184841,-179.79213405890616,-29.377142877361813,-148.5087517168052,8
1767380407.526058,1,left_wrist,0.6183,-0.2137,-0.6803,6.79,1.89,2.1,-0.38939029713830225,-0.08067748998307886,0.9153733249867555,-0.06291275711067489,-175.65421933591406,-46.304903348144116,-171.78543495286368,8
1767380407.526058,2,right_wrist,0.4485,-0.0259,-0.8486,1.47,-1.82,-2.73,-0.23862918721648166,-0.26371955962697036,0.9317915457687951,-0.07261280956110842,-179.3811306813299,-28.88179261426267,-148.55377709463392,8
1767380407.576224,1,left_wrist,0.6481,-0.124,-0.7305,8.96,-0.84,3.99,-0.38517376989886526,-0.079473253443296,0.9167794731777993,-0.0695741800445411,-174.53600392614587,-45.83179592905144,-172.40243168646808,8
1767380407.576224,2,right_wrist,0.4485,-0.0259,-0.8486,1.47,-1.82,-2.73,-0.2337506962435088,-0.2644482953213585,0.9326392654172053,-0.07491135901422377,-178.951226951325,-28.40041090944037,-148.60419995626737,8
1767380407.62658,1,left_wrist,0.6105,-0.039,-0.8257,7.0,6.79,5.18,-0.38365732843569694,-0.07869022477113319,0.917266365922569,-0.07236930848264364,-174.05531074412818,-45.66135000448526,-172.69796908503656,8
1767380407.62658,2,right_wrist,0.4895,0.0683,-0.9057,-13.3,-5.67,3.36,-0.23417949890150633,-0.26308364084917957,0.9336932798129471,-0.06452766417530419,179.82333718626273,-28.115856779331605,-148.48362953208215,8
1767380407.701561,1,left_wrist,0.6105,-0.039,-0.8257,7.0,6.79,5.18,-0.38217864328946644,-0.07794451674478232,0.9177353331806762,-0.07500663407058317,-173.60359167158944,-45.49345682956208,-172.97498748207198,8
1767380407.701561,2,right_wrist,0.5178,0.0273,-0.7857,-6.16,41.58,1.12,-0.2567198856482476,-0.2592438390835555,0.929297249138372,-0.05739472932094834,178.24280734939137,-30.457335818365305,-148.34684058895286,8
1767380407.752365,1,left_wrist,0.6969,-0.2777,-0.6486,29.12,54.18,-8.61,-0.4030063531150792,-0.08259783640112339,0.906862189955999,-0.091457340869648,-171.42353373197406,-48.249434670367066,-173.43823664227503,8
1767380407.752365,2,right_wrist,0.5812,-0.0595,-0.751,-6.58,43.4,-0.42,-0.27775858472983456,-0.2565935554799009,0.9236129651243977,-0.06284112148251725,178.19102421808657,-33.04736203688099,-148.41111890721444,8
1767380407.804702,1,left_wrist,0.6856,-0.3509,-0.65,10.57,72.66,-5.04,-0.4301998742708954,-0.08149408169046611,0.8932827924356076,-0.10164957238068736,-169.62923750772418,-51.73436548034349,-174.61364139720672,8
1767380407.804702,2,right_wrist,0.5524,-0.0068,-0.754,-6.3,58.24,-5.67,-0.3049589436184008,-0.2554468581759565,0.9148534547086702,-0.06921056106399334,177.92348565768424,-36.39472118040439,-148.11555181741832,8
1767380407.8746262,1,left_wrist,0.8501,-0.1815,-0.4275,13.58,101.5,6.51,-0.5042091561559999,-0.07285167047534373,0.8509608659536746,-0.1277942313752014,-162.57437230501273,-61.25212173819908,179.4183788240362,8
1767380407.8746262,2,right_wrist,0.5524,-0.0068,-0.754,-6.3,58.24,-5.67,-0.32734125037427464,-0.2535956184825963,0.9069890594127414,-0.0768623067272014,178.03153202544993,-39.25506284496972,-148.05577646995167,8
1767380407.926183,1,left_wrist,0.8969,-0.2201,-0.4231,13.86,92.4,9.38,-0.5383236290488754,-0.06517012038498537,0.828232969152717,-0.14138838221413266,-156.67471734048416,-65.52516910607154,173.86539195196386,8
1767380407.926183,2,right_wrist,0.6832,-0.1039,-0.6905,-8.4,68.39,-1.12,-0.35671041314686813,-0.24896877292250116,0.8964194274368684,-0.08487898076562685,178.00670238551248,-42.98357855332592,-148.17120662069786,8
1767380408.006485,1,left_wrist,0.8969,-0.2201,-0.4231,13.86,92.4,9.38,-0.5673909928387999,-0.057384256088923544,0.8069791684232566,-0.15348983721872708,-149.41983486923922,-68.96498173779584,166.86593626783747,8
1767380408.006485,2,right_wrist,0.9233,0.1484,-0.4685,-8.61,98.28,-6.09,-0.43398572306311817,-0.2449780363104472,0.8610184708928633,-0.10143641695256796,176.39660380970184,-52.848255164316065,-146.44456612618416,8
1767380408.078366,1,left_wrist,0.9902,-0.1586,-0.1215,71.26,72.94,8.33,-0.6281087295806528,-0.0711847464491404,0.7492367012108043,-0.1976272280236246,-122.72682952076258,-75.77548761894893,144.81365056341977,8
1767380408.078366,2,right_wrist,0.9272,0.2059,-0.3372,-0.7,100.59,-24.01,-0.47558593199767024,-0.24948951741937755,0.8368090839845799,-0.10641221238486506,173.56475217392995,-58.10813621104112,-143.21908442169942,8
1767380408.152586,1,left_wrist,0.8989,-0.2586,0.0834,67.06,122.29,5.88,-0.6663607370400286,-0.07608207022784007,0.7064474553527844,-0.2260683072588712,-92.55095280513905,-77.39485877074222,117.37634512423972,8
1767380408.152586,2,right_wrist,0.9184,0.1235,-0.2142,56.21,135.17,-25.83,-0.565980085660175,-0.2768060812234622,0.7588383446696051,-0.16495242554416906,168.32806507484796,-71.85923531657981,-131.4463068953328,8
1767380408.2040389,1,left_wrist,0.975,-0.2362,-0.0142,29.05,136.15,-3.15,-0.704511105463981,-0.06873687719373235,0.6639373977458036,-0.24109432980911003,-63.99620578666932,-75.61464206753523,89.510777048109,8
1767380408.2040389,2,right_wrist,1.0111,0.1537,-0.1069,57.05,109.06,-32.76,-0.5994562158094642,-0.29353841130770064,0.7204170561860216,-0.18837916968342017,159.0557714087065,-76.98471242531122,-118.93905554491813,8
1767380409.678879,1,left_wrist,0.9565,-0.3348,-0.3152,-54.11,-51.17,-9.66,-0.5659105024168377,-0.11521711144505231,0.7939301483422102,-0.1901190154558367,-149.16003147364125,-70.45803446394066,174.47042138222554,9
1767380409.678879,2,right_wrist,0.8423,-0.0483,-0.4099,-38.64,-69.16,7.49,-0.4617226183032801,-0.23683386430785217,0.8404283437757989,-0.15621185435952334,-175.2220881503578,-58.220596346095014,-151.18572181061333,9
1767380409.731027,1,left_wrist,0.8159,-0.3148,-0.4348,-61.53,-87.01,0.7,-0.5350321613610604,-0.1053578125224456,0.8216397417829271,-0.16597726462585807,-156.74759845336206,-66.08973792414841,179.36751997029793,9
1767380409.731027,2,right_wrist,0.7603,0.0102,-0.5612,-35.7,-82.88,-13.65,-0.4332826901349006,-0.24156242170436432,0.8586567936489072,-0.12892717933145165,-178.82973057743396,-53.74278861632394,-149.16765370454678,9
1767380409.804974,1,left_wrist,0.8911,-0.0351,-0.4817,-39.48,-45.99,-0.21,-0.5184998927035771,-0.10146935836452753,0.8363173851825227,-0.14640717817422,-161.583883261727,-63.762943396827716,-177.6798616844819,9
1767380409.804974,2,right_wrist,0.8804,0.0425,-0.5822,3.71,-33.04,-3.85,-0.40657788498326614,-0.24688079196076076,0.8723589940813108,-0.11284539622335173,179.65572906961665,-49.91432956619465,-148.23636178831913,9
1767380409.878732,1,left_wrist,0.8882,-0.1484,-0.5139,-21.0,-46.34,-1.68,-0.48261065194653685,-0.09515556254041127,0.862682650049544,-0.1175203082401196,-167.64892458304956,-58.76471697619057,-174.38412019102762,9
1767380409.878732,2,right_wrist,0.7984,-0.0337,-0.5958,0.77,-30.8,-5.6,-0.3974623986781841,-0.24935891466060714,0.8760075078842836,-0.11160026633765349,179.76562960510824,-48.76541160573657,-148.1153549787749,9
1767380409.951738,1,left_wrist,0.7696,-0.1684,-0.6276,9.31,-55.51,-1.19,-0.45772643611718905,-0.09968102833837596,0.8754163152890428,-0.1191489705982221,-168.00971225448063,-55.60432716268888,-173.34680241366655,9
1767380409.951738,2,right_wrist,0.7398,0.0039,-0.7061,-5.25,-20.23,-0.63,-0.3779230913853356,-0.25288902856053463,0.8844922766142661,-0.10437762615222192,179.46203569928397,-46.16456457977483,-147.85874857081922,9
1767380410.0037708,1,left_wrist,0.6071,-0.0913,-0.5573,5.04,-31.01,2.1,-0.44202878288982334,-0.1016188448857954,0.8831973456226226,-0.11935918123953282,-168.23043075484364,-53.615623300161076,-172.83592238138607,9
1767380410.0037708,2,right_wrist,0.7398,0.0039,-0.7061,-5.25,-20.23,-0.63,-0.37284962588006526,-0.25170433826749555,0.8870878891853402,-0.10345607492610208,179.6608817035801,-45.52706504396987,-148.1759389285451,9
1767380410.079607,1,left_wrist,0.7457,-0.1654,-0.6481,15.75,-5.95,-5.46,-0.4312931518369798,-0.10723169355039822,0.8872473086945216,-0.12361146504740389,-168.01218006184064,-52.35756274192658,-172.1270163991011,9
1767380410.079607,2,right_wrist,0.6895,0.0151,-0.7071,7.98,-1.33,-3.71,-0.36874720551470874,-0.2556119732176563,0.8877237980484601,-0.10312359551182297,179.5604816051998,-45.024622540747345,-147.691288736605,9
1767380410.131165,1,left_wrist,0.7457,-0.1654,-0.6481,15.75,-5.95,-5.46,-0.42491220498815396,-0.11169697161708854,0.8889121173465023,-0.12964818632836458,-167.3754501078814,-51.6635416728821,-171.8065550274366,9
1767380410.131165,2,right_wrist,0.6671,0.0229,-0.7081,-3.15,-1.33,-6.23,-0.3661236389461919,-0.2587841522765098,0.8884881898363453,-0.09784160698118743,178.74363118630959,-44.52599342423071,-147.00783200763104,9
1767380410.18466,1,left_wrist,0.7379,-0.1796,-0.5763,34.86,31.57,-6.3,-0.4343903235408633,-0.11658773259762403,0.8808361438070649,-0.14778374465721422,-164.6374034568901,-53.102698727194735,-172.63165101969102,9
1767380410.18466,2,right_wrist,0.6671,0.0229,-0.7081,-3.15,-1.33,-6.23,-0.3630682424984868,-0.26170717946697586,0.8893850775984464,-0.09319327899427865,178.06702529358043,-43.994845560019456,-146.42536106310945,9
1767380410.251341,1,left_wrist,0.8032,-0.2406,-0.5573,21.84,56.49,-7.84,-0.45543159241872505,-0.11793392038838289,0.8674790743678616,-0.1617210888618083,-161.99785890422856,-55.92445553392526,-174.12966274664666,9
1767380410.251341,2,right_wrist,0.854,0.1054,-0.6324,-0.35,42.63,0.35,-0.3992189868333859,-0.2578609857474019,0.8745232591516606,-0.09664875469379092,176.8172742403806,-48.425755791197524,-145.71122692068207,9
1767380410.308713,1,left_wrist,0.8847,-0.2528,-0.4621,29.19,73.71,-4.41,-0.48391394589027853,-0.11885289331113602,0.8484589436227522,-0.17837797989391999,-158.15040100780251,-59.71910202288581,-176.6979119059385,9
1767380410.308713,2,right_wrist,0.854,0.1054,-0.6324,-0.35,42.63,0.35,-0.4189531518867922,-0.2562980099924857,0.8653166287028693,-0.10008355853143196,176.2206115659526,-50.92819734979729,-145.20221555135575,9
1767380410.378339,1,left_wrist,0.9545,-0.2313,-0.3528,33.11,68.6,0.98,-0.5350706544820667,-0.11891165680602349,0.8087624241704483,-0.21321996585151035,-147.1045632053688,-66.37654427629903,174.8697329861744,9
1767380410.378339,2,right_wrist,0.8442,-0.0386,-0.528,27.02,67.62,-1.47,-0.44370171230796956,-0.25733082274595964,0.8499674896330578,-0.12027013231364239,177.62896388294033,-54.702468488933484,-145.08563528976006,9
1767380410.4517848,1,left_wrist,0.9545,-0.2313,-0.3528,33.11,68.6,0.98,-0.5544922897800331,-0.11750149121321342,0.7907030677759705,-0.23134467520743937,-139.7298631849576,-68.6296007062778,168.80610191350465,9
1767380410.4517848,2,right_wrist,0.8379,-0.0673,-0.4631,29.05,77.49,-7.35,-0.496731403081557,-0.26125826593636303,0.8114453017424348,-0.16296795375987658,-179.3771755916123,-63.03632570727233,-144.68829442793063,9
1767380410.502729,1,left_wrist,0.9536,-0.1962,-0.2225,28.07,81.34,0.35,-0.5836947833066387,-0.11700078693706176,0.7654530540192785,-0.24432117773390788,-129.99620413396116,-71.9438919362313,159.98185139473483,9
1767380410.502729,2,right_wrist,0.9296,-0.0361,-0.2596,22.96,104.79,-14.42,-0.534331717293588,-0.26272629605173997,0.7827261445536655,-0.1811195513719404,-179.5635492495607,-68.69200767319937,-143.18902504674364,9
1767380410.552979,1,left_wrist,0.954,-0.2611,-0.1376,37.87,82.04,0.91,-0.6106584855960083,-0.11640556637969968,0.7377866023586793,-0.26309102505681775,-115.19620373091438,-74.22186249552101,146.6328835769461,9
1767380410.552979,2,right_wrist,0.9296,-0.0361,-0.2596,22.96,104.79,-14.42,-0.5703826737113564,-0.2631378376359363,0.7521432016436924,-0.1992553340699915,179.90629712690796,-74.34036290272542,-141.36410055295167,9
1767380410.628315,1,left_wrist,0.9799,-0.1532,-0.0415,18.9,66.64,7.35,-0.6518516459775799,-0.11358787317397347,0.6922601273120903,-0.28803323217639576,-86.40579821615665,-75.45164156426706,119.67812893013122,9
1767380410.628315,2,right_wrist,0.916,-0.002,-0.039,47.39,96.88,-32.55,-0.601371161704903,-0.2761750256283016,0.7171693999881498,-0.21851346139206076,174.0940847160374,-79.50346042107952,-132.9640307743757,9
1767380410.680178,1,left_wrist,0.9536,-0.2664,0.019,59.92,191.24,-11.34,-0.7045678514751337,-0.10609945245485516,0.6272116517766692,-0.31453551903096116,-52.11033788873265,-71.91008932732234,87.16718798009995,9
1767380410.680178,2,right_wrist,1.0873,0.0454,-0.1684,33.04,33.88,-24.15,-0.6129795772648796,-0.28984583924523905,0.6995319090140981,-0.2256114704519343,164.86045610307968,-81.25796172487583,-121.9780084125624,9
1767380412.777431,1,left_wrist,0.955,-0.244,-0.3553,-42.63,-68.46,-9.17,-0.5054941993080749,-0.05798754170232595,0.8512323283734338,-0.12851685728009324,-160.64287980481268,-61.10311042710445,176.2972612231369,10
1767380412.777431,2,right_wrist,0.9213,0.0205,-0.2323,-19.32,-50.96,0.84,-0.4779907416718847,-0.27621703567570205,0.7993651252345462,-0.23715901129252445,-165.03396685505626,-63.5332277634783,-151.17512482979333,10
1767380412.828754,1,left_wrist,0.8999,-0.2128,-0.2557,-22.47,-53.9,-1.89,-0.4886094262684323,-0.05618124961616443,0.8624198691008929,-0.11973497873720347,-162.93237783724277,-58.895518057977746,177.7697576514778,10
1767380412.828754,2,right_wrist,0.9213,0.0205,-0.2323,-19.32,-50.96,0.84,-0.46540710083775383,-0.2777235462747213,0.8100555544232964,-0.22377636399395626,-167.43193005190892,-61.43882476088145,-149.63949987974038,10
1767380412.901612,1,left_wrist,0.9623,-0.1503,-0.3958,-29.19,-55.58,-0.63,-0.47134990181723035,-0.05321587806735826,0.8737535335247295,-0.10748071004350909,-165.50718148548262,-56.629027659969765,179.13260798272887,10
1767380412.901612,2,right_wrist,0.8901,-0.0586,-0.3699,-22.54,-64.33,-5.74,-0.4285164352216603,-0.2897822052429834,0.8348183357411203,-0.18835680125724202,-173.28598681630967,-55.55116435478278,-145.25333900230072,10
1767380412.953823,1,left_wrist,0.8296,-0.386,-0.408,-22.61,-66.99,3.29,-0.44683354789147567,-0.048513125849002456,0.8875072533846855,-0.10157328530990242,-166.7165995291957,-53.41670788524969,179.55188925961954,10
1767380412.953823,2,right_wrist,0.8969,-0.0732,-0.4587,-20.3,-52.22,-9.24,-0.41563842617432945,-0.2930085501789142,0.8433013330003165,-0.17387797436497326,-175.21816164537884,-53.40911764472932,-144.08654325688954,10
1767380413.029835,1,left_wrist,0.853,-0.1791,-0.5783,-20.3,-71.89,2.66,-0.4047143976797312,-0.04032024177289336,0.9100605409655704,-0.07981444851379364,-170.3104792461421,-47.993206581745035,-179.24796157981197,10
1767380413.029835,2,right_wrist,0.7871,-0.0229,-0.5763,-8.4,-50.12,-10.71,-0.4012576734837243,-0.30112418248905776,0.8503885184123698,-0.15860603375388996,-177.43696136149316,-51.0750900549277,-142.2264251629778,10
1767380413.104104,1,left_wrist,0.8062,-0.0356,-0.5778,2.87,-24.22,-0.14,-0.3982769008727448,-0.04282299895016574,0.9128915657012293,-0.07855374124555835,-170.73933278606978,-47.21393246697454,-178.68290922438837,10
1767380413.104104,2,right_wrist,0.7842,-0.0542,-0.5812,-9.59,-26.6,-6.58,-0.38197359727490293,-0.3080324702262552,0.8596349190396796,-0.1422672634123009,-179.20414859682097,-48.104290861700385,-140.92701845250843,10
1767380413.174997,1,left_wrist,0.6554,-0.2879,-0.6666,2.94,-40.46,1.96,-0.3630736910523172,-0.04119963881361017,0.9266058054631734,-0.08877931014160054,-169.41883684696066,-42.856751518619724,-179.07104314518742,10
1767380413.174997,2,right_wrist,0.6998,0.0537,-0.5822,5.18,-3.64,-6.02,-0.3834429785666379,-0.31264627800946904,0.857698004068799,-0.13992112367748183,-179.97799407379145,-48.18042115783881,-139.9544320553238,10
1767380413.228013,1,left_wrist,0.7305,-0.1815,-0.6378,-7.77,-6.93,0.14,-0.36350046634834016,-0.03960090677723637,0.9266206124187282,-0.0875980581274546,-169.4973536829265,-42.88991935910761,-179.24093518118238,10
1767380413.228013,2,right_wrist,0.6549,-0.0142,-0.6759,3.57,-6.09,-2.24,-0.37706732949176913,-0.3146836436012732,0.859844870929025,-0.1395035175786647,-179.7808041109165,-47.41190969330753,-139.89329705322345,10
1767380413.30529,1,left_wrist,0.6905,-0.0615,-0.6749,14.0,28.98,-0.63,-0.3775067662192481,-0.04259390413410842,0.9206342867504025,-0.09003838541909849,-169.17392403452283,-44.64898298621512,-179.15863486664338,10
1767380413.30529,2,right_wrist,0.7696,0.0083,-0.5998,1.33,32.06,7.35,-0.3855859776526252,-0.3118177782988764,0.8560273757776757,-0.14598033735269947,-179.17874502414202,-48.692942766948995,-140.3421530264629,10
1767380413.374722,1,left_wrist,0.7964,-0.2162,-0.5475,17.71,65.94,-3.71,-0.42789663511116155,-0.04880129434619462,0.8954439858275376,-0.11270746016113645,-165.25850131809557,-51.01543590575584,179.17514575365385,10
1767380413.374722,2,right_wrist,0.7696,0.0083,-0.5998,1.33,32.06,7.35,-0.4004996618676074,-0.30711700131264896,0.8497591876367934,-0.15227767852024685,-178.84140910235993,-50.73171277393047,-140.80792314062205,10
1767380413.425675,1,left_wrist,0.812,-0.2616,-0.4821,23.31,80.36,-1.75,-0.46090857774130556,-0.04877924931033705,0.8771279445674763,-0.12581906318217842,-162.0791287555453,-55.167595868901635,176.94799166309667,10
1767380413.425675,2,right_wrist,0.8696,0.0395,-0.5475,9.66,54.11,5.11,-0.4223273751554275,-0.3032840013885429,0.8383414601197647,-0.1638352799013148,-178.19992542727078,-53.85106159083066,-141.13742373695277,10
1767380413.504917,1,left_wrist,0.9101,-0.2025,-0.3943,17.08,73.22,0.0,-0.4913455623878476,-0.04799242049992943,0.8591284709519968,-0.13481296783326002,-159.00873273927456,-59.0034069603684,174.42657615378207,10
1767380413.504917,2,right_wrist,0.8872,-0.1039,-0.3865,42.77,92.54,-0.49,-0.4773336096470523,-0.30003804665317846,0.7985563931613856,-0.21080199857434706,-173.70520683934188,-62.72944877313872,-142.65450196021916,10
1767380413.5784872,1,left_wrist,0.935,-0.184,-0.3362,28.49,78.26,2.73,-0.5531965479174333,-0.04933660372984099,0.8158960554878935,-0.160789009400319,-148.28496394182048,-66.71752594600807,165.73607581104673,10
1767380413.5784872,2,right_wrist,0.9296,-0.0742,-0.1781,36.61,97.79,-8.89,-0.5094654132416194,-0.3006571420789803,0.771039131889685,-0.23568821082575758,-171.22209440881,-68.02668561142049,-143.3247014384225,10
1767380413.630218,1,left_wrist,1.0399,-0.2606,-0.0903,33.88,75.88,2.03,-0.5815315637952606,-0.05114705146469237,0.7926342829864175,-0.17588607924140748,-140.04008504095117,-70.03071193204924,158.80286462278133,10
1767380413.630218,2,right_wrist,1.118,-0.1498,-0.124,42.21,95.55,-14.35,-0.5391562927184697,-0.303561134591357,0.7410409992668435,-0.26080522807889,-168.16766920883686,-73.21884248048326,-144.2524086805981,10
1767380413.704711,1,left_wrist,0.9589,-0.223,-0.0142,73.85,73.22,-7.56,-0.6077016814509897,-0.06673748424358136,0.7652044388939445,-0.20175961254790614,-128.32897948547148,-73.1292580682315,150.46014213717297,10
1767380413.704711,2,right_wrist,0.9716,-0.0317,-0.0039,28.14,52.5,-32.62,-0.5764807196449898,-0.31801444647092186,0.7012394901970024,-0.27349583013573703,-174.79691219569568,-79.25090443997013,-135.52029316921715,10
1767380413.7746089,1,left_wrist,0.8355,-0.3401,0.0834,19.74,158.55,7.91,-0.6775554708447652,-0.053804357626419226,0.6941724456730654,-0.236956305459492,-83.21646574674479,-75.05620209506273,107.15178855925213,10
1767380413.7746089,2,right_wrist,1.0316,0.0351,-0.0337,49.98,53.9,-17.78,-0.5904983413429776,-0.329195103654617,0.6765194698328125,-0.29199948551007493,-177.26587238585782,-82.40056805266958,-130.49846906584824,10
1767380413.827659,1,left_wrist,1.0985,-0.2616,0.0771,79.1,182.77,-6.72,-0.7315141571471496,-0.06144099176492424,0.6266520610682531,-0.2615707108663894,-48.96870509217328,-71.6138048011025,75.7248580325929,10
1767380413.827659,2,right_wrist,0.9819,-0.0883,0.0166,106.61,81.27,-2.94,-0.6000080045793845,-0.34464426498086526,0.638912802479736,-0.3361564455487269,-163.51803060878638,-86.7730260190218,-138.90340508327412,10
1767380415.33199,1,left_wrist,0.9165,-0.2064,-0.2679,-41.3,-69.16,5.18,-0.5516310356843074,-0.06623731747717174,0.8137387103564263,-0.17071944678549947,-148.4211532998488,-66.98214584185088,168.11212726826878,11
1767380415.33199,2,right_wrist,0.9365,-0.0981,-0.0644,-1.19,-52.99,0.14,-0.5810193357510421,-0.2743761992384027,0.7035325277951452,-0.3036053608042509,-142.35596792252846,-79.78078800076551,-169.19349550260264,11
1767380415.41319,1,left_wrist,0.9618,-0.2645,-0.2684,-22.4,-53.55,-3.5,-0.5353637099901271,-0.06474848455883543,0.8262788535196764,-0.1626548124069821,-151.91827455068866,-64.92891084055371,170.88081773509333,11
1767380415.41319,2,right_wrist,0.9267,-0.1718,-0.1298,-4.48,-40.32,-3.85,-0.5521269084292435,-0.2866731254820175,0.7283595888365416,-0.2871701681313732,-155.699118523048,-75.6828592749522,-156.02230909666648,11
1767380415.476365,1,left_wrist,0.9243,-0.2176,-0.4221,-2.87,-29.89,0.63,-0.5087447879964253,-0.062419855919602835,0.8443252017409199,-0.15619685009180975,-155.20911683542573,-61.47294024768576,173.56514366436537,11
1767380415.476365,2,right_wrist,1.036,-0.08,-0.3026,6.16,-36.82,1.33,-0.5376204931429838,-0.294000962631694,0.7380821492420598,-0.2824223438302184,-158.9899958008575,-73.67465824178558,-152.37855971472547,11
1767380415.531822,1,left_wrist,0.7769,-0.2547,-0.5134,-18.55,-53.06,3.85,-0.48591351265906,-0.059352552831340014,0.8590251024665042,-0.14980389187250226,-157.53352294447237,-58.4962863738691,175.21247441504747,11
1767380415.531822,2,right_wrist,0.8916,0.0537,-0.327,-14.56,-50.89,-9.66,-0.5239808718944373,-0.30266391759783984,0.7506896041356637,-0.26514848126231766,-165.38510309289867,-71.29740267083943,-146.59295061327074,11
1767380415.582061,1,left_wrist,0.7476,-0.2689,-0.5446,-20.65,-52.15,1.4,-0.4632835633830996,-0.05641005632984364,0.8728297815337808,-0.14266891010873342,-159.63152965060183,-55.57139200737429,176.58081322278443,11
1767380415.582061,2,right_wrist,0.9155,0.0102,-0.4343,-2.38,-59.01,-13.02,-0.5046759520864074,-0.3150428204147235,0.7637053914458967,-0.250607820642701,-169.9340300112336,-68.24108438388969,-141.99580188523095,11
1767380415.6534111,1,left_wrist,0.7462,-0.2206,-0.5641,-8.89,-46.55,4.76,-0.44186989513100455,-0.05472850703638102,0.8843960420611338,-0.1399979538460648,-160.740800465898,-52.8350600124123,177.44613038658872,11
1767380415.6534111,2,right_wrist,0.7564,-0.0127,-0.4929,-4.41,-31.36,-7.98,-0.48091483882281333,-0.325611966848794,0.7798616799611214,-0.23348131611138567,-173.21349806435595,-64.441164648556,-138.95657032242525,11
1767380415.7041368,1,left_wrist,0.7462,-0.2206,-0.5641,-8.89,-46.55,4.76,-0.42064576770650225,-0.052239616440946324,0.8949822143083984,-0.1390503385696933,-161.35605291456613,-50.12713328239765,177.90151682065724,11
1767380415.7041368,2,right_wrist,0.7564,-0.0127,-0.4929,-4.41,-31.36,-7.98,-0.4690781347845729,-0.3317789961124798,0.7873004841134978,-0.22371041307966266,-174.90561510951227,-62.50556999316246,-137.39055243558786,11
1767380415.780767,1,left_wrist,0.7359,-0.1893,-0.6178,11.97,23.31,-5.88,-0.4265653420526038,-0.05738190477622392,0.8916266173187832,-0.14053932279779072,-161.32315908774922,-50.968772674786166,178.40105027408373,11
1767380415.780767,2,right_wrist,0.8154,-0.0576,-0.5104,-1.47,-5.81,-4.41,-0.46445605257670497,-0.3338449664606688,0.7899776940616685,-0.22082426605504465,-175.29350249112557,-61.79497227866373,-136.99962999835122,11
1767380415.832688,1,left_wrist,0.7715,-0.2416,-0.5958,22.19,45.57,-5.39,-0.44294488622243516,-0.05856600322261398,0.8813491325727782,-0.15360194513460532,-158.66671462945664,-53.01279520438512,176.87096778818048,11
1767380415.832688,2,right_wrist,0.8818,0.0342,-0.4607,8.4,30.24,2.31,-0.4756140913694472,-0.33402660763637887,0.7820554292713325,-0.22495947863777532,-175.62809664661123,-63.405609209187794,-136.44526258527463,11
1767380415.9102468,1,left_wrist,0.8359,-0.203,-0.51,29.26,68.32,-7.28,-0.4721598866213276,-0.0630094908018732,0.8636575846379264,-0.16489518498733255,-155.73053812486734,-56.75655282353632,175.09463079986074,11
1767380415.9102468,2,right_wrist,0.9755,-0.0786,-0.264,24.85,87.71,6.58,-0.5123734719316937,-0.3273336892211955,0.752562262195752,-0.25293501671440416,-172.5678885023968,-69.51669314957023,-138.14706940156702,11
1767380415.979029,1,left_wrist,0.9008,-0.205,-0.4163,35.42,81.2,-8.19,-0.5370546413930115,-0.07455913824628795,0.8186200063398551,-0.1894057345550293,-146.79187520754567,-65.1663811289089,168.8283963354297,11
1767380415.979029,2,right_wrist,0.9755,-0.0786,-0.264,24.85,87.71,6.58,-0.5385762996888867,-0.3193241116555636,0.7288526788031644,-0.2770224787454313,-167.33619938569538,-74.15534059189636,-142.2682579867491,11
1767380416.067151,1,left_wrist,0.9379,-0.2084,-0.2318,14.42,80.36,1.4,-0.5677420119207496,-0.07101321090165305,0.795955619554235,-0.19768860229575896,-139.81977312489192,-68.72851487490686,162.11321350326264,11
1767380416.067151,2,right_wrist,1.0077,-0.0488,-0.1122,17.29,77.98,-9.31,-0.5927113888455386,-0.30992645050891227,0.673602260210789,-0.3144817957317336,-150.52930421399816,-83.43155524210536,-156.975684767795,11
1767380416.1326048,1,left_wrist,0.9697,-0.2274,-0.1035,16.38,68.25,0.21,-0.6272584670021074,-0.0665827742506922,0.7439318740850308,-0.2206329904333928,-115.30889643398471,-74.29240059653809,138.96968165538317,11
1767380416.1326048,2,right_wrist,1.0077,-0.0488,-0.1122,17.29,77.98,-9.31,-0.6129352731525229,-0.30858233190294637,0.6508010928028659,-0.3248772583136244,-130.09343266502418,-86.65928120744049,-176.6610801789118,11
1767380416.203962,1,left_wrist,1.0311,-0.081,-0.0264,40.32,80.22,-2.87,-0.6542825192847137,-0.07321328189667357,0.7157659290886378,-0.23288051672101226,-98.46621457209537,-76.10230960730618,123.65439967721295,11
1767380416.203962,2,right_wrist,1.0619,-0.0161,0.0849,15.47,23.1,-17.71,-0.6479458849047025,-0.31020482211219547,0.6027341685100055,-0.3473479821216114,-11.67098898601441,-85.25746731565222,67.13784504536757,11
1767380416.256889,1,left_wrist,0.9038,-0.2811,-0.0171,46.9,61.95,3.85,-0.6711008738851132,-0.07578591451759628,0.6923945028488828,-0.25390936307276546,-83.22373646831848,-75.42489847074404,110.41032061189027,11
1767380416.256889,2,right_wrist,0.9789,-0.0752,0.0952,69.65,57.19,-21.77,-0.655585205626067,-0.323256918083141,0.5733211650055142,-0.3701565139671821,-0.25394910754653516,-82.32134898624935,59.121890706053016,11
1767380416.30889,1,left_wrist,0.8677,-0.1279,0.1074,46.41,180.04,-6.51,-0.7247638101535759,-0.07309348116429305,0.6297717058615514,-0.26974499253774437,-50.013720969589315,-72.23288368627168,78.42074102154882,11
1767380416.30889,2,right_wrist,0.8306,-0.0756,0.1952,123.27,97.79,15.75,-0.6592782191982521,-0.33517223107296734,0.5252640479378097,-0.42084377760914715,-0.042221574438597344,-77.0844550021183,65.1370870351587,11
1767380418.1296132,1,left_wrist,0.856,-0.2006,-0.5158,-14.14,-33.11,0.77,-0.43158760071631835,-0.1553321247372751,0.8716196439680803,-0.17286778236991465,-163.58248986958213,-53.71316618550083,-168.14664756205684,12
1767380418.1296132,2,right_wrist,0.8794,-0.1357,-0.2455,10.92,-39.83,-5.88,-0.5109497861947593,-0.36026460403839644,0.7204941450909698,-0.30004652631586975,-167.83279243255743,-72.26299964775234,-135.7660014628485,12
1767380418.203145,1,left_wrist,0.7261,-0.2113,-0.5797,-7.56,-31.29,6.3,-0.41615862190540864,-0.15249177937449107,0.8799623793894182,-0.17095165836079618,-163.70894414892766,-51.67864429427209,-168.26740308450673,12
1767380418.203145,2,right_wrist,0.9033,-0.021,-0.3416,2.03,-16.31,-2.31,-0.49522659164710214,-0.3719519028700084,0.7326050782048046,-0.2822980769780522,-172.63978210931745,-69.32751084175347,-131.2583823163783,12
1767380418.2546299,1,left_wrist,0.7686,-0.2606,-0.5871,-9.73,-17.57,-2.31,-0.40892862009864384,-0.15069662770873768,0.8838662983089353,-0.1698478047402837,-163.765408026621,-50.72055928834205,-168.3836454237811,12
1767380418.2546299,2,right_wrist,0.9043,-0.0478,-0.3518,3.92,1.68,-2.87,-0.4924675268922755,-0.37382827677862884,0.7333996949460341,-0.2825828053693126,-172.57503743181377,-69.00728018589678,-131.08982881223665,12
1767380418.310911,1,left_wrist,0.7227,-0.2352,-0.5822,3.22,15.05,-0.28,-0.4126787133630237,-0.14809006746581893,0.8813356160954177,-0.17610548900224285,-162.51396138399042,-51.22175643918082,-169.35588568810948,12
1767380418.310911,2,right_wrist,0.9043,-0.0478,-0.3518,3.92,1.68,-2.87,-0.4896293431263914,-0.3755459406850429,0.7342271228440933,-0.28308812208337075,-172.4190766104106,-68.689316372178,-131.00595059884287,12
1767380418.362852,1,left_wrist,0.7047,-0.2411,-0.61,18.69,18.34,-4.83,-0.415362097006576,-0.15036379465298422,0.8776788913615214,-0.18586237189454283,-161.03352087559443,-51.720958747927625,-169.81509908927404,12
1767380418.362852,2,right_wrist,0.9189,0.0351,-0.3762,5.18,24.92,-0.07,-0.4978380697266333,-0.3762923726945147,0.7275994079635116,-0.2848866583642338,-173.34522349394524,-69.86010305551275,-129.95703289066827,12
1767380418.428001,1,left_wrist,0.8198,-0.1303,-0.5056,31.22,67.34,-8.33,-0.4580375442066985,-0.16154948437326386,0.8496590195728665,-0.2053848160266593,-157.93939883549132,-57.640994093187516,-170.71279678952203,12
1767380418.428001,2,right_wrist,0.9189,0.0351,-0.3762,5.18,24.92,-0.07,-0.5049639119118596,-0.37699516664117994,0.7215576964211688,-0.28677618926828113,-174.19200384896925,-70.89978226045959,-128.96509203046725,12
1767380418.5075672,1,left_wrist,0.9096,-0.307,-0.3933,45.71,71.05,-8.75,-0.48339764309333366,-0.16609728067684268,0.828629485216987,-0.22827962728329318,-153.05945817983007,-61.276405318111195,-173.48046347081467,12
1767380418.5075672,2,right_wrist,1.0038,0.0444,-0.1991,11.34,56.28,2.59,-0.5403125829793446,-0.36565882265208244,0.6903808435799197,-0.31261834384559106,-170.60490548387435,-77.07564926979146,-131.67377503046666,12
1767380418.5799701,1,left_wrist,0.9687,-0.3211,-0.205,25.83,80.36,-1.19,-0.5418495285582627,-0.16477958680096774,0.7794282318084472,-0.2678402651485547,-138.41923627528703,-68.89702740026434,174.6787548030549,12
1767380418.5799701,2,right_wrist,1.0004,-0.0088,-0.1118,27.3,79.24,0.21,-0.5620692405086254,-0.36040619289667464,0.665261307499107,-0.33408522526499235,-164.80561739693744,-81.36261649362088,-136.18722499219461,12
1767380418.6553862,1,left_wrist,1.0341,-0.1454,-0.102,23.24,95.76,1.96,-0.5748981502672081,-0.15900132182755977,0.7512586254800628,-0.28252641313377785,-126.57756775949176,-72.48506494410513,163.40666947549525,12
1767380418.6553862,2,right_wrist,1.0614,-0.12,0.1664,15.68,54.04,-12.53,-0.6024070617190724,-0.3505388859579249,0.6165713805898072,-0.36615291076263423,-101.75968735848352,-88.29174264900121,162.66602650690967,12
1767380418.733664,1,left_wrist,1.0097,-0.0683,0.0717,27.93,81.55,-5.46,-0.6247093657443917,-0.1528884046864422,0.7042620907997383,-0.3006297582177382,-99.45819806338781,-76.37148545147123,137.14312619115844,12
1767380418.733664,2,right_wrist,1.1053,0.0317,0.1752,-2.66,38.01,-17.15,-0.6181062551935279,-0.3478523561156237,0.6017718683765428,-0.3671702793882526,-19.40722019656855,-87.95002357862465,80.15999558988311,12
1767380418.8091688,1,left_wrist,1.0097,-0.0683,0.0717,27.93,81.55,-5.46,-0.6507485989803461,-0.15339555318410308,0.6753057067423519,-0.3113812255574704,-79.51992294640289,-77.01718096275076,118.1506459743458,12
1767380418.8091688,2,right_wrist,0.8813,-0.0371,0.2655,8.4,81.27,-35.84,-0.6586509646939427,-0.3530079720849474,0.5493232949170754,-0.37390934197163256,20.214820669976895,-80.97156878734773,41.86134046697905,12
1767380420.381752,1,left_wrist,0.9858,-0.2596,-0.2538,65.45,-54.95,-13.51,-0.5733205455217796,-0.2113315520902637,0.7339551707931918,-0.2965675883161642,-130.81665271968123,-75.22423153890779,173.28066493611422,13
1767380420.381752,2,right_wrist,0.9204,-0.1166,0.0815,-24.57,-46.27,-3.08,-0.5848545075575249,-0.32685545446822045,0.6347649207940811,-0.3849470251908725,-100.39913644217923,-83.79117633264893,160.93709115896496,13
1767380420.438349,1,left_wrist,0.9296,-0.4085,-0.2479,-8.05,-57.89,3.36,-0.5521482078685596,-0.21308885337162478,0.7513363407673811,-0.2919232778635266,-137.2294135115641,-72.57489758102912,179.58537607486232,13
1767380420.438349,2,right_wrist,0.9204,-0.1166,0.0815,-24.57,-46.27,-3.08,-0.5777141646062411,-0.32767162666652255,0.6482563559087808,-0.37234573465382437,-117.928120527178,-83.2303184376283,177.38002221980832,13
1767380420.508354,1,left_wrist,0.9155,-0.3465,-0.2621,-31.78,-55.37,1.4,-0.5338861586531647,-0.20933308200240067,0.7701365260902758,-0.2793473850952359,-142.94906624595953,-69.93161926966002,-175.96411806607486,13
1767380420.508354,2,right_wrist,1.0946,-0.0278,-0.0063,5.74,-47.67,-11.06,-0.5599451601783537,-0.34694285033349864,0.6654778756237154,-0.3510431216398524,-148.10969158771147,-81.43441958097063,-152.55968861013918,13
1767380420.576868,1,left_wrist,0.8926,-0.2713,-0.4221,-23.31,-48.72,1.33,-0.49807675142972807,-0.20430591422000258,0.8029799121731421,-0.2557379591424607,-150.9520855204927,-64.74109107603056,-170.10148999653757,13
1767380420.576868,2,right_wrist,0.9955,0.0439,-0.1157,-10.5,-56.84,-11.2,-0.5487670039882864,-0.35897712024363765,0.6772978918175415,-0.333553246446229,-161.72938367161498,-79.36830417704923,-139.35162792082374,13
1767380420.636665,1,left_wrist,0.8213,-0.1196,-0.5178,-25.83,-36.96,0.63,-0.4850497652467015,-0.2038527842962932,0.8155275331888823,-0.24100956449822694,-154.70172631828294,-62.79842634881705,-167.53177739076608,13
1767380420.636665,2,right_wrist,0.9955,0.0439,-0.1157,-10.5,-56.84,-11.2,-0.5379863657784599,-0.3694304640035974,0.6881233549510825,-0.31714042768691325,-169.95528807683706,-77.0906210649331,-131.55065596008396,13
1767380420.709273,1,left_wrist,0.9013,-0.1357,-0.4695,-1.82,-34.72,-4.62,-0.47239844027369765,-0.21085055662637558,0.8235549050816059,-0.2326780494875961,-157.55007589810515,-61.188824512658016,-164.66380654798834,13
1767380420.709273,2,right_wrist,0.9843,-0.202,-0.1537,20.3,-31.36,-3.64,-0.5155715298440939,-0.3864162663678257,0.6935461213380812,-0.32227665797800764,-169.44287626678937,-74.62499400275358,-129.80593821974043,13
1767380420.777889,1,left_wrist,0.7891,-0.1708,-0.5851,-2.59,-6.09,-0.7,-0.4563841911546139,-0.21343827599033674,0.8324044028649089,-0.23078232709099714,-158.3409998670208,-59.12713099974019,-163.62282808946807,13
1767380420.777889,2,right_wrist,0.9135,-0.0127,-0.245,-1.05,-36.47,-11.76,-0.5085181317103958,-0.39738609957107307,0.6982063882042077,-0.30984098673399063,-174.40095511184322,-73.0096958184937,-124.85232403675258,13
1767380420.830729,1,left_wrist,0.7706,-0.2176,-0.5378,8.47,10.85,-4.69,-0.4564928292574748,-0.21527511578006614,0.8309919212459002,-0.23393022076344266,-157.91429941240173,-59.249552394642336,-163.6177899463325,13
1767380420.830729,2,right_wrist,0.9257,-0.0107,-0.264,4.06,-15.54,-4.13,-0.5068352481544586,-0.40232342757416906,0.698014577005718,-0.3066423668391395,-176.113268570725,-72.61059283743356,-122.93934874840068,13
1767380420.907223,1,left_wrist,0.7803,-0.1279,-0.5719,9.24,22.61,-0.28,-0.46143520332889026,-0.2160582348913068,0.8272329536777231,-0.23681645342777308,-157.3891463639984,-59.969727120407605,-163.88499862297286,13
1767380420.907223,2,right_wrist,0.9487,0.0571,-0.225,-5.39,20.51,0.49,-0.5242692059507653,-0.39544600829976256,0.6861675333133342,-0.312951067162636,-176.66310195363005,-75.23595890753285,-122.66106608261208,13
1767380420.958081,1,left_wrist,0.8247,-0.1806,-0.5251,32.06,42.07,-9.17,-0.47154669927025056,-0.22198316947599595,0.8163680005974332,-0.24881814740342512,-155.47000197460687,-61.68801361673553,-164.36990599778977,13
1767380420.958081,2,right_wrist,0.9487,0.0571,-0.225,-5.39,20.51,0.49,-0.534072951066583,-0.3931582645700275,0.680093877533166,-0.3125139671778184,-178.74584993034014,-76.45209241943205,-120.92394948331778,13
1767380421.032671,1,left_wrist,0.8223,-0.2191,-0.4719,19.6,50.12,-3.57,-0.4971290771431524,-0.2208344321523773,0.79438976569607,-0.27025864351039247,-149.7410038940245,-65.39411271782899,-168.62092291085926,13
1767380421.032671,2,right_wrist,0.9804,0.0459,-0.101,-1.47,59.01,6.3,-0.553560278521263,-0.38236393746266045,0.6651205173815405,-0.32401162746053463,-177.51453738337082,-79.7850347174386,-122.29031774335465,13
1767380421.110721,1,left_wrist,0.9492,-0.3738,-0.2928,36.05,67.97,-7.21,-0.5179173443383654,-0.22064243832702596,0.7735047134351877,-0.29115115856913215,-142.95891199561262,-68.38866136673853,-173.80400949883963,13
1767380421.110721,2,right_wrist,1.0238,-0.12,-0.0224,15.47,53.06,-2.66,-0.5838741943574439,-0.3681227390896633,0.6265111933860938,-0.3620225113035126,-157.04245913704702,-86.50946856998357,-140.75795013749362,13
1767380421.181891,1,left_wrist,0.9511,-0.2269,-0.2464,-7.98,64.33,2.1,-0.5610286107615521,-0.1980746031474871,0.7458054011213261,-0.2996458795865316,-130.35270627837264,-72.85092516168616,172.0523531670303,13
1767380421.181891,2,right_wrist,1.0238,-0.12,-0.0224,15.47,53.06,-2.66,-0.5954560841876764,-0.3611333918240008,0.6104549344274014,-0.3773055766176915,-101.36310325928801,-88.21269395568751,164.32549718187806,13
1767380421.257905,1,left_wrist,0.9736,-0.0932,-0.082,3.64,87.92,3.71,-0.5913102077718845,-0.18762597109250242,0.7213736079192745,-0.3078454985116645,-116.57336364367995,-75.61097437536046,157.931312788341,13
1767380421.257905,2,right_wrist,1.0682,0.1064,0.1996,23.94,40.74,-10.71,-0.6236893227975716,-0.36030178623577985,0.5674178736528478,-0.3990378529950433,-2.024884212648446,-84.46237345302973,67.06050751125746,13
1767380421.3251789,1,left_wrist,0.8779,-0.1484,0.0766,25.62,117.32,-10.08,-0.6512391386054349,-0.18318941905289168,0.6540983594234931,-0.3383556668581302,-69.2765754879911,-77.39960562334183,112.83474382206451,13
1767380421.3251789,2,right_wrist,1.0682,0.1064,0.1996,23.94,40.74,-10.71,-0.6343436281735627,-0.36313504484842585,0.5473698997271856,-0.4075871605818607,6.041191045497282,-82.07923254802466,60.184178117713934,13
1767380421.376609,1,left_wrist,1.0385,-0.2528,0.1118,56.77,129.57,-4.55,-0.6836286983807655,-0.1783068202169658,0.6058974271458938,-0.365714080112212,-44.59895520551469,-73.50335589621749,90.34644144902339,13
1767380421.376609,2,right_wrist,0.8686,-0.0351,0.185,65.17,59.57,-20.02,-0.6421805624497618,-0.3723531269583347,0.5146013953068655,-0.42911848946914993,10.72969108069689,-78.66688649516308,58.70229579291619,13
1767380421.4290009,1,left_wrist,1.0385,-0.2528,0.1118,56.77,129.57,-4.55,-0.7105723384312154,-0.17536411684809647,0.559942226960555,-0.3883285733047928,-30.80261085687129,-68.74191395465363,78.65372425449942,13
1767380421.4290009,2,right_wrist,0.9335,-0.2216,0.2152,77.0,74.2,-4.41,-0.6450829053072388,-0.3773219155395841,0.4799213677915649,-0.45953421860725957,10.181725469855742,-75.00818802794589,63.1071277414824,13
1767380423.357759,1,left_wrist,0.9423,-0.1381,-0.368,9.52,-37.17,5.11,-0.49948962677629455,-0.21483134342749866,0.7760235794905552,-0.31960133087751674,-136.51648035029967,-65.86046742360014,-178.01671402953934,14
1767380423.357759,2,right_wrist,0.9848,-0.0239,-0.0883,16.87,-20.16,-12.32,-0.552814103223677,-0.364229127565184,0.6776697452089288,-0.3201521924625414,-170.36189124453546,-79.25549822832883,-131.4734663280666,14
1767380423.412322,1,left_wrist,0.9692,-0.2991,-0.3265,-16.38,-50.82,-2.31,-0.48153787979305646,-0.2195710865251252,0.7909135326738465,-0.30718983075609807,-141.69901855930118,-63.715940069977684,-173.3244829667197,14
1767380423.412322,2,right_wrist,1.1078,0.0459,-0.0805,4.97,-44.87,-13.51,-0.543372418502997,-0.37586837656485517,0.6831917445501746,-0.31099584963017274,-175.64166253257534,-77.48574073407272,-125.86151727979477,14
1767380423.482337,1,left_wrist,0.8886,-0.346,-0.4163,-27.3,-39.9,0.14,-0.4537364489779661,-0.22020719678106146,0.8143655759519633,-0.2871249450311121,-147.68288533253903,-59.93626184998173,-168.70718107220517,14
1767380423.482337,2,right_wrist,0.9633,0.0283,-0.0625,20.37,-41.79,-7.98,-0.5311731653007032,-0.38827872007706954,0.6867987673048634,-0.3088723963520608,-177.24621445060598,-75.80699886487783,-123.18127690575035,14
1767380423.563894,1,left_wrist,0.8228,-0.2908,-0.4616,-17.29,-21.56,-6.93,-0.44512372147378887,-0.22116467950899138,0.8220889038011829,-0.2777064841986578,-149.98130842457306,-58.72663828841121,-167.04195588570775,14
1767380423.563894,2,right_wrist,0.9892,-0.0908,-0.2181,-5.39,-29.33,-5.11,-0.5118214556092712,-0.4021038941693934,0.6964339589731562,-0.30221018622937307,-178.17910429049925,-72.92856108335963,-121.34352038036062,14
1767380423.6311092,1,left_wrist,0.9326,-0.142,-0.6124,-84.91,-122.08,13.58,-0.3977135560018929,-0.2161123094999405,0.8626411922060434,-0.22576441385716065,-159.49016652373942,-51.60513563489992,-161.8687965300526,14
1767380423.6311092,2,right_wrist,0.9004,0.1747,-0.1991,28.77,-2.87,-7.63,-0.5097123825129722,-0.41286110914392327,0.6897698653295767,-0.3065232854982092,-179.61208102475396,-72.99349781625877,-118.48183003292293,14
1767380423.6839318,1,left_wrist,0.812,0.0527,-0.6905,3.71,39.97,-4.34,-0.4132604051866592,-0.21666636543584433,0.8551667367774559,-0.22574626442795614,-159.5947254121647,-53.57515020670783,-161.9489197729112,14
1767380423.6839318,2,right_wrist,0.9004,0.1747,-0.1991,28.77,-2.87,-7.63,-0.5075256312079777,-0.42351538063714766,0.6829730335240074,-0.3108058743166401,178.94986775365712,-73.04120591741074,-115.61578521630413,14
1767380423.754238,1,left_wrist,0.5788,-0.0522,-0.7437,-19.6,41.09,-15.05,-0.4291057484246243,-0.21575584025595407,0.8498975862362251,-0.2167758449971505,-161.17667283502746,-55.37950435675168,-161.4544436805508,14
1767380423.754238,2,right_wrist,1.0756,-0.0029,-0.0996,-290.22,-149.66,-3.92,-0.5105441832888099,-0.3198531897252168,0.794550106793168,-0.07568818750328023,156.174499822212,-59.2856175101699,-122.45301723305498,14
1767380423.806512,1,left_wrist,0.8159,-0.1952,-0.4441,37.87,42.49,-14.14,-0.4451296027744317,-0.2232752523689713,0.8349943122563925,-0.2340775446575829,-158.75246562516716,-57.98278279672426,-161.9267331463292,14
1767380423.806512,2,right_wrist,0.9101,0.0859,-0.2313,83.72,41.58,-4.06,-0.5153600183161179,-0.33681797803331454,0.7800695134936252,-0.11157623094807927,158.69804063183926,-61.54541334674168,-120.51292924420827,14
1767380423.857298,1,left_wrist,0.7954,-0.2045,-0.4831,27.58,25.62,-5.74,-0.44889615917054226,-0.22647270352793464,0.8282197588995385,-0.24749622988456538,-156.4665791678313,-58.83401163289911,-162.81117895401846,14
1767380423.857298,2,right_wrist,0.9101,0.0859,-0.2313,83.72,41.58,-4.06,-0.5193689494728616,-0.35333477133303126,0.7640506802065964,-0.14709517927630492,161.17458707495243,-63.84386015760617,-118.57105704723634,14
1767380423.924726,1,left_wrist,0.8545,-0.2948,-0.3977,44.31,61.18,-17.78,-0.47900438603724815,-0.23658189874436528,0.7978154893698308,-0.27941769497504476,-150.34246018924503,-63.704933097180245,-165.64744246594688,14
1767380423.924726,2,right_wrist,0.8272,0.019,-0.164,124.6,85.4,14.49,-0.5285950192837305,-0.3688752306290893,0.7359935106978426,-0.2069587447474335,166.5030401681811,-68.55499407374336,-117.5384770041221,14
1767380423.981428,1,left_wrist,0.956,-0.264,-0.3274,12.74,56.77,-9.66,-0.5004346133431257,-0.23435807996015234,0.7813827215266211,-0.28996987882391884,-146.556381624365,-66.63188394166399,-168.94954263184832,14
1767380423.981428,2,right_wrist,1.0136,-0.101,-0.0761,96.95,140.21,14.49,-0.5567726245800554,-0.37106769744387336,0.6940191442528079,-0.26580149706602296,169.49624664156417,-75.94957040580545,-115.52832949379959,14
1767380424.0526762,1,left_wrist,1.0702,-0.344,-0.1513,9.94,52.71,0.07,-0.5190563090563878,-0.22850467969349036,0.7666960113413863,-0.3009042797637545,-141.32383322568825,-68.97642226198766,-173.91730390118917,14
1767380424.0526762,2,right_wrist,1.0238,-0.0239,0.1449,29.54,53.62,6.44,-0.5925851336156129,-0.3672523706269953,0.6293181536908136,-0.3434053248302998,177.19063929901938,-86.45079603314659,-116.82616198825434,14
1767380424.106432,1,left_wrist,0.9604,-0.2118,-0.2528,1.68,59.29,-6.02,-0.5423833365596904,-0.2234996402934959,0.7498458963223791,-0.305940122866458,-136.0489297413347,-71.83503387465845,-179.39222427054085,14
1767380424.106432,2,right_wrist,1.0731,-0.1425,0.0595,16.52,29.12,-9.59,-0.5998463628766821,-0.3670420503782107,0.6171498860961429,-0.3529737841388405,171.49787248373607,-88.19292116329275,-110.27790496407754,14
1767380424.183595,1,left_wrist,0.875,-0.0903,-0.1493,-0.91,105.77,-3.78,-0.5963365318501619,-0.2084789400072026,0.708639111692345,-0.31424493907504397,-114.88774891400988,-77.47505532690587,158.54609181266105,14
1767380424.183595,2,right_wrist,1.0731,-0.1425,0.0595,16.52,29.12,-9.59,-0.6065446601264356,-0.36644906580951564,0.6052566887288228,-0.36260584411790836,102.5048926588061,-89.6715670350538,-40.44021584555446,14
1767380424.2656739,1,left_wrist,1.0487,-0.224,-0.0405,55.79,91.91,-9.59,-0.6222955402955852,-0.21196398761901025,0.6731324128287062,-0.33869201832974766,-88.82895340549804,-78.91875134451274,134.88736423474234,14
1767380424.2656739,2,right_wrist,0.9477,0.0966,0.1576,37.1,40.04,-4.48,-0.6236480601885773,-0.37164046492488,0.571311055839517,-0.3828186768288348,20.210839956172816,-85.66252959742006,44.323180415553004,14
1767380424.330781,1,left_wrist,1.0526,-0.2542,0.0669,47.11,141.19,-7.0,-0.6744901696493436,-0.20597199100721658,0.5947765036490407,-0.3858490127937941,-41.10093464130694,-74.00588212657607,91.0973924002132,14
1767380424.330781,2,right_wrist,0.9477,0.0966,0.1576,37.1,40.04,-4.48,-0.6307580363414403,-0.37632024259950925,0.5504354514663452,-0.3969234036556391,18.823426854239887,-83.2770280095799,47.59642484247687,14
1767380452.4795678,1,left_wrist,0.9609,-0.2469,0.1464,-30.38,-39.34,20.37,-0.45873785822988256,0.6247175594907827,0.23041178877854426,0.5883858902815501,-69.44082062773484,-71.18186592317562,-51.358395703686945,15
1767380452.4795678,2,right_wrist,1.1863,-0.3821,0.3084,-15.54,-72.03,14.56,-0.15595150176119754,0.611081978161614,0.5191489967813194,0.576838161190351,124.99593843689627,-60.102091002805224,114.22359997470764,15
1767380452.5535538,1,left_wrist,0.9926,-0.3162,0.0049,-13.72,-68.88,26.25,-0.45304157731547257,0.6498174629985118,0.2343047641698342,0.5635529003500953,-81.99253551684798,-70.85867040752395,-38.94635717761843,15
1767380452.5535538,2,right_wrist,0.9638,-0.2308,0.1615,-23.52,-61.81,14.7,-0.15516911435775366,0.6453851590431612,0.5130874784988544,0.5441891048559789,135.1130402734394,-59.50278202778593,103.53812951672471,15
1767380452.627705,1,left_wrist,0.9472,-0.2694,-0.0468,-24.15,-45.92,29.4,-0.437553646453191,0.6917927141373834,0.2369024016379019,0.5233038307141872,-100.98745326213859,-68.64633303309608,-20.946412368861758,15
1767380452.627705,2,right_wrist,0.9941,-0.0171,0.0874,31.22,-94.15,29.68,-0.15218214906311567,0.6714855674378541,0.5161467059630667,0.5094509830716497,143.50518428652148,-57.27495943478818,95.50856779727786,15
1767380452.706601,1,left_wrist,0.8979,-0.3006,-0.1815,-8.4,-91.14,51.24,-0.4344297002407627,0.7205870098150012,0.2382383154113669,0.48504402058426654,-111.04915725011303,-64.96215488412376,-10.633179130014957,15
1767380452.706601,2,right_wrist,0.734,-0.1786,-0.0605,7.49,-164.85,-90.3,-0.09750854724193912,0.7071384960141608,0.5548602785814847,0.42729065274362665,151.36358302722965,-45.43987838837826,88.43969123505764,15
1767380452.760117,1,left_wrist,0.9638,-0.3182,-0.2752,5.53,-53.83,42.28,-0.4362367235763753,0.7364080407970746,0.23844010643099497,0.45885404443890326,-115.08177361741187,-62.109141579574676,-6.032305231422633,15
1767380452.760117,2,right_wrist,1.036,-0.3553,0.08,58.73,52.78,28.28,-0.13617745307688306,0.7011417449819141,0.5531163393610976,0.4288569340106196,154.52981303813334,-48.7659169488018,88.2361698437032,15
1767380452.825769,1,left_wrist,0.6217,-0.6359,-0.4187,-18.13,-4.13,20.51,-0.43521608814195695,0.759345080211855,0.2279304229017581,0.4266494205976254,-118.86342243133632,-57.81646371327744,-2.713271629769766,15
1767380452.825769,2,right_wrist,1.0585,-0.019,-0.6788,64.96,86.17,70.98,-0.19400616764100626,0.6981411451207625,0.5356234641309762,0.4336681370345911,160.5544575525889,-54.42470139603999,85.06187423009118,15
1767380452.8836532,1,left_wrist,0.9667,-0.5207,-0.5104,5.95,21.35,7.14,-0.43836487232212834,0.7571233721456327,0.22340418390900726,0.4297569181255613,-117.56691096264323,-57.84625766762447,-4.147620701437201,15
1767380452.8836532,2,right_wrist,1.2473,-0.6695,0.388,-139.37,-47.67,-9.38,-0.14040158445468143,0.7152654974355429,0.513732225525384,0.45250620296039706,154.39443704424409,-52.33357848323339,84.11678490530323,15
1767380452.9561422,1,left_wrist,0.6251,-0.9599,-0.324,34.02,-69.23,30.73,-0.450645370613029,0.7672020678153222,0.22992734264988518,0.3942754800731359,-119.01231765169027,-54.31235226145709,-0.2509789663184201,15
1767380452.9561422,2,right_wrist,1.2146,-0.3274,-0.4826,-73.57,45.71,-5.88,-0.11961238763370836,0.7034243085475169,0.4774007990155219,0.5128114623995377,144.19161179820784,-56.6840190768018,88.09842561505388,15
1767380453.025165,1,left_wrist,0.5168,-0.4558,-0.2806,-8.54,-21.77,14.56,-0.4470968369204722,0.7797073268591397,0.21339748812596707,0.38291306444075673,-119.90198443434096,-51.993316107725555,-0.8954805529329191,15
1767380453.025165,2,right_wrist,0.6193,-0.4787,0.0512,-39.13,-11.83,13.09,-0.11072881864794021,0.7111962233376578,0.4634821408239252,0.516839787331002,143.91351341246732,-56.907549893594286,86.2066374917213,15
1767380453.0761511,1,left_wrist,0.7671,-0.4148,-0.3831,27.86,-23.17,22.12,-0.45459683863009415,0.7814536041230142,0.21709542539779048,0.3681596870680271,-119.8192072055867,-50.60430086000582,0.4127050199276199,15
1767380453.0761511,2,right_wrist,0.6193,-0.4787,0.0512,-39.13,-11.83,13.09,-0.10180758637250936,0.7187304398965243,0.4493881932354907,0.5206841863391802,143.6496454266436,-57.13646646341718,84.30195296679697,15
1767380453.131058,1,left_wrist,0.7671,-0.4148,-0.3831,27.86,-23.17,22.12,-0.4618333895080752,0.7827171170053026,0.22095137636313386,0.3538987487483208,-119.6816167248123,-49.296162842007796,1.6695457182721605,15
1767380453.131058,2,right_wrist,0.7886,-0.4236,-0.1254,-19.32,11.69,19.11,-0.10560255551704437,0.7212982543383591,0.43650185082800325,0.5272978880864524,143.85143117570405,-58.52515890474286,83.08675729580118,15
1767380453.208739,1,left_wrist,0.7974,-0.6534,-0.2396,47.88,-14.56,26.18,-0.4835992856076459,0.7758960877211495,0.22091644219696657,0.3395775575414596,-116.67435279026994,-47.78458635677643,1.226086228571544,15
1767380453.208739,2,right_wrist,0.8574,-0.1903,-0.1684,-44.73,-13.93,-11.34,-0.0651078669916439,0.7323406494668825,0.4152907117718894,0.5356974552023004,140.06542747533337,-57.003457167684644,81.43314344380342,15
1767380453.275161,1,left_wrist,0.6002,-0.5973,-0.205,-4.83,6.93,-0.77,-0.49358191265476153,0.7737546491333346,0.21272506814497666,0.3353038678979602,-114.86660492858216,-46.79261140079651,-0.15112507724879617,15
1767380453.275161,2,right_wrist,0.8306,-0.1986,-0.1108,-49.56,13.23,4.55,-0.05586369062676118,0.7316201079439799,0.3996569686985433,0.549441146158793,137.49389915237091,-58.06156465043824,81.65491059886374,15
1767380453.3275871,1,left_wrist,0.6339,-0.7013,-0.2113,1.61,13.44,-8.61,-0.49723469760961997,0.7700050688054096,0.21042520889171507,0.3399574693545124,-113.78001888506857,-47.121592164046156,-1.1806445458918915,15
1767380453.3275871,2,right_wrist,0.8779,-0.1098,-0.1806,-50.26,10.22,0.63,-0.04514945976265497,0.7308020384405145,0.3847532493087921,0.5620096476401946,134.82231076812036,-58.890163615131165,81.96503959226982,15
1767380453.4066381,1,left_wrist,0.5861,-0.569,-0.2738,-3.5,26.39,-17.36,-0.4957680904094241,0.7673161342632527,0.20834433784725837,0.3493316297131972,-113.25209293517474,-47.95991762991706,-2.280197258343908,15
1767380453.4066381,2,right_wrist,0.8247,-0.142,-0.2186,-1.47,31.08,21.84,-0.048223183067426754,0.7264203242795961,0.3592463670958772,0.5838921859528404,131.89408053780727,-62.000331461548534,82.65430554338886,15
1767380453.477602,1,left_wrist,0.5963,-0.4773,-0.2948,17.85,30.38,-23.8,-0.4966486304794867,0.7559288952026505,0.2110834244504839,0.37061493650797056,-111.31859326630695,-50.35260172047608,-4.404615495822945,15
1767380453.477602,2,right_wrist,0.9292,-0.182,-0.2045,-7.21,49.35,22.89,-0.06316647381568925,0.718220191623545,0.3464845103468147,0.6000985227607699,129.8943304150601,-64.92829309534194,84.62962153822531,15
1767380453.5296,1,left_wrist,0.5963,-0.4773,-0.2948,17.85,30.38,-23.8,-0.4992913862794689,0.7471947617296812,0.21554453060325776,0.3820322695242805,-109.81618136502539,-51.82661547426915,-5.513647217279674,15
1767380453.5296,2,right_wrist,1.0214,-0.1757,-0.2586,-3.15,-28.49,-7.98,-0.059550205369054275,0.7257875239078353,0.34633868300760623,0.591384612441678,132.23682684023993,-64.1171162136283,82.0167189029184,15
1767380453.5855281,1,left_wrist,0.8804,-0.7066,-0.2406,5.32,-8.33,-8.96,-0.5011762653863866,0.7473679695206386,0.21812765034055318,0.37773508879221335,-109.96499076035913,-51.559575287242914,-4.8516009053624005,15
1767380453.5855281,2,right_wrist,1.0214,-0.1757,-0.2586,-3.15,-28.49,-7.98,-0.05595056189827776,0.733092592254692,0.34620713298154204,0.582739570371932,134.37889580271664,-63.27115778810451,79.61054578542519,15
1767380453.657336,1,left_wrist,0.752,-0.466,-0.2103,10.01,3.92,-5.46,-0.5009373630207403,0.7438493761543276,0.22377550976739943,0.38167313915572487,-109.79724267719084,-52.37371786542306,-4.64858415045116,15
1767380453.657336,2,right_wrist,0.8965,-0.2006,-0.1547,-24.15,0.42,3.57,-0.05862350883881901,0.7324960373055517,0.3348355459745824,0.5898287859158723,133.8873903505475,-64.60236081296402,79.253460356075,15
1767380453.732573,1,left_wrist,0.7925,-0.6037,-0.1869,-3.71,5.25,-3.29,-0.5113863330662652,0.7376441978467828,0.22092249063479616,0.38152104642828466,-107.60024640067898,-52.07416848668701,-6.003509622530658,15
1767380453.732573,2,right_wrist,0.8965,-0.2006,-0.1547,-24.15,0.42,3.57,-0.05541670875176272,0.7341397016450233,0.32489301960145633,0.5936433379344251,133.51911649639635,-65.18167658254967,78.44691429083468,15
1767380453.806817,1,left_wrist,0.7862,-0.6178,-0.1498,2.8,7.35,-4.2,-0.5152587072047827,0.7338477361490997,0.21916047350864945,0.38463573891405617,-106.41553317257357,-52.22073957927217,-7.005019902012574,15
1767380453.806817,2,right_wrist,0.6915,-0.1781,-0.1347,4.76,-15.96,-2.24,-0.0485851882242731,0.7409724036707348,0.318562688455742,0.5891665214584714,134.77933741206326,-64.69793189607095,76.08203687539448,15
1767380453.878273,1,left_wrist,0.8145,-0.5915,-0.163,0.98,-0.28,-1.82,-0.5172249702767096,0.7288135414862384,0.2207736980311503,0.39059970062225396,-105.3690023655306,-52.91369067727985,-7.83944321569823,15
1767380453.878273,2,right_wrist,0.814,-0.7745,0.0664,-38.64,27.51,-7.7,-0.04068019352237233,0.7338468706023896,0.30841111107970737,0.6039010506073343,130.5155001666847,-65.70431138754596,78.73535745580674,15
1767380453.958646,1,left_wrist,0.8145,-0.5915,-0.163,0.98,-0.28,-1.82,-0.5148508325196192,0.7275606727214322,0.224693855033955,0.39382325892838255,-105.59118368322432,-53.555076002142236,-7.599684618598209,15
1767380453.958646,2,right_wrist,1.1805,-0.9189,0.0015,219.38,-29.12,58.52,-0.20825744831609147,0.7426654463075955,0.37656713631690314,0.5131023893217582,168.7239973111768,-66.77634976467091,61.21980629207067,15
1767380379.1296692,1,left_wrist,0.876,-0.3684,0.1576,40.88,4.41,-23.03,-0.7332658112374075,0.08894739596235081,0.667923027215107,-0.09104087289602929,-69.96151805611726,-74.43668327226266,70.13272596223999,0
1767380379.1296692,2,right_wrist,0.9882,-0.0654,0.1703,3.71,-8.75,-6.37,-0.7304900472812932,-0.11595069142591048,0.655090878103967,-0.15425845003046282,-15.898537852409966,-83.14312328212003,37.96861791985165,0
1767380379.2025,1,left_wrist,0.8935,-0.246,0.1181,7.98,10.36,-18.62,-0.739480618927792,0.0819262983390557,0.6623400628818393,-0.08810299071150071,-65.34423379228113,-74.82687619028492,65.84914304159226,0
1767380379.2025,2,right_wrist,1.0067,-0.0415,0.1152,24.08,-2.8,-6.02,-0.7262935341109154,-0.12805720895833467,0.6535662811362055,-0.1701474939699919,-17.864969458604627,-83.18725938690896,42.254532524197444,0
1767380379.256125,1,left_wrist,0.8067,-0.5817,0.4104,89.11,46.97,-13.65,-0.7574181554294608,0.05284056947796289,0.6414464809513947,-0.10987276331352436,-52.18647866145394,-73.75513756032932,56.8558300383026,0
1767380379.256125,2,right_wrist,1.015,-0.0834,0.1103,31.99,-8.19,-6.79,-0.7214871260745344,-0.13718140111755256,0.6544645873700173,-0.1797601011757807,-19.45590318262623,-83.56264489559608,45.39881149206941,0
1767380379.324577,1,left_wrist,0.731,-0.0151,0.2913,101.5,30.87,3.36,-0.7692826132526911,0.03634355873692068,0.6270794006438265,-0.11685389156389274,-43.831592416613816,-73.00079008276029,50.43131478762281,0
1767380379.324577,2,right_wrist,1.015,-0.0834,0.1103,31.99,-8.19,-6.79,-0.717040853285455,-0.14615978779806837,0.6546529801002431,-0.1895236312346324,-21.050681628586098,-83.8406465900926,48.553209661459725,0
1767380379.376684,1,left_wrist,1.0848,-0.1122,0.1147,17.71,23.31,-13.79,-0.7749701006040783,0.025676209052216667,0.6209949234892337,-0.11457478107774158,-38.68555346983725,-73.06214395159945,45.97319188680697,0
1767380379.376684,2,right_wrist,1.0331,-0.0224,-0.0015,55.86,-48.65,1.75,-0.696854750849554,-0.1680044848495602,0.6674310225370135,-0.20175177680515366,-33.75101670825073,-86.37149341290072,64.07966981529964,0
1767380379.42869,1,left_wrist,1.078,-0.0434,0.0381,66.64,-4.27,2.59,-0.772317608914023,0.001819380394220261,0.6214539894642817,-0.13159460397461553,-36.167936010057346,-73.62577213397978,46.80697588643756,0
1767380379.42869,2,right_wrist,1.0809,0.1142,-0.0137,31.5,-29.47,-7.91,-0.686025931337477,-0.18577671409342814,0.6735045011159767,-0.20309387240809407,-38.16834895164232,-88.26836845323913,70.09290492911761,0
1767380379.509043,1,left_wrist,1.078,-0.0434,0.0381,66.64,-4.27,2.59,-0.7689225490813916,-0.02189803525478998,0.6214314753790239,-0.1486657693431971,-33.684968334187396,-74.19123403656826,47.67277239560758,0
1767380379.509043,2,right_wrist,1.137,-0.0752,-0.305,57.68,-34.3,-5.32,-0.6509544502676187,-0.22948126885897044,0.6870060160579312,-0.22719899828095402,-164.7762262240217,-87.07263077093043,-157.53159186479562,0
1767380379.576736,1,left_wrist,0.9941,-0.1635,0.184,-15.89,-10.15,-1.12,-0.7637137086786013,-0.006284357659880851,0.6312867420874588,-0.1348292523519334,-38.37156064719895,-75.00298491476195,49.92396492715355,0
1767380379.576736,2,right_wrist,0.7383,0.3684,0.3211,-21.35,-11.2,-16.87,-0.6535971716852198,-0.23070356147379958,0.6884324793449829,-0.21365234674888503,172.23922645989353,-86.85695191655125,-135.59905085958334,0
1767380379.6270232,1,left_wrist,0.9941,-0.1635,0.184,-15.89,-10.15,-1.12,-0.7587997642792168,-0.002142502178683477,0.6383158298319139,-0.12950377909626554,-41.20653949628645,-75.75740775197713,51.97239308956143,0
1767380379.6270232,2,right_wrist,0.8852,0.3143,0.1537,28.98,36.61,-21.98,-0.6658032682882943,-0.24381229949724115,0.670653967762738,-0.21791013302411985,119.66605538754027,-87.86457791083994,-81.5477964014324,0
1767380379.7029681,1,left_wrist,0.9277,-0.0991,0.1298,11.06,5.81,10.36,-0.7584640529834333,-0.005166058601174699,0.6378510194413021,-0.1336101387177073,-41.12510279937036,-75.6858297114226,52.4767870225425,0
1767380379.7029681,2,right_wrist,1.0702,0.0654,-0.0717,40.74,15.4,-25.06,-0.6772504125482702,-0.27552449935917966,0.6433756655142345,-0.22690500651194737,75.96306217576819,-85.19711626723036,-34.304630849902175,0
1767380379.777663,1,left_wrist,0.9911,-0.0112,0.184,0.98,1.89,9.03,-0.7585862413737758,-0.009719274013455837,0.6367488224692911,-0.13785277362109866,-40.40560142685953,-75.63558965307861,52.480035022123126,0
1767380379.777663,2,right_wrist,0.9858,-0.1157,-0.2391,-20.02,1.26,15.89,-0.6755879226992424,-0.2643090488056075,0.6497461526444208,-0.22704982392895712,75.5980283261078,-86.32524339193583,-34.914168651628096,0
1767380379.851707,1,left_wrist,0.9858,-0.3192,0.3753,-16.66,8.26,6.09,-0.7620771236500109,9.852536654695922e-06,0.6327858037583783,-0.1371881338677531,-41.08273993596872,-74.67896269841533,52.31616389207982,0
1767380379.851707,2,right_wrist,1.0668,0.1103,0.1381,-35.98,-52.78,2.52,-0.6647128155796019,-0.24722710795940345,0.6726541680200412,-0.211120818820726,121.32216844399746,-87.00409290255456,-83.48651975689275,0
1767380379.905431,1,left_wrist,0.9858,-0.3192,0.3753,-16.66,8.26,6.09,-0.765503579026828,0.009696453500663518,0.6287130008571227,-0.13649253400775505,-41.70579593583779,-73.72284385843064,52.09865774518039,0
1767380379.905431,2,right_wrist,1.0668,0.1103,0.1381,-35.98,-52.78,2.52,-0.6551288929510298,-0.24082780331772183,0.6889453284235905,-0.1953520852543681,144.61437239395283,-85.40681296620073,-108.65573425292199,0
1767380379.975508,1,left_wrist,1.0209,-0.2596,0.1249,-55.02,-8.89,14.35,-0.7527688403371052,0.05600422858447115,0.6453226278484163,-0.11730859041435313,-55.6922026303241,-73.41914427291951,60.71366613596776,0
1767380379.975508,2,right_wrist,0.9526,-0.1508,0.3514,-165.2,69.65,-0.91,-0.6932335776317889,-0.18557289280799966,0.6792384611421546,-0.1537043304657968,80.17650118857951,-87.17942561958637,-52.40602708379001,0
1767380380.051599,1,left_wrist,0.894,-0.3357,0.1718,-33.53,-37.8,8.47,-0.7406444960003791,0.07109565453208738,0.6582030084538149,-0.11471677346118944,-64.28792646004266,-73.47125853943118,67.86014766860006,0
1767380380.051599,2,right_wrist,1.0555,0.0742,-0.082,22.89,26.39,6.51,-0.6994107624903428,-0.19448864502929714,0.6656229558612038,-0.17304575377032388,47.47008012888524,-86.75699706365177,-17.33112185837547,0
1767380380.108876,1,left_wrist,0.7671,-0.2967,0.3377,-31.08,-1.96,1.33,-0.7409699060770554,0.0821034958884958,0.6577954874213381,-0.10736717831428608,-65.26460852054021,-73.17293893659638,67.33406922728238,0
1767380380.108876,2,right_wrist,1.1414,-0.103,-0.2425,16.24,2.03,10.29,-0.6951296274164899,-0.19571516148254625,0.6674379142464167,-0.18170582621387124,42.31734164598342,-87.48518245452327,-11.352676923254732,0
1767380380.175597,1,left_wrist,0.794,-0.2713,0.1,7.84,17.64,-16.03,-0.7536514578233258,0.07117180685108268,0.6444640956975524,-0.10775009692368838,-57.10764486538795,-72.95309224190854,60.104970316122184,0
1767380380.175597,2,right_wrist,0.9379,-0.1386,0.2786,-32.41,-20.86,-17.85,-0.694787077742768,-0.19072327981256368,0.6730933087151557,-0.16685606042960402,62.38110821318494,-87.38635244394723,-33.08124903159734,0
1767380380.230832,1,left_wrist,0.934,-0.5422,0.3797,-18.13,42.21,-21.07,-0.7670026185641109,0.07549475572078233,0.6298069277468357,-0.09669932128277045,-50.584179142760604,-72.08735392113235,52.32362715919339,0
1767380380.230832,2,right_wrist,0.937,-0.1425,0.1893,37.73,11.62,-6.3,-0.6967582881037098,-0.20070346689920535,0.6648876025695615,-0.17936131768786734,49.403740061202484,-86.89164315675853,-18.212607447926082,0
1767380380.303008,1,left_wrist,1.4752,-0.2059,0.06,12.32,-41.93,-0.07,-0.75382712945319,0.06814665055890981,0.6458778311458193,-0.09971218657886205,-55.96321240252536,-73.77469207614844,58.54699332700642,0
1767380380.303008,2,right_wrist,1.1473,-0.1269,0.0,19.88,-8.75,-6.86,-0.6861503156743218,-0.21182277718441306,0.6691017177845578,-0.19139421784281965,66.72229434253774,-87.84387480827783,-33.58451837938159,0
1767380380.375753,1,left_wrist,1.0365,-0.2606,0.242,36.33,24.5,-14.14,-0.7731742723990045,0.03998766876357154,0.6221640928811683,-0.11625133279441613,-42.846528320095935,-72.32334886971749,49.10342328915087,0
1767380380.375753,2,right_wrist,0.9677,0.0512,0.2235,26.39,-20.09,-9.59,-0.6808835341989631,-0.22369781689862178,0.6696325147411841,-0.19480553065279735,85.94080963672191,-87.48745925354798,-51.506062353460635,0
1767380380.451227,1,left_wrist,0.9662,-0.3084,0.0893,38.43,-2.24,4.62,-0.7706540953022066,0.030162784264759858,0.6232587169661135,-0.12934853522591275,-43.190627524599215,-72.33192536322426,51.33082480074776,0
1767380380.451227,2,right_wrist,0.9775,0.0151,0.1464,12.18,1.12,-6.58,-0.6799627438657615,-0.23559440528971506,0.663646854826613,-0.20425179369952867,80.62652011998769,-87.1365549908022,-44.37360021556577,0
1767380380.534521,1,left_wrist,0.9306,-0.0747,0.1869,-12.32,-1.89,-3.15,-0.7705362779161615,0.02403396396191161,0.6258225455319281,-0.1185004409077157,-40.695032888273374,-73.48430104012503,48.43558724929321,0
1767380380.534521,2,right_wrist,0.9775,0.0151,0.1464,12.18,1.12,-6.58,-0.6817176189851647,-0.2396861229287483,0.659463227941838,-0.20717118871386084,74.03800201122193,-86.80694292892746,-37.18371285168051,0
1767380380.600497,1,left_wrist,0.9404,-0.1537,0.2987,20.3,1.82,3.08,-0.7732777892106918,0.017164031968283474,0.621442636887549,-0.12472331689891299,-38.65038786243431,-73.10009513632393,47.47010426696453,0
1767380380.600497,2,right_wrist,1.0028,0.1464,0.0273,1.75,-2.52,5.53,-0.6820633213836054,-0.24371892711828916,0.656886003700556,-0.209502955420175,72.35353685974059,-86.55731683831316,-34.9525739786502,0
1767380380.6522439,1,left_wrist,0.9623,-0.1566,0.2201,22.33,5.67,8.4,-0.7741657390552673,0.008582178454879897,0.6193139812276666,-0.13055246968907944,-36.93745468308203,-73.07024421241282,46.942074810586725,0
1767380380.6522439,2,right_wrist,1.0028,0.1464,0.0273,1.75,-2.52,5.53,-0.6819913725675556,-0.24605743635538502,0.6565081157151964,-0.20818405260182513,74.81068103260293,-86.30052578569878,-37.31972916155413,0
1767380380.709599,1,left_wrist,0.9374,-0.2035,0.1913,11.34,-0.98,8.05,-0.7713119412887202,0.008963164292215922,0.6213404960462678,-0.13759919652481434,-39.064029061694875,-72.94585593036007,49.61863348154647,0
1767380380.709599,2,right_wrist,0.9604,-0.0185,0.1762,-2.73,2.31,5.67,-0.6842486800840119,-0.24154806211064117,0.6549184555534112,-0.21104524175971348,64.79624540703585,-86.57064890888826,-27.44920917051584,0
1767380380.774805,1,left_wrist,1.0307,-0.1923,0.1425,-52.5,5.18,-4.83,-0.7734984036142925,0.046946952151181984,0.6235256095962654,-0.1034988766483072,-42.77213339982391,-72.72186511400551,47.40830064842257,0
1767380380.774805,2,right_wrist,0.978,-0.0346,0.1464,-27.44,15.05,4.83,-0.6925103995855507,-0.2282935996380233,0.6518671898028847,-0.2082799694849813,44.20737348199302,-86.32849078859851,-8.225969678436293,0
1767380380.826731,1,left_wrist,1.0263,-0.3343,0.1484,-41.09,-22.19,5.25,-0.7642405819519259,0.06403947744871451,0.6344526134027656,-0.09646325503671253,-49.7118547559827,-73.21476648079157,52.36778094865165,0
1767380380.826731,2,right_wrist,1.0268,-0.0361,0.0649,-88.76,1.12,8.89,-0.7000512044340129,-0.19516634089268184,0.6603928920959359,-0.18899639843715269,24.61168340121131,-86.74745370344465,6.925595192910525,0
1767380380.903309,1,left_wrist,1.0365,-0.3406,0.427,-37.24,-26.67,11.41,-0.75711187357958,0.07942628697772959,0.6418971060439885,-0.09187590039886416,-55.566078427750334,-73.21221954433152,56.58578807629868,0
1767380380.903309,2,right_wrist,1.0263,-0.1044,0.2396,-12.81,31.78,3.99,-0.7179921843090895,-0.15237155657913673,0.6573253098269615,-0.17086125680680933,-3.724008630976327,-84.85929564175674,30.17573263667426,0
1767380380.954724,1,left_wrist,0.9062,-0.2562,0.2967,-2.31,-14.35,14.14,-0.7545502193364406,0.08382223404118641,0.6435757585718814,-0.09714958856475477,-57.93664612038081,-72.73337674152641,59.028934013554725,0
