timestamp,node_id,node_name,ax,ay,az,gx,gy,gz,qw,qx,qy,qz,roll,pitch,yaw,rep_number
1767381230.0231822,1,left_wrist,0.0459,-0.0102,-0.9882,0.21,-1.12,-1.05,-0.02106197241445099,0.5741417358852502,0.8184351902756453,0.009027721260260036,-179.46041599145886,-2.5701250159046065,109.8876892940368,1
1767381230.0231822,2,right_wrist,-0.002,0.0068,-0.9682,1.12,-2.59,-0.63,0.004752081260959618,0.6962633272453604,0.7177690079322183,0.0015646433805842465,179.49214645513936,0.26602444031252737,91.74148235604171,1
1767381230.079284,1,left_wrist,0.0444,-0.0083,-0.9906,0.28,-0.98,-1.05,-0.020560064364946472,0.5733257134719846,0.8190194502435315,0.009058153671282904,-179.4988781713456,-2.525540815134297,110.00377722894073,1
1767381230.079284,2,right_wrist,-0.0024,0.0059,-0.9658,1.05,-2.59,-0.63,0.00029118770862616875,0.6960822782848209,0.7179619237257895,-0.0002305374044237063,179.99574022661884,0.04234555999916341,91.77294344186895,1
1767381230.166143,1,left_wrist,0.0468,-0.0088,-0.9897,0.21,-1.26,-1.12,-0.02437500158520746,0.5728453101434761,0.8192223287596342,0.011352797275899738,-179.46494258667514,-3.034880081819763,110.05910132597629,1
1767381230.166143,2,right_wrist,-0.0044,0.0078,-0.9677,1.12,-2.52,-0.63,0.0032498911732708247,0.6956712681266515,0.7183423360053129,-0.003900411881939502,-179.93800565184608,0.5784610151687802,91.83741722852548,1
1767381230.219533,1,left_wrist,0.0468,-0.0088,-0.9897,0.21,-1.26,-1.12,-0.019671193421804758,0.5725274288284463,0.8196060912533021,0.008440531318247822,-179.5017258644182,-2.401977154372555,110.1178947075084,1
1767381230.219533,2,right_wrist,-0.0024,0.0073,-0.9677,1.05,-2.59,-0.63,0.00397209561319268,0.6954907833642456,0.7185240373371597,-2.192111936977148e-05,179.68523256209838,0.328798461195155,91.86554337211702,1
1767381230.2697442,1,left_wrist,0.0449,-0.0083,-0.9892,0.21,-1.12,-1.05,-0.023143491067854082,0.572064312633256,0.8198042101616316,0.01130743268367498,-179.54451284733685,-2.916664751956549,110.1732702848913,1
1767381230.2697442,2,right_wrist,-0.0049,0.0068,-0.9697,1.05,-2.45,-0.56,0.006112598235069492,0.695319668242031,0.7186655445232893,0.003609738723595228,179.2156589447958,0.21577543104432537,91.89033726614765,1
1767381230.333086,1,left_wrist,0.0449,-0.0107,-0.9877,0.28,-1.26,-1.05,-0.023370366753740525,0.5713522737169027,0.8203260426245557,0.008694197390031197,-179.28631704685034,-2.7671749075959373,110.26879243850365,1
1767381230.333086,2,right_wrist,-0.001,0.0063,-0.9692,1.05,-2.45,-0.56,0.0020364639763506952,0.6951683710191658,0.7188439455528428,0.0004131477386141471,179.80374107801134,0.1348391593301439,91.91825837117885,1
1767381230.4172218,1,left_wrist,0.0449,-0.0107,-0.9877,0.28,-1.26,-1.05,-0.0180149884394248,0.5710122858258331,0.8207065779614925,0.00781936814717145,-179.5562691186604,-2.2064299306002133,110.33438794423903,1
1767381230.4172218,2,right_wrist,-0.0015,0.0054,-0.9692,0.98,-2.45,-0.7,0.002777800562503239,0.6947865799403801,0.7192104696275146,0.00043879033144039205,179.74267530649706,0.1939990229667074,91.97870095212679,1
1767381230.47683,1,left_wrist,0.0444,-0.0093,-0.9902,0.21,-1.12,-1.19,-0.017394660600713267,0.5702152170713656,0.8212815242348116,0.006977818669608512,-179.51977053111378,-2.0934544341808676,110.44678195115077,1
1767381230.47683,2,right_wrist,-0.0029,0.0059,-0.9697,1.05,-2.52,-0.56,0.005755914503802638,0.6946075648214876,0.7193564624447614,0.003671550074074054,179.2391712078528,0.18223157823691574,92.00430444522814,1
1767381230.52863,1,left_wrist,0.0459,-0.0068,-0.9906,0.35,-1.05,-0.98,-0.020719374098999235,0.5697805037268465,0.821474292548903,0.010043494959728356,-179.5921989059047,-2.6070577294024972,110.49980788652925,1
1767381230.52863,2,right_wrist,-0.0024,0.0059,-0.9692,0.91,-2.59,-0.56,0.002486977687189369,0.6944481654307596,0.7195381498904961,-0.0006413454590365803,179.85497079592494,0.2560965434183157,92.03279226367854,1
1767381230.620103,1,left_wrist,0.0478,-0.0083,-0.9897,0.35,-1.12,-1.05,-0.0253173833723577,0.5693623077361981,0.8216294085466328,0.010521769803521907,-179.33786726539563,-3.0716317610270747,110.54086046339192,1
1767381230.620103,2,right_wrist,-0.0024,0.0054,-0.9677,1.05,-2.52,-0.63,0.0020427824364593326,0.6940929869143797,0.7198824362572628,-0.00017471262165857476,179.85193436709162,0.1824105898372329,92.08956411627354,1
1767381230.676738,1,left_wrist,0.0444,-0.0078,-0.9906,0.21,-1.26,-1.12,-0.023791111806542888,0.5685315699666165,0.8222372347454803,0.011478969832208199,-179.53095580901987,-2.9908335128861854,110.664326575709,1
1767381230.676738,2,right_wrist,-0.001,0.0073,-0.9697,0.98,-2.59,-0.56,0.0043046105147948625,0.6939166881150369,0.7200343164198111,0.0034181079020453925,179.37566970370474,0.08337514889124571,92.11596945500276,1
1767381230.734632,1,left_wrist,0.0444,-0.0098,-0.9897,0.14,-1.19,-1.12,-0.02003683550643611,0.5682358923575278,0.8225879989341447,0.007448480989547246,-179.39687781970804,-2.374392667471956,110.71481294223229,1
1767381230.734632,2,right_wrist,-0.0034,0.0063,-0.9687,1.05,-2.45,-0.63,0.003139663179709326,0.6937175780908934,0.7202363317157295,-0.002385548048754868,179.94729987682592,0.44876760571603885,92.14871025840296,1
1767381230.8222451,1,left_wrist,0.0464,-0.0083,-0.9906,0.28,-1.19,-1.05,-0.022436326207908627,0.567753791884987,0.8228160370795224,0.011225515189118816,-179.598226926777,-2.8469722906514106,110.77765294030877,1
1767381230.8222451,2,right_wrist,-0.0005,0.0068,-0.9687,0.98,-2.45,-0.63,0.00035136375175974716,0.6933758949659378,0.720570924392783,0.002699582084064656,179.74917214359243,-0.18548310762177664,92.20412158399682,1
1767381230.877795,1,left_wrist,0.0444,-0.0083,-0.9911,0.35,-1.12,-1.12,-0.02180372274444773,0.5669532022164675,0.8233952574566619,0.010436195132998238,-179.56765584802565,-2.7363309691637405,110.89054945234734,1
1767381230.877795,2,right_wrist,-0.002,0.0063,-0.9692,1.05,-2.59,-0.56,0.005482009234626316,0.6931836827258205,0.720740066464304,-0.0002935480391141127,179.58877418605712,0.4760860123946047,92.23131803304682,1
1767381230.969604,1,left_wrist,0.0454,-0.0073,-0.9916,0.14,-1.12,-1.12,-0.01707824146568577,0.5666209204500953,0.8237658436364026,0.007674700953954229,-179.6153120433564,-2.110923796831544,110.94924248042079,1
1767381230.969604,2,right_wrist,-0.0029,0.0059,-0.9687,0.98,-2.52,-0.56,0.006415766824705604,0.6928116121352507,0.7210857501082926,-0.0024998034656693252,179.69718366109478,0.7286169379442786,92.2892916188135,1
1767381231.020596,1,left_wrist,0.0449,-0.0083,-0.9872,0.42,-1.19,-1.12,-0.02133411584611801,0.5661612943983322,0.8239667444415371,0.00922216247331005,-179.48611182286393,-2.613574738811384,111.00106378859023,1
1767381231.020596,2,right_wrist,0.001,0.0059,-0.9682,0.98,-2.52,-0.63,0.0035159380303246657,0.6926404226180677,0.7212744786110828,9.818117121260728e-05,179.71281780835858,0.2828076295863203,92.31963785698001,1
1767381231.0706491,1,left_wrist,0.0464,-0.0068,-0.9897,0.21,-1.12,-1.12,-0.020624866636058208,0.5656426491802502,0.8242758897670373,0.013865996298576464,-179.9728199420653,-2.8480601160418324,111.08117765208031,1
1767381231.0706491,2,right_wrist,-0.001,0.0078,-0.9687,1.05,-2.45,-0.56,0.003251928905312731,0.6924746608616437,0.7214239193375278,0.003974623331394338,179.41336480366544,-0.046559317267487986,92.34614722312932,1
1767381231.125395,1,left_wrist,0.0454,-0.0083,-0.9906,0.28,-1.12,-1.05,-0.021980644443335556,0.5648887816367273,0.8247717887001053,0.013000469809144958,-179.8056063202859,-2.9202360305941673,111.18031373534315,1
1767381231.125395,2,right_wrist,-0.0034,0.0073,-0.9682,1.05,-2.59,-0.56,0.004977457396425001,0.6922867024230501,0.7216026615125691,-0.0019863192248237155,179.76937313543624,0.5691683188869907,92.37448602567325,1
1767381231.177472,1,left_wrist,0.0459,-0.0083,-0.9906,0.28,-1.12,-1.05,-0.02088271229642401,0.5646334633304491,0.8250416633420193,0.0076953339395558875,-179.37578678841007,-2.4729833301547863,111.21341932151262,1
1767381231.177472,2,right_wrist,-0.0005,0.0068,-0.9687,1.05,-2.45,-0.56,0.003041723204732665,0.6921320325962642,0.7217632702453497,0.0013338286426069982,179.64843174807174,0.14578566527712652,92.40071548514102,1
1767381231.2313569,1,left_wrist,0.0454,-0.0088,-0.9892,0.21,-1.19,-1.19,-0.022138374406990617,0.5640903436394117,0.8253281559374985,0.012058673566952257,-179.70906513667657,-2.874429093142338,111.28951751719373,1
1767381231.2313569,2,right_wrist,-0.0024,0.0068,-0.9677,1.05,-2.52,-0.63,0.006710072641149243,0.6919242779537282,0.721927308749281,0.004090157134243959,179.12956112964017,0.23080013197770025,92.42960392992019,1
1767381231.32977,1,left_wrist,0.0444,-0.0093,-0.9902,0.28,-1.12,-1.12,-0.020350413550708362,0.5638054740998908,0.825627929095776,0.006911638035444514,-179.33854205289666,-2.372573052845767,111.32946406015095,1
1767381231.32977,2,right_wrist,-0.0029,0.0068,-0.9672,0.98,-2.52,-0.63,0.004363340147105011,0.6915768839768663,0.7222803106467306,0.0036779972363964416,179.3497781404001,0.06966444388434322,92.48769234491901,1
1767381231.3813329,1,left_wrist,0.0444,-0.0088,-0.9916,0.28,-1.12,-1.12,-0.01933157989851178,0.5630461631730106,0.8261749426675803,0.006346043097820209,-179.3530086041858,-2.2401919424932903,111.43773785202605,1
1767381231.3813329,2,right_wrist,-0.0024,0.0073,-0.9677,0.98,-2.59,-0.56,0.002741925824905972,0.6914040327233912,0.72246053051434,-0.0019306023776564183,179.94258898089836,0.37996083033208855,92.51648654680932,1
1767381231.470182,1,left_wrist,0.0444,-0.0088,-0.9916,0.28,-1.12,-1.12,-0.021681486063843194,0.5625397629441427,0.8264230616095048,0.01019075604573381,-179.56694838389427,-2.7111920548261934,111.50412266272802,1
1767381231.470182,2,right_wrist,-0.0029,0.0063,-0.9692,1.05,-2.52,-0.63,0.0008735478420711876,0.6910411257442836,0.7228100432902864,-0.0026534435993544737,-179.8493928084493,0.2824748154168646,92.57478458850991,1
1767381231.521488,1,left_wrist,0.0449,-0.0098,-0.9916,0.35,-1.05,-1.05,-0.020732759203940826,0.5622739612892755,0.8266767809059565,0.004862618926375566,-179.1240604675628,-2.2779256176941733,111.53850371601,1
1767381231.521488,2,right_wrist,-0.0044,0.0049,-0.9682,1.05,-2.45,-0.63,0.004598780305348458,0.6908462547323645,0.7229870676985585,5.90136283010048e-05,179.63103718759683,0.3763316238129431,92.60336092427805,1
1767381231.583644,1,left_wrist,0.0464,-0.0068,-0.9911,0.35,-1.12,-1.05,-0.02355633049848399,0.5613105493354767,0.8271715492213305,0.012759100945418505,-179.69378134854975,-3.0549621990761993,111.67096843792666,1
1767381231.583644,2,right_wrist,-0.0005,0.0068,-0.9701,1.12,-2.52,-0.56,0.0017809696823211396,0.6906896508211843,0.7231439831933607,0.0027228600297951864,179.63340541645687,-0.06792459031579119,92.63018694586164,1
1767381231.677835,1,left_wrist,0.0464,-0.0068,-0.9911,0.35,-1.12,-1.05,-0.019840671524275065,0.5610325204151011,0.827510165839844,0.008705413365185417,-179.54953442422567,-2.4418117310300764,111.71769604999295,1
1767381231.677835,2,right_wrist,-0.0029,0.0073,-0.9692,0.98,-2.52,-0.63,0.0035622906214861387,0.690321852523989,0.7234923571870806,0.0013634901017898768,179.6051578872627,0.187477055495246,92.68737526726252,1
1767381231.740554,1,left_wrist,0.0449,-0.0078,-0.9897,0.21,-1.05,-1.05,-0.019114207123774422,0.5602758100499867,0.8280453470945639,0.008158854938270163,-179.54660000035383,-2.3381608019887374,111.82425384345079,1
1767381231.740554,2,right_wrist,-0.0034,0.0059,-0.9682,1.12,-2.52,-0.56,0.001755365016299924,0.690136971367971,0.7236644115233811,-0.004207010722878443,-179.78994340321933,0.4782773562434371,92.71783663997292,1
1767381231.821461,1,left_wrist,0.0444,-0.0107,-0.9906,0.28,-1.19,-1.12,-0.023741256390238465,0.5598503609675601,0.8282185290892362,0.007615388550007578,-179.1987089590999,-2.7428139845618205,111.86583866678546,1
1767381231.821461,2,right_wrist,-0.0015,0.0073,-0.9687,1.05,-2.52,-0.63,0.0032963605535708453,0.6897853771772319,0.7239981518674471,0.003455941562848627,179.45271653107437,0.0003095111411168982,92.77250936299797,1
1767381231.878516,1,left_wrist,0.0449,-0.0098,-0.9892,0.21,-1.12,-1.05,-0.022881102219049567,0.5590971991780903,0.8287589673735869,0.006734317361262405,-179.17272374708014,-2.6053411857765716,111.97242436967727,1
1767381231.878516,2,right_wrist,-0.0005,0.0073,-0.9682,1.05,-2.52,-0.63,0.0013256451048300007,0.6895917722216034,0.7241943531243865,-0.001992298189442866,-179.93941968271935,0.26744588290253996,92.80422338762347,1
1767381231.937686,1,left_wrist,0.0454,-0.0088,-0.9916,0.21,-1.05,-1.05,-0.0199643958764959,0.5586330296928025,0.8291057064225188,0.010690585163749607,-179.73741571063172,-2.582015314430085,112.05165145888962,1
1767381231.937686,2,right_wrist,-0.001,0.0068,-0.9677,1.05,-2.59,-0.63,0.0034876342471840717,0.689396819139191,0.7243737030373875,0.0016126115546055975,179.59061683615735,0.1621038716746682,92.8338541503863,1
1767381232.019647,1,left_wrist,0.0449,-0.0102,-0.9906,0.28,-1.12,-0.91,-0.022580209215248497,0.5583833062280387,0.8292518324504943,0.006294112736313902,-179.15241242536047,-2.5492664613016016,112.07180739652549,1
1767381232.019647,2,right_wrist,-0.0044,0.0078,-0.9682,1.05,-2.45,-0.56,0.004648212652353654,0.6890239011858142,0.7247236430055719,0.0003146149268573358,179.6068554313054,0.3611826564188737,92.89179495024383,1
1767381232.0770729,1,left_wrist,0.0444,-0.0078,-0.9892,0.35,-1.12,-1.05,-0.023183390903121524,0.5575960103902892,0.829762559358892,0.0065813880942276505,-179.14353095000368,-2.6258066598523024,112.17859056757857,1
1767381232.0770729,2,right_wrist,-0.0024,0.0063,-0.9677,1.05,-2.52,-0.63,0.0012058792307639405,0.6888448975648817,0.7249040337183009,0.002322682295301866,179.7118711252736,-0.08317300398331363,92.92235240233994,1
1767381232.128783,1,left_wrist,0.0444,-0.0078,-0.9902,0.14,-1.05,-1.05,-0.019481187885073706,0.5571504355876354,0.8301229055801227,0.009991850394646831,-179.70642534449948,-2.4918620553416724,112.2572611710749,1
1767381232.128783,2,right_wrist,-0.0039,0.0063,-0.9667,0.98,-2.52,-0.63,0.0061088139890000635,0.6886269674805333,0.7250891856035089,-0.001120254905190364,179.6110053096317,0.5959868584048004,92.95283894591883,1
1767381232.2240782,1,left_wrist,0.0444,-0.0078,-0.9902,0.14,-1.05,-1.05,-0.023434455256104447,0.556811032024583,0.8302777267676372,0.007155232779796458,-179.18458970774097,-2.6871507962630057,112.28671418769272,1
1767381232.2240782,2,right_wrist,-0.0044,0.0068,-0.9682,1.12,-2.45,-0.63,0.005421396134306908,0.6882570410974092,0.725435687297111,-0.0039896665979062326,179.90407052325475,0.7653557604955193,93.01230342643467,1
1767381232.2800572,1,left_wrist,0.0468,-0.0098,-0.9892,0.28,-1.12,-1.05,-0.023447511299727768,0.5560072067986523,0.8308031263983129,0.008506783681194502,-179.31512346408218,-2.7753581570065946,112.39931744300875,1
1767381232.2800572,2,right_wrist,-0.002,0.0063,-0.9677,1.05,-2.52,-0.63,0.0039232825598612625,0.6880830354581776,0.725621185736286,-0.0004888550726092794,179.73129692426423,0.36476914885214967,93.0411845467397,1
1767381232.368412,1,left_wrist,0.0468,-0.0098,-0.9892,0.28,-1.12,-1.05,-0.01863510315142901,0.5555931469493459,0.8311807185158656,0.010373097941671091,-179.80139146713236,-2.4360750279581698,112.47519724522775,1
1767381232.368412,2,right_wrist,-0.0029,0.0054,-0.9697,0.98,-2.59,-0.63,0.004321045650859043,0.6876869163227092,0.7259888290268495,-0.0028729447036944956,179.89848934541868,0.585884462985555,93.10344765748516,1
1767381232.4195719,1,left_wrist,0.0444,-0.0068,-0.9902,0.28,-1.19,-1.12,-0.022891471631377686,0.5552156962145954,0.831351846662774,0.008100509483200536,-179.31450180316804,-2.6971517474258975,112.51015260972828,1
1767381232.4195719,2,right_wrist,-0.001,0.0073,-0.9667,0.98,-2.52,-0.63,0.0035819962541105686,0.6875067885740959,0.7261685552371554,0.0009024146227715933,179.64270391567766,0.22697402725273585,93.13240775820343,1
1767381232.476512,1,left_wrist,0.0454,-0.0083,-0.9897,0.14,-1.12,-1.12,-0.022193078494397972,0.5543990595345006,0.8319051725522902,0.009106807066516568,-179.4576234564158,-2.695195204356504,112.62659905079231,1
1767381232.476512,2,right_wrist,-0.002,0.0068,-0.9692,1.12,-2.52,-0.56,0.001993098046165283,0.6873425523654936,0.7263176423130591,0.004350371554997391,179.48092587975202,-0.17676614998308085,93.15932864881817,1
1767381232.567821,1,left_wrist,0.0464,-0.0083,-0.9887,0.14,-1.26,-1.12,-0.01845684510560163,0.5539165448685466,0.8322736066057859,0.012507994924719058,179.97860486263738,-2.5550387808731116,112.70927677708478,1
1767381232.567821,2,right_wrist,-0.0024,0.0073,-0.9682,1.05,-2.59,-0.56,0.0035008257035213032,0.6869968516627274,0.7266482603693148,0.0023185614382306144,179.53133337177877,0.10897944570833018,93.21289663946122,1
1767381232.624428,1,left_wrist,0.0464,-0.0083,-0.9887,0.14,-1.26,-1.12,-0.021762767050764978,0.5535834826691056,0.8324623370857068,0.00884121145779001,-179.46227065476816,-2.6378018115889246,112.74018641001489,1
1767381232.624428,2,right_wrist,-0.002,0.0063,-0.9677,1.05,-2.52,-0.63,0.000924001177315111,0.6867989903025793,0.7268417139245735,-0.0027232407845470645,-179.84589945745225,0.2912840161604679,93.24543939820911,1
1767381232.681914,1,left_wrist,0.0459,-0.0107,-0.9882,0.28,-1.05,-1.19,-0.021724610894437002,0.5527765241022105,0.8330108781127133,0.007683269411515285,-179.35664465608306,-2.5612831141462293,112.85002045616447,1
1767381232.681914,2,right_wrist,-0.0039,0.0063,-0.9692,1.05,-2.52,-0.63,0.004402788239384315,0.686603720891977,0.7270185066561301,0.000192074209354004,179.63758208287308,0.35168710227645106,93.27411362085468,1
1767381232.767256,1,left_wrist,0.0459,-0.0107,-0.9882,0.28,-1.05,-1.19,-0.024826749442965583,0.5522384403300425,0.8332441332037296,0.010979618185698243,-179.47652412310006,-3.066801063342376,112.91657022466838,1
1767381232.767256,2,right_wrist,-0.0024,0.0054,-0.9687,1.05,-2.52,-0.63,0.0028672586249497032,0.6862421396949243,0.7273644220207413,-0.0021218184047548687,179.95137775051762,0.4058435079272765,93.33239429441086,1
1767381232.826391,1,left_wrist,0.0449,-0.0083,-0.9892,0.28,-1.26,-1.05,-0.020037232832859315,0.5519347631885942,0.8336060338475364,0.008216253241714502,-179.51711345177293,-2.4344272512759892,112.97225214924144,1
1767381232.826391,2,right_wrist,-0.0005,0.0044,-0.9692,1.05,-2.52,-0.56,0.0018629060627576458,0.6860759050107974,0.727525903312741,0.0015627391327322914,179.72325703738116,0.03244714613254996,93.3590425104537,1
1767381232.882619,1,left_wrist,0.0464,-0.0068,-0.9906,0.35,-1.12,-1.12,-0.020484365413684195,0.5511292922876073,0.8341385848785408,0.007050898735992292,-179.37971855832924,-2.4040061508535926,113.08017372311129,1
1767381232.882619,2,right_wrist,-0.002,0.0063,-0.9682,1.05,-2.52,-0.63,0.007330814501326863,0.6858561395241608,0.7276996673445334,0.0008995456727517319,179.34879238115354,0.5406134513578711,93.38803210330477,1
1767381232.975292,1,left_wrist,0.0449,-0.0102,-0.9902,0.21,-1.12,-1.12,-0.023814454818988792,0.5506268783504934,0.8343508189810591,0.010080845465589254,-179.4604943057533,-2.914218979105638,113.14092709581702,1
1767381232.975292,2,right_wrist,-0.0029,0.0073,-0.9682,1.05,-2.45,-0.63,0.0076808217880614945,0.6854735410597739,0.7280508872313948,0.0029891612892880793,179.14724133566125,0.40600566238212366,93.44759433671797,1
1767381233.028672,1,left_wrist,0.0459,-0.0083,-0.9867,0.21,-1.19,-1.19,-0.023013159956071526,0.5497795700989785,0.8349458397232015,0.008846666012490005,-179.39588564089448,-2.7602556686078987,113.25872645062053,1
1767381233.028672,2,right_wrist,-0.001,0.0039,-0.9697,0.98,-2.52,-0.63,0.00342297919268779,0.6853015852119055,0.7282512280944445,0.00041145890354858775,179.69685298990788,0.25334160455710586,93.4800294679864,1
1767381233.120605,1,left_wrist,0.0459,-0.0083,-0.9867,0.21,-1.19,-1.19,-0.017879517104677063,0.5493283605890469,0.8353547812092315,0.010053090645701805,-179.83670430554406,-2.344990268051385,113.33890857366985,1
1767381233.120605,2,right_wrist,-0.0049,0.0059,-0.9697,0.98,-2.52,-0.56,0.004379169750523287,0.6849256694249706,0.7285977082783873,-0.001740610965704809,179.8016110044699,0.5022431497998849,93.5384108774968,1
1767381233.185816,1,left_wrist,0.0459,-0.0083,-0.9916,0.35,-1.19,-1.05,-0.018213158497214894,0.5485131114408814,0.8358664071307409,0.01135767869527085,-179.9430351559339,-2.4591567754162456,113.45132210569068,1
1767381233.185816,2,right_wrist,-0.0044,0.0054,-0.9692,0.98,-2.45,-0.7,0.0031342671149571406,0.6847215922263867,0.7287955046442327,0.001905234623841006,179.59495745339427,0.1122636458732243,93.57144719137044,1
1767381233.275479,1,left_wrist,0.0444,-0.0083,-0.9902,0.28,-1.19,-1.05,-0.021533458736131106,0.5481973560098887,0.8360371109249385,0.007610399129387655,-179.3757651619416,-2.541875341842528,113.47968934936841,1
1767381233.275479,2,right_wrist,-0.0005,0.0063,-0.9697,1.12,-2.59,-0.63,0.003157895698491521,0.6843474646121841,0.7291491189251254,-0.000371139254578126,179.78336336601305,0.2929620541407494,93.63028142727121,1
1767381233.335618,1,left_wrist,0.0468,-0.0093,-0.9902,0.28,-1.12,-1.12,-0.021269484853635112,0.5473852647913969,0.8365834647085507,0.006714721107401148,-179.30891134511134,-2.460950145992674,113.59087346265129,1
1767381233.335618,2,right_wrist,-0.0024,0.0078,-0.9682,0.98,-2.52,-0.63,0.0046673603854763485,0.6841527695425285,0.7293155792828764,0.0034625842376223475,179.34469200171694,0.11860716656940842,93.65947915337064,1
1767381233.419488,1,left_wrist,0.0464,-0.0088,-0.9887,0.14,-1.19,-1.12,-0.022416925836121294,0.5468613634713491,0.8368488746550091,0.011139639444778726,-179.6630541757701,-2.848936494680188,113.66424850607812,1
1767381233.419488,2,right_wrist,-0.0015,0.0063,-0.9672,1.05,-2.45,-0.63,0.0031628954419902246,0.6837656401480048,0.729692834434894,0.001706698503769161,179.60946278136586,0.13074453820223383,93.72164311456301,1
1767381233.47352,1,left_wrist,0.0464,-0.0088,-0.9887,0.14,-1.19,-1.12,-0.021143050733057785,0.5465737671370338,0.8371232501297297,0.005895131514138279,-179.2405692767615,-2.3981232615505306,113.70152973783685,1
1767381233.47352,2,right_wrist,-0.001,0.0068,-0.9672,1.05,-2.59,-0.7,0.0006576260098068882,0.6835559721056956,0.729883396001799,0.004585713417773657,179.56493592733096,-0.30419635218158875,93.75570715265003,1
1767381233.533498,1,left_wrist,0.0444,-0.0098,-0.9897,0.21,-1.12,-1.05,-0.021165921122818114,0.5457559321531105,0.8376608854801811,0.005167904727363024,-179.17163650021874,-2.3555520026261094,113.81257465063872,1
1767381233.533498,2,right_wrist,-0.0005,0.0068,-0.9677,1.05,-2.52,-0.56,0.004449652985624502,0.6833674605714566,0.7300609900911893,-0.0002552792561742824,179.67290286037058,0.392246257856614,93.78311088886011,1
1767381233.616388,1,left_wrist,0.0459,-0.0073,-0.9902,0.35,-1.12,-1.05,-0.021120435776131857,0.5452608955912374,0.837943298529376,0.009772992447412934,-179.61835367453696,-2.6395828123918865,113.88602552084316,1
1767381233.616388,2,right_wrist,-0.0034,0.0073,-0.9692,0.98,-2.52,-0.63,0.006790734732838223,0.682963247941647,0.7304206764107823,-0.000850502439777364,179.53969859318332,0.6349596648785115,93.84366433893082,1
1767381233.671357,1,left_wrist,0.0454,-0.0083,-0.9902,0.28,-1.05,-0.98,-0.022884765944226615,0.5449948126674751,0.8381127948773565,0.004887199206872032,-179.03921257050376,-2.5038791475828397,113.90998055433901,1
1767381233.671357,2,right_wrist,-0.0024,0.0068,-0.9682,0.98,-2.52,-0.56,0.003276277664076335,0.6828138786945278,0.7305842663976757,0.0010501233131414637,179.65572955432688,0.1921197712087786,93.87094355337503,1
1767381233.726811,1,left_wrist,0.0454,-0.0093,-0.9916,0.28,-1.12,-1.12,-0.02110835050465206,0.5442049986923498,0.8386765206719655,0.004129238525297469,-179.0797249494536,-2.28673502084211,114.02372672076646,1
1767381233.726811,2,right_wrist,-0.002,0.0063,-0.9701,1.12,-2.52,-0.56,0.0015279930867995151,0.6826473534839091,0.730732986562255,0.004422484409083079,179.51014186070918,-0.2180043581003302,93.89803096848624,1
1767381233.784857,1,left_wrist,0.0459,-0.0078,-0.9897,0.07,-1.12,-1.05,-0.021167148039708924,0.5437130143788738,0.8389578266452182,0.008824678443746079,-179.52908014509282,-2.5856548337725647,114.09632332553072,1
1767381233.784857,2,right_wrist,-0.0029,0.0063,-0.9667,0.98,-2.45,-0.63,0.0045423200621685774,0.6824363571160312,0.7309303038586166,-0.0009363310334367605,179.7231998778094,0.4536848380674871,93.92910707635932,1
1767381233.868264,1,left_wrist,0.0464,-0.0093,-0.9902,0.28,-1.12,-1.12,-0.025811707584861673,0.5432814982456949,0.8391124861678744,0.00831895261648505,-179.191855350715,-3.0012026880313223,114.13693340762734,1
1767381233.868264,2,right_wrist,-0.0034,0.0063,-0.9677,0.98,-2.52,-0.56,0.006724520196148796,0.6820536521711639,0.731268536644307,-0.0019808337139602702,179.64038539759636,0.7183319851116378,93.9864557817849,1
1767381233.9332259,1,left_wrist,0.0464,-0.0093,-0.9902,0.28,-1.12,-1.12,-0.020511736718698437,0.5428829135642252,0.8395138156266869,0.008600243526887964,-179.55088753547298,-2.5090749166058015,114.21161887248292,1
1767381233.9332259,2,right_wrist,-0.0029,0.0063,-0.9697,1.05,-2.45,-0.63,0.0036167050643368063,0.6818814011931932,0.7314536720617629,0.00044696604807553626,179.6799292736018,0.26822250433938766,94.01686571260632,1
1767381234.015367,1,left_wrist,0.0444,-0.0102,-0.9916,0.21,-0.98,-1.12,-0.01996091996563655,0.542135342908821,0.8400227625831419,0.0072518953003185335,-179.45753593771167,-2.372624287465508,114.31384843490102,1
1767381234.015367,2,right_wrist,-0.0015,0.0054,-0.9667,0.98,-2.52,-0.56,0.0021338089261792653,0.6815426688618026,0.7317746164641911,-0.0009736934240439911,179.9149999560637,0.25497632211104126,94.07089618529979,1
1767381234.070766,1,left_wrist,0.0444,-0.0102,-0.9916,0.21,-0.98,-1.12,-0.024368124669497927,0.541664063953125,0.8401979163779184,0.008584732732075329,-179.3131177571824,-2.880221407352074,114.36409130689945,1
1767381234.070766,2,right_wrist,-0.0024,0.0083,-0.9697,0.98,-2.52,-0.63,0.004945190820219851,0.6813429192511581,0.7319437091583713,0.0024037673653865186,179.4122686731094,0.22709945695699277,94.09987708532216,1
1767381234.124876,1,left_wrist,0.0449,-0.0068,-0.9892,0.21,-1.05,-1.05,-0.01916865300155031,0.5412735271418436,0.8405752744061998,0.009420170618194534,-179.71817971955977,-2.4313982444283564,114.4364368454249,1
1767381234.124876,2,right_wrist,-0.0024,0.0063,-0.9667,1.05,-2.45,-0.63,0.0009017014610127867,0.6811563437098073,0.7321369862153331,-0.0008097986735663311,179.99755734654903,0.13885857681060318,94.13177867188898,1
1767381234.187605,1,left_wrist,0.0449,-0.0083,-0.9902,0.35,-1.12,-1.12,-0.018828590450670663,0.540432985308793,0.8411224516838204,0.009523331626374244,-179.75165494165182,-2.405281106984442,114.55215793287425,1
1767381234.187605,2,right_wrist,-0.0039,0.0063,-0.9677,1.12,-2.52,-0.63,0.0055614744973188,0.6809495345713006,0.7323087719384134,0.0008148070921670371,179.49763764948577,0.4031219976673469,94.16077416279367,1
1767381234.270509,1,left_wrist,0.0439,-0.0078,-0.9906,0.21,-1.19,-1.05,-0.022996309199671754,0.5400775650635437,0.8412708072546927,0.0071289788374305245,-179.26323487251747,-2.6590574818272175,114.58373895985753,1
1767381234.270509,2,right_wrist,-0.0039,0.0063,-0.9697,1.05,-2.59,-0.63,0.006775824714081898,0.6805526837124467,0.7326677914656308,-0.00020059936573693836,179.4883916989928,0.5845356051775121,94.22125102623637,1
1767381234.327327,1,left_wrist,0.0449,-0.0088,-0.9892,0.28,-1.12,-1.05,-0.018958040737251533,0.5396314063884493,0.8416267962074302,0.010142674018532749,-179.80570209203316,-2.4563234708794766,114.66174943085589,1
1767381234.327327,2,right_wrist,-0.0024,0.0059,-0.9692,1.05,-2.52,-0.56,0.0026569598769447637,0.6804009494528137,0.7328349577638266,0.0006428275138980901,179.73885697806966,0.1730028784856781,94.2492430280938,1
1767381234.3857422,1,left_wrist,0.0454,-0.0088,-0.9906,0.28,-1.19,-1.12,-0.019488581921743842,0.5388014881411655,0.8421388771665469,0.010736066142335798,-179.8326206525882,-2.5443907663950385,114.77395708030541,1
1767381234.3857422,2,right_wrist,0.0005,0.0063,-0.9697,1.12,-2.52,-0.63,0.0015538183823680138,0.6802073215744471,0.7330056347452591,0.004280742535024139,179.5193110284638,-0.20315232751183965,94.28005750132168,1
1767381234.4691389,1,left_wrist,0.0454,-0.0088,-0.9906,0.28,-1.19,-1.12,-0.022691870484722224,0.5384585085778401,0.8423183767192035,0.006875012375150091,-179.2626535680738,-2.6153934810578447,114.80504638411176,1
1767381234.4691389,2,right_wrist,-0.0039,0.0049,-0.9701,1.05,-2.52,-0.63,0.001846772492804344,0.6798350153055158,0.7333609504514694,0.0016302603553390686,179.71912692111368,0.02819442424578262,94.33810477541287,1
1767381234.519249,1,left_wrist,0.0434,-0.0083,-0.9906,0.28,-1.05,-1.05,-0.01826686278721458,0.5380272114628324,0.8426772127090802,0.009389176231026215,-179.78025546252755,-2.343443525581366,114.88118644168105,1
1767381234.519249,2,right_wrist,-0.0034,0.0054,-0.9677,1.05,-2.52,-0.56,0.006664141916672191,0.6796349365571515,0.7335176011141002,-0.0019675058543563817,179.64634268082193,0.713402581532251,94.36499052733379,1
1767381234.574399,1,left_wrist,0.0434,-0.0083,-0.9906,0.28,-1.05,-1.05,-0.022470124716198418,0.5376712994404002,0.8428265465277756,0.006933954237922512,-179.28449008783878,-2.5982921736075935,114.91305056994794,1
1767381234.574399,2,right_wrist,-0.0024,0.0059,-0.9677,1.05,-2.38,-0.56,0.003420922160253674,0.6794836667364359,0.7336825708533903,0.0003593827229451825,179.7034173695293,0.2596282650897142,94.39208398664745,1
1767381234.6316118,1,left_wrist,0.0449,-0.0098,-0.9906,0.28,-1.05,-1.12,-0.022365978666742545,0.5368341605590146,0.8433623670234441,0.006983190086964074,-179.29825506485741,-2.591964114012001,115.02732915186445,1
1767381234.6316118,2,right_wrist,-0.0034,0.0073,-0.9682,1.05,-2.52,-0.63,0.005582411506142816,0.6792842267969602,0.733843212419731,0.0039894225298385665,179.22995814573437,0.15890007803849582,94.42096473649609,1
1767381234.721318,1,left_wrist,0.0449,-0.0098,-0.9906,0.28,-1.05,-1.12,-0.01945508456813897,0.536335039073269,0.8437102204626961,0.010921970221083951,-179.86012054777203,-2.55306110207899,115.10975940605697,1
1767381234.721318,2,right_wrist,-0.002,0.0073,-0.9672,1.05,-2.45,-0.63,0.003956961859204648,0.6789002721728029,0.7342142962423239,0.0028513312553709634,179.45225779700021,0.11109525698571363,94.48267653628378,1
1767381234.773393,1,left_wrist,0.0459,-0.0073,-0.9911,0.28,-1.26,-1.05,-0.019724370432539665,0.535515677761267,0.8442230905239233,0.011012788437375813,-179.85484119650698,-2.584834990106011,115.22039562729712,1
1767381234.773393,2,right_wrist,-0.001,0.0068,-0.9677,1.05,-2.66,-0.56,6.676570397127143e-05,0.6787357710859366,0.7343823276183379,-0.0005877691655796657,-179.95572970436274,0.05133376070194781,94.51014019639446,1
1767381234.829398,1,left_wrist,0.0459,-0.0073,-0.9911,0.28,-1.26,-1.05,-0.02291311175980829,0.5351996076037924,0.8443845441182787,0.00714919466763787,-179.28571888355896,-2.6564647486017257,115.24761544741116,1
1767381234.829398,2,right_wrist,-0.002,0.0059,-0.9682,1.05,-2.45,-0.56,0.004502865336892505,0.6785505839801476,0.734538541659213,0.00140000039835907,179.53202331838,0.2701571388912808,94.53675154308418,1
1767381234.916168,1,left_wrist,0.0444,-0.0073,-0.9902,0.21,-1.05,-1.05,-0.018778991233266342,0.5347551905693202,0.8447380765990408,0.01009047031530276,-179.8258511722744,-2.436866397083491,115.32518993189073,1
1767381234.916168,2,right_wrist,-0.0044,0.0054,-0.9687,1.05,-2.52,-0.56,0.005499105373084362,0.6781965730358531,0.7348596512065692,-0.0006791105064555152,179.6298031539606,0.5158570382254261,94.5909557839041,1
1767381234.969414,1,left_wrist,0.0444,-0.0073,-0.9902,0.21,-1.05,-1.05,-0.022768048040469627,0.5344110540324826,0.8448866064372923,0.0072844752174660715,-179.31021265075285,-2.651371341860498,115.35536664407924,1
1767381234.969414,2,right_wrist,-0.0029,0.0054,-0.9677,0.98,-2.45,-0.7,0.001867154632532607,0.6779942145354051,0.7350640411072433,0.0011019352004667923,179.762117025724,0.07166243288357077,94.625398767523,1
1767381235.020374,1,left_wrist,0.0439,-0.0112,-0.9887,0.35,-1.19,-1.12,-0.01752173675051152,0.5340437617856384,0.8452549231148045,0.005862097685635502,-179.4951896805099,-2.0563229571983923,115.42041191246398,1
1767381235.020374,2,right_wrist,-0.0034,0.0083,-0.9692,0.98,-2.52,-0.63,0.007077681696142238,0.6777761170013221,0.7352321476046745,0.0017693990608421927,179.30118062689465,0.4588848202213966,94.65418137480374,1
1767381235.085918,1,left_wrist,0.0449,-0.0088,-0.9887,0.35,-1.05,-1.05,-0.020436266182152947,0.5330686584275063,0.8457362502887867,0.012262111330979293,-179.93995218613992,-2.730631829742204,115.55200023538428,1
1767381235.085918,2,right_wrist,-0.001,0.0054,-0.9672,1.05,-2.38,-0.7,0.0025319695526605647,0.6775793959683701,0.735444981115405,0.0006565374968979542,179.7480734915315,0.16240716936500557,94.68972806262742,1
1767381235.1681678,1,left_wrist,0.0468,-0.0083,-0.9882,0.49,-1.12,-0.98,-0.02260110028863374,0.5328035562431245,0.8459039885220486,0.007483510066319163,-179.34478282473066,-2.6486501748036986,115.57424285592812,1
1767381235.1681678,2,right_wrist,-0.0015,0.0068,-0.9687,1.12,-2.66,-0.7,0.0031604202902005547,0.6771793061724469,0.7358096521584497,-0.0015345441844892293,179.88414078584026,0.38556102931267267,94.75172860307956,1
1767381235.226738,1,left_wrist,0.0449,-0.0088,-0.9892,0.07,-1.05,-1.12,-0.0213086302675283,0.5320325562006636,0.8464292273713585,0.006698094522680354,-179.34994047884146,-2.4759312036500023,115.68220340727065,1
1767381235.226738,2,right_wrist,-0.0015,0.0078,-0.9687,1.05,-2.59,-0.63,0.003851839182800314,0.6769880734821048,0.7359801257777878,0.0023592706520843046,179.50220355790316,0.14182771018172646,94.78085565950079,1
1767381235.32104,1,left_wrist,0.0449,-0.0088,-0.9892,0.07,-1.05,-1.12,-0.021720381555100234,0.531504208306375,0.8467007289425953,0.011374409250246475,-179.78043708351763,-2.8012992303319377,115.7587189934816,1
1767381235.32104,2,right_wrist,-0.0029,0.0068,-0.9687,1.05,-2.52,-0.7,0.003982281615637359,0.6765911183936082,0.7363479725500168,0.000513094045895311,179.64794579291004,0.2962422860753657,94.84257731380977,1
1767381235.377907,1,left_wrist,0.0464,-0.0068,-0.9897,0.21,-1.12,-1.12,-0.02149949446582068,0.5306811038410979,0.8472315629209182,0.010677853449383653,-179.72893715757345,-2.7376696882672853,115.86986890809088,1
1767381235.377907,2,right_wrist,-0.0005,0.0068,-0.9687,1.05,-2.59,-0.63,0.001511410851817069,0.6764057229013181,0.7365197559311991,0.0034150822287567512,179.59461607317212,-0.1371429893188983,94.8729352312152,1
1767381235.437512,1,left_wrist,0.0488,-0.0073,-0.9902,0.21,-1.05,-1.05,-0.025526945083592045,0.5303369726312247,0.8473652757494584,0.007947325908202813,-179.21929765060023,-2.9629860404251764,115.89772294949874,1
1767381235.437512,2,right_wrist,-0.0029,0.0073,-0.9687,1.12,-2.45,-0.63,0.00592635053401862,0.676184893068819,0.7367077737231379,-0.0007244934477787254,179.6019363669646,0.5564516108890459,94.90372902459522,1
1767381235.519368,1,left_wrist,0.0454,-0.0073,-0.9882,0.14,-1.12,-1.12,-0.020316801607308765,0.5299172018155982,0.8477588556038832,0.008939213476029658,-179.63433532010285,-2.51733114122702,115.97459803265907,1
1767381235.519368,2,right_wrist,0.0,0.0088,-0.9682,1.05,-2.52,-0.49,0.004324095126255429,0.6758676256080481,0.7369982478327182,0.00422345211666852,179.3084009105384,0.03808519242374994,94.9547252330185,1
1767381235.573237,1,left_wrist,0.0439,-0.0078,-0.9902,0.28,-0.98,-1.05,-0.023602509194624376,0.5295884070832829,0.8479107498592091,0.0051381821593346755,-179.06588552744253,-2.6060164102051124,116.00257155123529,1
1767381235.573237,2,right_wrist,-0.0024,0.0068,-0.9672,1.12,-2.52,-0.63,0.002875695105127751,0.6756701317522321,0.7371969705708621,-0.0014933240529602012,179.9034950900942,0.3585533902494321,94.98672381065897,1
1767381235.638556,1,left_wrist,0.0439,-0.0083,-0.9892,0.28,-1.12,-1.05,-0.024337217339951953,0.5287131941074903,0.8484181252507998,0.007532793288108223,-179.256930589179,-2.823627272919472,116.12140622111347,1
1767381235.638556,2,right_wrist,-0.0015,0.0073,-0.9692,0.98,-2.52,-0.63,0.003715686656361913,0.6754769321806015,0.7373677279171087,0.0024375378798304967,179.5064213862668,0.12528612447721954,95.01602848056078,1
1767381235.723113,1,left_wrist,0.0439,-0.0083,-0.9892,0.28,-1.12,-1.05,-0.019079739970502524,0.5283263249107016,0.8487880968980425,0.008125545717617646,-179.6348929801704,-2.3483630031945992,116.19229623489375,1
1767381235.723113,2,right_wrist,-0.002,0.0059,-0.9687,0.98,-2.45,-0.63,0.003480699581671713,0.6750795593458453,0.7377360874817094,0.0009687677849432055,179.6488358025765,0.21931071548776634,95.07798601997474,1
1767381235.7797928,1,left_wrist,0.0449,-0.0078,-0.9892,0.28,-1.05,-1.05,-0.01833458465198672,0.5275383651920614,0.8492958512238854,0.007979558259832875,-179.6679737447965,-2.2673284671915006,116.3006341587103,1
1767381235.7797928,2,right_wrist,-0.002,0.0078,-0.9682,1.05,-2.52,-0.63,0.003984742868123609,0.6748836930812806,0.7378971710385469,0.0048874953254479684,179.2785458750092,-0.04104216275201285,95.10793663984555,1
1767381235.865846,1,left_wrist,0.0449,-0.0088,-0.9897,0.35,-1.12,-0.98,-0.022981609400376465,0.5271497939788581,0.8494246779254404,0.007915609179210952,-179.38152586998825,-2.7161333210953926,116.33816908897067,1
1767381235.865846,2,right_wrist,-0.0029,0.0088,-0.9682,1.12,-2.45,-0.63,0.005152566660223547,0.6745125766578678,0.7382405020004512,0.0026825721421400443,179.3747877551328,0.22854255569533233,95.16436567535024,1
1767381235.922986,1,left_wrist,0.0415,-0.0093,-0.9906,0.28,-1.19,-1.05,-0.01784200451951125,0.526815533671342,0.8497709032010553,0.006038909683656163,-179.5106158760554,-2.1024256285932577,116.39732720057056,1
1767381235.922986,2,right_wrist,-0.0044,0.0063,-0.9687,1.05,-2.45,-0.63,0.0027467781515335445,0.674311588562892,0.738437731943811,-0.002460240080914802,179.99593759201562,0.42253648635370966,95.19784580059017,1
1767381235.976737,1,left_wrist,0.0434,-0.0093,-0.9892,0.21,-1.12,-1.12,-0.01685516891499144,0.5259735715880769,0.8503124584781007,0.006035580225413854,-179.57193526030346,-2.0065319815615434,116.51352979238189,1
1767381235.976737,2,right_wrist,-0.0044,0.0073,-0.9692,0.98,-2.52,-0.63,0.005110030754301488,0.6741178898509741,0.7386052257453516,0.0011307830110748641,179.50953720428194,0.3451535090611583,95.22571693311009,1
1767381236.03321,1,left_wrist,0.0459,-0.0083,-0.9902,0.42,-1.12,-1.05,-0.02097776356102187,0.5255218168167517,0.8504846860097022,0.007909004272123385,-179.50702666761663,-2.521555572013261,116.56459786035899,1
1767381236.03321,2,right_wrist,0.0005,0.0078,-0.9692,0.98,-2.59,-0.63,0.0017117877236497393,0.6739392054455268,0.7387782214078229,0.003123574832642272,179.60336395561734,-0.0963105896256407,95.25601525334021,1
1767381236.094155,1,left_wrist,0.0444,-0.0063,-0.9897,0.21,-1.12,-1.12,-0.019605655672406852,0.5249985480308641,0.8507857214127815,0.012481949818530512,179.96254265282258,-2.6632895920641886,116.64547959282143,1
1767381236.094155,2,right_wrist,-0.0015,0.0059,-0.9677,1.12,-2.59,-0.63,0.004962593163898628,0.6737214436090311,0.738965521142541,-0.0021789109632262883,179.80137154702626,0.5884568264153139,95.2875625293018,1
1767381236.1653728,1,left_wrist,0.0444,-0.0063,-0.9897,0.21,-1.12,-1.12,-0.020811747591533696,0.5246906837684311,0.8510062156945118,0.007414740596176012,-179.47126156951322,-2.4761055534979057,116.67648383407108,1
1767381236.1653728,2,right_wrist,-0.001,0.0098,-0.9682,1.05,-2.59,-0.63,0.004383896848124655,0.6733435733257422,0.7392971584112799,0.005378222229760841,179.20608711768045,-0.043589360345561656,95.34648786267941,1
1767381236.221914,1,left_wrist,0.0459,-0.0088,-0.9882,0.21,-1.12,-1.05,-0.02440615151936152,0.5242131324803966,0.8511770643029757,0.010126041066086947,-179.52092571051077,-2.9901525286743573,116.73228278857086,1
1767381236.221914,2,right_wrist,-0.0034,0.0068,-0.9692,1.05,-2.45,-0.63,0.003967971127120965,0.6731440974946843,0.7395004527266569,-0.0005996918129415014,179.74473573007012,0.3825089439025147,95.37791994985301,1
1767381236.277539,1,left_wrist,0.0439,-0.0078,-0.9877,0.21,-1.26,-1.12,-0.023407701362693642,0.5233825122487435,0.8517212719804618,0.009679888692179433,-179.54029574580474,-2.8663421443200843,116.8470691770107,1
1767381236.277539,2,right_wrist,-0.0044,0.0059,-0.9682,1.05,-2.52,-0.56,0.003592198602304475,0.6729779215721535,0.7396467408701907,0.0032422069228838692,179.44816890553042,0.05443378473143081,95.40387640492915,1
1767381236.3670669,1,left_wrist,0.0468,-0.0068,-0.9921,0.21,-1.05,-1.12,-0.018138223108896293,0.5230015116226266,0.8520959129944568,0.008542760738940208,-179.74688695383233,-2.2836560587820234,116.9132116058654,1
1767381236.3670669,2,right_wrist,-0.0024,0.0059,-0.9682,1.05,-2.45,-0.56,0.003572584004669725,0.6726260774080867,0.7399726563071779,0.0013654859352207468,179.6088437468687,0.19768836720969882,95.45841994336982,1
1767381236.4183629,1,left_wrist,0.0468,-0.0068,-0.9921,0.21,-1.05,-1.12,-0.02265675630907395,0.5225484453011191,0.8522570851330846,0.009362400728069096,-179.55714387601301,-2.774393345987208,116.96145737724876,1
1767381236.4183629,2,right_wrist,-0.0039,0.0063,-0.9697,1.05,-2.52,-0.63,0.005599165176951028,0.6723995106136565,0.7401537024239755,-0.004477082076261943,179.9482970556832,0.8198882595092695,95.49189209922163,1
1767381236.4725068,1,left_wrist,0.0454,-0.0088,-0.9897,0.28,-1.12,-1.19,-0.019486141072022532,0.5222106953386183,0.8525798405128999,0.004888305542394043,-179.3109879464148,-2.1968248450544663,117.01130873848341,1
1767381236.4725068,2,right_wrist,-0.0005,0.0059,-0.9677,1.05,-2.59,-0.63,0.003847949189559989,0.6722216011824449,0.7403391399504641,-0.0011269641306866762,179.79919111781092,0.41326165726652464,95.52091648406093,1
1767381236.526189,1,left_wrist,0.0459,-0.0078,-0.9906,0.21,-1.19,-1.05,-0.021660436648178214,0.5217178068743002,0.8527973724390523,0.008831593034614855,-179.5676307237562,-2.645663155271579,117.07573609632483,1
1767381236.526189,2,right_wrist,-0.0039,0.0083,-0.9682,0.91,-2.45,-0.63,0.005248295240465879,0.6720288109441444,0.740501176960359,0.0027820097756000644,179.35974844337323,0.23110637118946015,95.54918769125581,1
1767381236.579447,1,left_wrist,0.0449,-0.0068,-0.9902,0.28,-1.05,-1.19,-0.020774675390091677,0.5208632557338344,0.8533475813622087,0.008233290475578667,-179.5647093632128,-2.5237138791749794,117.19259664421183,1
1767381236.579447,2,right_wrist,-0.0024,0.0063,-0.9687,1.05,-2.52,-0.63,0.0013974676099147852,0.6718409400391306,0.7406937550323858,-0.0007480826428672383,179.95590772709,0.1762063518595425,95.58118376897312,1
1767381236.6697211,1,left_wrist,0.0464,-0.0083,-0.9911,0.28,-1.12,-1.05,-0.02522854710445073,0.5204204429757686,0.8534875591818758,0.009223300150558233,-179.39668883099287,-3.0188495976160774,117.23797459872426,1
1767381236.6697211,2,right_wrist,-0.0029,0.0063,-0.9697,1.05,-2.52,-0.63,0.0009297618449201819,0.6714665175873398,0.7410333264702168,-0.0012084546029780055,-179.9689224918191,0.1719358759250061,95.6392209785815,1
1767381236.722049,1,left_wrist,0.0454,-0.0093,-0.9902,0.28,-1.12,-1.05,-0.020242403024320076,0.5200967514571804,0.853838698401215,0.007006522390440945,-179.4786522040101,-2.3988518998661106,117.29558614354205,1
1767381236.722049,2,right_wrist,-0.0005,0.0078,-0.9692,1.12,-2.52,-0.63,0.003611609872304839,0.6712629704278094,0.7412072688075534,0.002182996429589534,179.53676950121772,0.1388377586638028,95.66928174232044,1
1767381236.774136,1,left_wrist,0.0454,-0.0078,-0.9902,0.35,-1.05,-1.05,-0.023234572508701607,0.5196068016512231,0.8540263207851877,0.010390848100131835,-179.63297582499004,-2.8937607423680918,117.35638407181466,1
1767381236.774136,2,right_wrist,-0.002,0.0068,-0.9677,1.05,-2.66,-0.56,-0.00019880096205734555,0.6710915944238933,0.7413731428373369,-0.001376753886425907,-179.8677493744316,0.0889852247675992,95.69726117510865,1
1767381236.833521,1,left_wrist,0.0439,-0.0088,-0.9916,0.28,-1.12,-1.26,-0.02268197452976996,0.5186734320106158,0.8546179323964564,0.009570192483217102,-179.58861981840735,-2.7912051570739806,117.48228107888912,1
1767381236.833521,2,right_wrist,-0.002,0.0088,-0.9697,1.05,-2.52,-0.56,0.00382640698589646,0.6709081380961235,0.7415297845817314,0.0010988285317774019,179.61244707366947,0.24066380791870579,95.72397631040971,1
1767381236.916319,1,left_wrist,0.0444,-0.0073,-0.9911,0.14,-1.12,-1.19,-0.01814952180604365,0.5183080067385992,0.8549767892674739,0.006488052308194165,-179.55736700878506,-2.164029387104957,117.541087044015,1
1767381236.916319,2,right_wrist,-0.0029,0.0049,-0.9682,1.12,-2.52,-0.56,0.003141254471296251,0.6705379406887718,0.7418679464867584,-0.000976008569496761,179.84160155214383,0.34204027759105127,95.78177304767246,1
1767381236.967154,1,left_wrist,0.0444,-0.0073,-0.9911,0.14,-1.12,-1.19,-0.02189238181490471,0.5177917442027904,0.8551792052689164,0.00899778470107995,-179.5823142468651,-2.680229843008566,117.60230710153014,1
1767381236.967154,2,right_wrist,0.0,0.0054,-0.9692,1.05,-2.52,-0.63,0.0017193589663612597,0.67034592110268,0.7420423469100709,0.002558370172286305,179.65038065064374,-0.05032355964292896,95.81212419669433,1
1767381237.0280461,1,left_wrist,0.0449,-0.0083,-0.9921,0.28,-1.12,-1.05,-0.020887499972659977,0.516967332461623,0.8557124854880046,0.008039383828847939,-179.5505027559035,-2.52524583357837,117.71466212833602,1
1767381237.0280461,2,right_wrist,-0.0024,0.0073,-0.9682,1.05,-2.52,-0.56,0.006958812473591298,0.6701428222769641,0.7421995373004805,-0.00013968026117862456,179.47745756298409,0.602583157956254,95.83856825099063,1
1767381237.07952,1,left_wrist,0.0444,-0.0088,-0.9897,0.21,-1.19,-1.05,-0.02508757721607438,0.5165964524589032,0.8558420533536585,0.0057531285139011306,-179.07795603810203,-2.8020839860747526,117.74608657452609,1
1767381237.07952,2,right_wrist,-0.0024,0.0049,-0.9706,0.98,-2.52,-0.56,0.0026642753275127463,0.6699869827517073,0.7423680560179394,0.00011825560547043853,179.78538870512412,0.2175690048186704,95.86710448608629,1
1767381237.130811,1,left_wrist,0.0473,-0.0088,-0.9916,0.21,-1.12,-1.12,-0.021441131826436224,0.5161060863472103,0.8562067167971675,0.009211059264916185,-179.63528356479708,-2.6493755327695543,117.82992487464705,1
1767381237.130811,2,right_wrist,-0.001,0.0073,-0.9677,0.98,-2.52,-0.63,0.0037185441274878053,0.6697871017548734,0.7425329104688213,0.004035792744944634,179.37118431767476,0.006648541280604932,95.89713640212157,1
1767381237.182582,1,left_wrist,0.0439,-0.0112,-0.9902,0.35,-0.98,-1.12,-0.021989276707482686,0.5157923362777378,0.8564223211774159,0.003942757426198191,-179.08641677470087,-2.3917335412254714,117.86284456735825,1
1767381237.182582,2,right_wrist,-0.002,0.0059,-0.9687,1.05,-2.45,-0.63,0.0024717238914437325,0.6695866560920656,0.7427278604824368,-0.0017105050811263458,179.95592803711568,0.3416166015427977,95.929060441622,1
1767381237.26827,1,left_wrist,0.0439,-0.0112,-0.9902,0.35,-0.98,-1.12,-0.021512562890347333,0.5152635885235686,0.8567185834880986,0.008597248737194007,-179.57335897562865,-2.6204835900845675,117.9415950265046,1
1767381237.26827,2,right_wrist,-0.0024,0.0063,-0.9687,1.12,-2.59,-0.49,0.005902351670363468,0.6692346282788496,0.743021102808553,-0.0031329440453077197,179.8140919510841,0.7428315413199345,95.98044947689698,1
1767381237.320609,1,left_wrist,0.0449,-0.0063,-0.9906,0.21,-1.12,-1.05,-0.017136697661424838,0.5148129088823289,0.8570571561478487,0.011270915541255285,179.9039344313567,-2.348586219457767,118.01758856858595,1
1767381237.320609,2,right_wrist,-0.0024,0.0073,-0.9677,0.98,-2.52,-0.63,0.00426439777969316,0.6690572810251875,0.743198539374295,0.00031731793865858793,179.64602320404242,0.33884810647431884,96.00931622958576,1
1767381237.378068,1,left_wrist,0.0473,-0.0098,-0.9887,0.28,-1.19,-1.05,-0.025341178675205658,0.5140605048426902,0.8573434967636369,0.007858153811779853,-179.27826839328563,-2.9538355844534983,118.0878488860292,1
1767381237.378068,2,right_wrist,-0.0029,0.0068,-0.9682,1.05,-2.52,-0.56,0.002136258305546723,0.6688938053780236,0.7433467258156772,0.0034869394131902113,179.53922931888226,-0.08530331230581281,96.03598988658551,1
1767381237.4313412,1,left_wrist,0.0464,-0.0093,-0.9906,0.21,-1.26,-0.98,-0.019928118537924432,0.5137129270869663,0.8576954466558963,0.0077729930543179,-179.59048634253898,-2.416919112128056,118.1527305156915,1
1767381237.4313412,2,right_wrist,-0.0039,0.0073,-0.9687,1.05,-2.52,-0.56,0.006043408244283957,0.668693399758518,0.7435126273724444,-0.0012598705933054592,179.64423282936565,0.611451251225843,96.06353641822452,1
1767381237.5197608,1,left_wrist,0.0464,-0.0093,-0.9906,0.21,-1.26,-0.98,-0.02447499732634883,0.5133160733574703,0.8578145234705101,0.007862993183573247,-179.33240601849243,-2.8695647496812655,118.19068786892349,1
1767381237.5197608,2,right_wrist,-0.0039,0.0054,-0.9672,1.05,-2.45,-0.63,0.008029695168680039,0.6682903541557396,0.7438571949895644,-3.892914729469087e-07,179.38505995793497,0.6844953485211913,96.12250722167022,1
1767381237.572014,1,left_wrist,0.0459,-0.0068,-0.9882,0.21,-1.26,-1.05,-0.01939926880063965,0.5128991869843939,0.8581787666289236,0.009343279296259013,-179.77844312566094,-2.457619592222642,118.26509654103845,1
1767381237.572014,2,right_wrist,-0.001,0.0078,-0.9687,1.05,-2.52,-0.63,0.004132630930541569,0.6681216597381066,0.7440394688638078,0.0012798137569912708,179.57447537058908,0.2543676524506107,96.15357523885248,1
1767381237.6230662,1,left_wrist,0.0459,-0.0088,-0.9887,0.28,-1.19,-1.05,-0.02356528010038295,0.5125377760676014,0.8583133303150023,0.006923343198013729,-179.29608683968908,-2.7254269809702873,118.29657702405314,1
1767381237.6230662,2,right_wrist,-0.0024,0.0059,-0.9687,1.12,-2.52,-0.63,-0.0003304617747078146,0.6679337067898853,0.7442202199964622,0.0008475124519486718,179.95301632268087,-0.09305050313869759,96.1844217533168,1
1767381237.674133,1,left_wrist,0.0439,-0.0073,-0.9906,0.14,-1.05,-0.98,-0.01868766866746277,0.5121422249625979,0.8586523574595486,0.00878871317625037,-179.7678361363562,-2.355208279707232,118.36739661497501,1
1767381237.674133,2,right_wrist,-0.0024,0.0044,-0.9692,1.05,-2.52,-0.63,0.005181990504232784,0.6677172940059769,0.7443968846218336,-0.0002010598379261011,179.62063707516458,0.4574209842589032,96.21484751841933,1
1767381237.724671,1,left_wrist,0.0439,-0.0093,-0.9906,0.35,-1.12,-1.19,-0.018214934426991864,0.5113322200861036,0.8591693546671048,0.0059663109664050504,-179.51977055585098,-2.1434171253517986,118.4732699481606,1
1767381237.724671,2,right_wrist,-0.0029,0.0054,-0.9677,1.05,-2.52,-0.63,0.0013690446666199008,0.6675335958565016,0.7445774045631852,0.0012299323316328863,179.79033556473533,0.02272792684620749,96.24580290348543,1
1767381237.819277,1,left_wrist,0.0439,-0.0093,-0.9906,0.35,-1.12,-1.19,-0.0224863298340614,0.510825781728073,0.8593573799067505,0.00750195256595155,-179.42185835191574,-2.6544297854632295,118.52976510438546,1
1767381237.819277,2,right_wrist,-0.002,0.0068,-0.9677,0.98,-2.52,-0.63,0.003745247641629541,0.6671332754755916,0.7449285867417648,0.0007526806948056409,179.64942731537005,0.26216390698827335,96.30606247087567,1
1767381237.874259,1,left_wrist,0.0454,-0.0073,-0.9892,0.21,-1.26,-1.12,-0.0188105423138988,0.510329668310185,0.8597033351490416,0.01095302122194218,-179.9789835950753,-2.4944305995265132,118.61184386227347,1
1767381237.874259,2,right_wrist,-0.0034,0.0073,-0.9682,0.98,-2.52,-0.63,0.004716800893484053,0.6669355040472008,0.745085820285335,0.004680346180242537,179.23988460408455,0.04502674369371934,96.33546912418238,1
1767381237.9361112,1,left_wrist,0.0454,-0.0098,-0.9906,0.21,-1.26,-1.05,-0.02411988741539178,0.5094730159559323,0.8600766502391204,0.011119026813932929,-179.6872751060311,-3.0277486802565106,118.71032347137826,1
1767381237.9361112,2,right_wrist,-0.0005,0.0039,-0.9687,1.05,-2.59,-0.7,0.001812798243312775,0.6667265139216809,0.7453002533096788,-4.257816723769696e-05,179.86513573883192,0.15807547273962963,96.36981434718614,1
1767381237.988108,1,left_wrist,0.0444,-0.0073,-0.9897,0.35,-1.12,-1.05,-0.020186280407631742,0.5091746541858577,0.8603956957496617,0.007275462423241793,-179.53909179286308,-2.4154655201785262,118.75693143328355,1
1767381237.988108,2,right_wrist,-0.0024,0.0083,-0.9687,0.98,-2.45,-0.56,0.005486044372270977,0.6665395407737428,0.7454442363655729,0.002798994751942009,179.34186135898562,0.2548409489186865,96.39550623341279,1
1767381238.06848,1,left_wrist,0.0449,-0.0102,-0.9902,0.35,-1.05,-1.05,-0.024843021472671725,0.508763953454746,0.8605230600264637,0.00649054018526474,-179.19066064948214,-2.8292860686114323,118.79461209035428,1
1767381238.06848,2,right_wrist,-0.001,0.0068,-0.9682,1.12,-2.45,-0.63,0.003539197545488313,0.6661695675474014,0.7457872769374532,0.0026303826072757264,179.50502495696347,0.10166656183374147,96.45433748636457,1
1767381238.1230159,1,left_wrist,0.0449,-0.0102,-0.9902,0.35,-1.05,-1.05,-0.019649961564303757,0.5083694238168017,0.8608845444281068,0.007225586723939278,-179.5677286455804,-2.360063473245613,118.86570664285992,1
1767381238.1230159,2,right_wrist,-0.001,0.0078,-0.9687,0.98,-2.52,-0.49,-0.0009158532124931689,0.6660295378580473,0.745922444091844,0.0018770491573004582,179.90945501680824,-0.2215433523287367,96.47723733155429,1
1767381238.174369,1,left_wrist,0.0468,-0.0083,-0.9902,0.14,-1.12,-1.19,-0.01874019557881763,0.5074718283229623,0.8614362870880716,0.0069765189123968075,-179.59858130064234,-2.2561885375005257,118.98744638676138,1
1767381238.174369,2,right_wrist,-0.1244,0.0088,-0.9687,0.98,-2.52,-0.56,0.0035032107503569785,0.6658395047335928,0.7460833409701443,-0.002264901187658304,179.9263413383802,0.47232286342641006,96.50528220041592,1
1767381238.226914,1,left_wrist,0.0449,-0.0088,-0.9906,0.28,-1.05,-1.05,-0.023272434136592954,0.5070335190586043,0.8615771139616714,0.007764087704489582,-179.41368946276265,-2.7498376761831302,119.03276063731718,1
1767381238.226914,2,right_wrist,-0.002,0.0063,-0.9697,1.05,-2.52,-0.56,0.003311839444437721,0.6656721436981209,0.7462352418580869,0.0016101654713355253,179.60967809725824,0.16037900400214866,96.53093840576356,1
1767381238.288034,1,left_wrist,0.0439,-0.0093,-0.9916,0.35,-1.19,-1.05,-0.018142135685676585,0.5066924166307238,0.8619160450815604,0.005864219695835902,-179.52548396378938,-2.132852793683406,119.0913951329974,1
1767381238.288034,2,right_wrist,-0.0015,0.0059,-0.9677,0.98,-2.59,-0.63,-0.0010208862703648023,0.6654820915040894,0.7464114646940446,0.0015713216910785966,179.94345201065087,-0.2071461986602752,96.56128130917836,1
1767381238.374528,1,left_wrist,0.0449,-0.0078,-0.9892,0.28,-1.19,-1.19,-0.021930556770679382,0.5061721877986638,0.8621141486607212,0.00824388608861286,-179.54188921088465,-2.645652409886,119.15256280557014,1
1767381238.374528,2,right_wrist,-0.0034,0.0068,-0.9677,1.05,-2.45,-0.56,0.00030028668432973175,0.6651018204225039,0.7467501456082773,0.001923104936065387,179.81255036345317,-0.12087372624043577,96.61972989075663,1
1767381238.429677,1,left_wrist,0.0468,-0.0088,-0.9921,0.28,-1.12,-1.12,-0.022212752047311598,0.5053449848729611,0.8625971157248437,0.007697782369752678,-179.4740290320905,-2.6423512285104507,119.26080519058542,1
1767381238.429677,2,right_wrist,-0.001,0.0049,-0.9682,1.12,-2.52,-0.56,0.005686910409911344,0.6649035248237822,0.7469075680570262,-0.0002156525872178553,179.58513896848334,0.5031762376429977,96.6466773626643,1
1767381238.484977,1,left_wrist,0.0444,-0.0078,-0.9926,0.21,-1.19,-1.19,-0.01693304487737197,0.5048891210734919,0.8629766716566374,0.008456452521596425,-179.85647594534663,-2.1642775689475244,119.33729512356307,1
1767381238.484977,2,right_wrist,-0.001,0.0059,-0.9692,1.05,-2.52,-0.63,0.002020426550436337,0.6647223384991477,0.7470863626025555,0.0014482368803280705,179.7221164272035,0.06265383165046357,96.67747806533932,1
1767381238.538016,1,left_wrist,0.0464,-0.0073,-0.9867,0.35,-1.19,-0.98,-0.021548954284603447,0.5045062181499255,0.8630994097190948,0.008278125382606269,-179.57249978540372,-2.6107553814701694,119.37525103467507,1
1767381238.538016,2,right_wrist,-0.0034,0.0054,-0.9677,1.12,-2.45,-0.63,0.0070308659449113365,0.6644956267319506,0.7472570729740297,-0.0017308577245600352,179.61280808604252,0.7338657496345854,96.70756328213332,1
1767381238.593248,1,left_wrist,0.0473,-0.0093,-0.9916,0.35,-1.12,-1.05,-0.026084545707953644,0.5041113703635383,0.8632173689654131,0.006862700768293258,-179.17086854473476,-2.9779937251452284,119.40934034494266,1
1767381238.593248,2,right_wrist,-0.0034,0.0073,-0.9667,1.05,-2.52,-0.56,0.004107842109549159,0.6643441977330193,0.7474150355937693,0.000822885191656285,179.61679146126812,0.28918264740478494,96.7340717049952,1
1767381238.6695309,1,left_wrist,0.0459,-0.0088,-0.9892,0.28,-1.19,-1.12,-0.020859812035190738,0.503685300908714,0.8636004893484249,0.007757621253681829,-179.5632919431598,-2.512875219393859,119.48563151577888,1
1767381238.6695309,2,right_wrist,-0.001,0.0063,-0.9682,0.98,-2.45,-0.63,0.005854960045330504,0.6639110181756657,0.7477886590260372,-2.8633190613067087e-05,179.55699488441843,0.5038979657060783,96.79863642951726,1
1767381238.7246861,1,left_wrist,0.0478,-0.0098,-0.9897,0.21,-1.19,-1.12,-0.025441343793320595,0.5032354044179722,0.863740638074445,0.007679577138141661,-179.29202645699547,-2.962291834329433,119.52954671016201,1
1767381238.7246861,2,right_wrist,-0.0015,0.0063,-0.9687,1.05,-2.52,-0.63,0.002131968273055579,0.6637307092460416,0.7479669864072674,0.0015451730841740763,179.705407531754,0.06520983699213562,96.82943506957253,1
1767381238.8206148,1,left_wrist,0.0454,-0.0093,-0.9882,0.28,-0.98,-1.12,-0.024737583896755344,0.5023777350061323,0.8642598296916564,0.0077207573727148095,-179.33968268334868,-2.8956361142173765,119.64607236819732,1
1767381238.8206148,2,right_wrist,0.0,0.0068,-0.9658,1.05,-2.52,-0.63,0.0017321790921760109,0.6633352546891507,0.7483200437256685,0.0006720122662386561,179.8107060773197,0.0974550005761141,96.89018954304889,1
1767381238.880718,1,left_wrist,0.0449,-0.0083,-0.9906,0.28,-1.19,-1.12,-0.023911543145693468,0.5015196345931489,0.8647810297054118,0.007750153778708655,-179.39307527361427,-2.8160871496058473,119.76290664004392,1
1767381238.880718,2,right_wrist,-0.0015,0.0044,-0.9697,1.05,-2.45,-0.63,0.00505589705782055,0.6631230791157011,0.7484839393473275,0.0037433124580475174,179.2947270479084,0.14919618557798242,96.92008536145356,1
1767381238.940159,1,left_wrist,0.0468,-0.0073,-0.9902,0.21,-1.26,-1.12,-0.019109306925653637,0.5010557941612267,0.8651481468486196,0.009829014736119041,-179.877127628592,-2.459576936889619,119.84228713327859,1
1767381238.940159,2,right_wrist,-0.0039,0.0073,-0.9682,1.05,-2.59,-0.56,0.003492410522901468,0.6629424726075834,0.7486598225552187,-0.0018844556963843525,179.89635439843775,0.44277624021128265,96.94945961823127,1
1767381239.0234208,1,left_wrist,0.0459,-0.0098,-0.9892,0.28,-1.05,-0.98,-0.02281276804189308,0.5007405649781443,0.8652718500287265,0.006564278140103694,-179.34114207211016,-2.6395470353103043,119.86811932269747,1
1767381239.0234208,2,right_wrist,-0.0015,0.0073,-0.9682,1.05,-2.52,-0.63,-0.00026626408348831695,0.6625648810681628,0.749000309810525,0.002498676110837394,179.80575506186818,-0.21256403905555524,97.00848068466831,1
1767381239.0811148,1,left_wrist,0.0439,-0.0102,-0.9877,0.14,-1.12,-1.05,-0.021743288791264005,0.49998122071629475,0.86574397718072,0.005777049324052785,-179.3267209719309,-2.488856160955664,119.97110981145632,1
1767381239.0811148,2,right_wrist,0.0,0.0068,-0.9687,0.98,-2.52,-0.63,0.005268355749261277,0.6623423045333076,0.7491809017254122,0.0017007478074723343,179.454112108511,0.32320426001668995,97.03939615445027,1
1767381239.1701171,1,left_wrist,0.0439,-0.0102,-0.9877,0.14,-1.12,-1.05,-0.021734513453254334,0.4994699249063939,0.8659952185898022,0.01047312840331623,-179.79509531291296,-2.7573346657530977,120.04595812733822,1
1767381239.1701171,2,right_wrist,-0.0034,0.0083,-0.9692,1.05,-2.52,-0.63,0.005853575730805909,0.6619396117099104,0.7495327082530202,0.0015509221094358058,179.4227588289138,0.38512561405585344,97.10027066665768,1
1767381239.226596,1,left_wrist,0.0449,-0.0102,-0.9882,0.28,-1.12,-1.12,-0.02350481193332045,0.49865616243406685,0.8664350314124419,0.008938222632578185,-179.54376729101833,-2.8456178011425504,120.14554908169121,1
1767381239.226596,2,right_wrist,-0.001,0.0059,-0.9687,1.05,-2.52,-0.56,0.001406687956353969,0.6617811237490118,0.7496950609873229,0.0010397161646595267,179.80400335313738,0.04200038632334446,97.1280668344626,1
1767381239.282218,1,left_wrist,0.0439,-0.0059,-0.9916,0.21,-1.12,-1.05,-0.018199940248748405,0.49829434887963786,0.866781837143066,0.007794283062030121,-179.7347454534444,-2.2533620730428736,120.2074329728001,1
1767381239.282218,2,right_wrist,-0.0034,0.0078,-0.9687,1.05,-2.45,-0.63,0.0066706467362002645,0.6615599296853029,0.7498611250738805,0.0015016690154813844,179.3652352832639,0.45935831968383334,97.15719075728724,1
1767381239.382299,1,left_wrist,0.0473,-0.0073,-0.9897,0.21,-1.12,-1.05,-0.022705917393265555,0.497862541636605,0.8669169337626389,0.008506521383887607,-179.5491368114778,-2.7419875395706295,120.25248767201595,1
1767381239.382299,2,right_wrist,-0.0015,0.0068,-0.9682,1.12,-2.52,-0.7,0.004534784341342986,0.6611489002698505,0.7502307503100841,0.003922842351270983,179.31917118564107,0.09265324624552973,97.22252730427434,1
1767381239.4363258,1,left_wrist,0.0449,-0.0112,-0.9892,0.28,-1.05,-1.05,-0.0220945638094278,0.4971019838556835,0.8673896049345036,0.006059797717822691,-179.3430679984817,-2.5421232330592205,120.351280358387,1
1767381239.4363258,2,right_wrist,-0.0029,0.0049,-0.9672,1.12,-2.59,-0.63,0.002565642198663948,0.6609495283158358,0.7504244219663051,-0.0015249313820036837,179.93681148126464,0.33612455220556264,97.25470616002094,1
1767381239.5208461,1,left_wrist,0.0454,-0.0059,-0.9882,0.28,-1.19,-1.05,-0.02048001750118093,0.4965987322816938,0.8676744240627465,0.010552810371977224,-179.88368690816347,-2.637740680117554,120.42945887848764,1
1767381239.5208461,2,right_wrist,-0.0024,0.0078,-0.9697,1.05,-2.59,-0.56,0.007995379954177352,0.6605215352201578,0.7507644218717755,0.00039782072958941244,179.3605477211259,0.6577559760980346,97.31377870300427,1
1767381239.580142,1,left_wrist,0.0459,-0.0112,-0.9897,0.28,-1.12,-1.19,-0.023764818278989557,0.49566625001658304,0.8681253198930353,0.0104226180626553,-179.68659943394763,-2.9574292840921115,120.54249154999852,1
1767381239.580142,2,right_wrist,-0.0005,0.0054,-0.9687,1.05,-2.52,-0.63,0.0036744854188290508,0.660347206641495,0.7509512278284673,0.0005641459020275529,179.6733991428121,0.2735112849121484,97.3458079159177,1
1767381239.668166,1,left_wrist,0.0449,-0.0083,-0.9906,0.21,-1.26,-1.12,-0.020421543327670173,0.49535079972923196,0.8684320891852685,0.006020984058808425,-179.43949939347362,-2.374698676451213,120.58779734341219,1
1767381239.668166,2,right_wrist,0.0,0.0063,-0.9677,1.12,-2.59,-0.63,0.0056979051028105505,0.6599100031512167,0.7513228825004603,-0.0004978449557920399,179.61196638988096,0.5282171994932621,97.41054602790194,1
1767381239.730518,1,left_wrist,0.0444,-0.0063,-0.9882,0.14,-1.05,-1.12,-0.018445788227464,0.49447220489204774,0.8689706336432875,0.006857794940604432,-179.63741904548107,-2.2259093063133326,120.71042289640357,1
1767381239.730518,2,right_wrist,-0.002,0.0063,-0.9682,1.05,-2.52,-0.63,0.0023452148957060666,0.659728055661758,0.7514990808571094,0.0015887135578765334,179.68588879527485,0.08185368739510382,97.44109988809052,1
1767381239.7884731,1,left_wrist,0.0454,-0.0093,-0.9906,0.28,-1.19,-1.12,-0.02301980711303775,0.4940178339312892,0.8691186489360836,0.007017286500665432,-179.3950413971588,-2.690866456336457,120.75691589802179,1
1767381239.7884731,2,right_wrist,-0.0029,0.0073,-0.9682,0.98,-2.52,-0.63,0.0077905730069011535,0.659501687994403,0.751661148580491,0.001532390098538537,179.27919670109648,0.5552342663895491,97.4695787387681,1
1767381239.8732271,1,left_wrist,0.0454,-0.0093,-0.9906,0.28,-1.19,-1.12,-0.01781105089686373,0.4935812391509341,0.8694805582427305,0.007992850685937178,-179.78881133913742,-2.2272448884861413,120.83101975035285,1
1767381239.8732271,2,right_wrist,-0.002,0.0088,-0.9687,1.05,-2.52,-0.63,0.0045150597703077396,0.6591217335897295,0.7520144426402634,0.00352598998785256,179.3551129504185,0.12276587260222672,97.53180990686099,1
1767381239.9266272,1,left_wrist,0.0468,-0.0083,-0.9906,0.28,-1.26,-1.05,-0.02204835914407599,0.4927638028519639,0.8698490089148435,0.007772139202890564,-179.5292069764347,-2.6375195794362734,120.92661945034904,1
1767381239.9266272,2,right_wrist,-0.001,0.0059,-0.9682,1.12,-2.52,-0.56,0.0010084633218553807,0.6589539094757515,0.7521824414495027,-0.00055042112668237,179.97129316641013,0.1284859570549602,97.55962015481535,1
1767381239.977904,1,left_wrist,0.0429,-0.0059,-0.9892,0.28,-1.12,-1.05,-0.01676663014194598,0.49235897731304756,0.8701908399869976,0.0083318410724535,-179.88476526752882,-2.14249335576603,120.99498349637422,1
1767381239.977904,2,right_wrist,-0.0054,0.0044,-0.9658,1.05,-2.52,-0.56,0.006468761534781045,0.6587597663070367,0.7523251000675801,-0.0008180633290076322,179.58218133849468,0.6194389023114775,97.58490050384671,1
1767381240.0320268,1,left_wrist,0.0464,-0.0146,-0.9882,0.28,-1.05,-1.12,-0.020997350494005605,0.4919626207595569,0.8703424180477284,0.005997198883921549,-179.41386475392207,-2.4329693060326236,121.03278692077384,1
1767381240.0320268,2,right_wrist,-0.0054,0.0059,-0.9697,1.05,-2.52,-0.56,0.002589127821284909,0.6586013290047502,0.7524874476160545,0.00047647725804406414,179.7635101727563,0.1872976734414654,97.61268744699136,1
1767381240.1204858,1,left_wrist,0.0468,-0.0005,-0.9887,0.21,-1.19,-0.98,-0.02032507959356449,0.4914814278461785,0.870585558673302,0.010662187922349528,-179.91889237397427,-2.6290785489885122,121.10510156175735,1
1767381240.1204858,2,right_wrist,-0.0049,0.0093,-0.9697,0.98,-2.59,-0.49,0.0062878956129021986,0.6581983918723116,0.7528181172653047,0.0004707680811685788,179.48510324179125,0.5069347981269884,97.67049796903797,1
1767381240.17552,1,left_wrist,0.0381,-0.02,-0.9887,0.28,-1.19,-1.12,-0.021379176828242714,0.4908269558830804,0.8709947240968636,0.0001441253749617418,-178.81100474567438,-2.1424321354539315,121.17310840744332,1
1767381240.17552,2,right_wrist,-0.0059,-0.0039,-0.9701,0.98,-2.45,-0.77,0.0028093689489143646,0.6579440244362964,0.7530532095315504,-0.0035541199909031465,-179.90511048996785,0.5103994237789805,97.71287467370615,1
1767381240.235017,1,left_wrist,0.0508,-0.0078,-0.9877,0.14,-1.19,-1.05,-0.022504607635552298,0.4903164571086167,0.87124174749941,0.004596948748711392,-179.19370097931744,-2.505874941414745,121.24258426380864,1
1767381240.235017,2,right_wrist,-0.0024,0.0156,-0.9692,0.98,-2.52,-0.56,0.005165468259889092,0.657773417820018,0.7531981446609679,6.0218799413527086e-05,179.60543906110811,0.44129769270199387,97.73658275326898,1
1767381240.3172832,1,left_wrist,0.0444,-0.0078,-0.9887,0.14,-1.12,-1.26,-0.02048497499065656,0.4897403608360337,0.8715807100758134,0.009044920760528851,-179.753503859001,-2.5544011820463246,121.33132387458885,1
1767381240.3172832,2,right_wrist,-0.0063,0.0112,-0.9682,1.05,-2.52,-0.7,0.006614642356962928,0.6573637169489968,0.7535435922481372,0.0011156734567886138,179.4053597427634,0.4871366618449212,97.79697610165641,1
1767381240.370822,1,left_wrist,0.0429,-0.0054,-0.9916,0.42,-1.12,-0.98,-0.018406762950227796,0.48946916177652006,0.8718172763922506,0.003970809927842476,-179.36385286885746,-2.0620530267753012,121.36575046094417,1
1767381240.370822,2,right_wrist,-0.002,0.0024,-0.9682,0.98,-2.59,-0.49,0.0022574107443951025,0.6572212269597411,0.7536939234221639,-0.0007954412417048222,179.89868865878302,0.25487282269262707,97.82290742999903,1
1767381240.435803,1,left_wrist,0.0468,-0.0102,-0.9887,0.21,-1.12,-1.12,-0.026383992838721258,0.48847784747407913,0.8721425126844787,0.007791984174808995,-179.30085304641497,-3.074455645391027,121.47577912531182,1
1767381240.435803,2,right_wrist,0.0029,0.0122,-0.9682,0.98,-2.45,-0.63,0.0033559664296869676,0.6570191647005971,0.7538598400125904,0.0031458419610426247,179.47556897506797,0.05306161274819469,97.85283734356956,1
1767381240.5195708,1,left_wrist,0.0468,-0.0102,-0.9887,0.21,-1.12,-1.12,-0.02113097364562642,0.48810514180365716,0.8725056535862085,0.006382551035631993,-179.4557117503053,-2.4704713471662263,121.54041665406714,1
1767381240.5195708,2,right_wrist,-0.0098,0.0093,-0.9687,0.98,-2.59,-0.7,0.0060215834713410014,0.656608278478566,0.7542066634439593,-0.001271999466132279,179.65683699685798,0.6161390330074735,97.91284359711453,1
1767381240.581135,1,left_wrist,0.0488,-0.0132,-0.9892,0.42,-1.05,-1.05,-0.023837703790958474,0.4873318852530177,0.8728661537847721,0.006638905835504571,-179.33206054483475,-2.756127528824126,121.63361339986977,1
1767381240.581135,2,right_wrist,-0.001,0.0107,-0.9682,0.98,-2.45,-0.35,0.004718508892872041,0.6565199255048075,0.7542902431560071,0.002356304021473237,179.44133762019496,0.23057771001983443,97.92748972621371,1
1767381240.634026,1,left_wrist,0.0366,-0.0044,-0.9906,0.07,-1.19,-1.4,-0.018410393937868374,0.4868156012677197,0.8732850906631116,0.006691650239082283,-179.64234789945425,-2.2161943845321175,121.71783681247263,1
1767381240.634026,2,right_wrist,0.0063,-0.0112,-0.9687,1.05,-2.59,-0.7,0.0006575446643694069,0.65630453634132,0.7544955184415465,-0.0006602003037960441,-179.992371784345,0.10650225347094443,97.96268186174106,1
1767381240.7215528,1,left_wrist,0.0449,-0.0044,-0.9906,0.35,-1.12,-0.77,-0.02162730723939132,0.4864389640572388,0.8733916550871111,0.009818892640717133,-179.77691168608493,-2.712868808342194,121.76312811116745,1
1767381240.7215528,2,right_wrist,0.0049,0.0054,-0.9677,0.98,-2.45,-0.42,0.002280160223030709,0.6559070850257886,0.7548365779836405,0.0015611599141827632,179.6935811170765,0.07989010859087316,98.02247462472141,1
1767381240.780813,1,left_wrist,0.0488,-0.0181,-0.9872,0.14,-1.12,-1.33,-0.024244015331664207,0.48601781601565597,0.8735948813338869,0.005558196038480708,-179.20524462190053,-2.7375830318175027,121.80292972918708,1
1767381240.780813,2,right_wrist,0.0039,0.0107,-0.9687,0.98,-2.52,-0.84,0.0026049191879744297,0.6556319948215589,0.7550559775771944,0.005511123957496757,179.3274344023339,-0.18866495973200673,98.06408159836585,1
1767381240.8323672,1,left_wrist,0.0439,0.0078,-0.9892,0.21,-1.05,-1.12,-0.01767370281784211,0.4849928610844172,0.8742417813602426,0.013071826571970677,179.67237708427223,-2.497836553430919,121.96777223705207,1
1767381240.8323672,2,right_wrist,-0.0059,0.0073,-0.9692,1.19,-2.59,-0.42,0.00522211908668314,0.6554835324790578,0.7551913949805773,-0.00015832975191162183,179.6214380671182,0.46381233154507073,98.08446206147835,1
1767381240.919275,1,left_wrist,0.0342,-0.0244,-0.9921,0.35,-1.12,-1.19,-0.018373309694643514,0.48464527893117787,0.8744827839382489,0.007825324031351031,-179.76359067923795,-2.2763469857243113,122.00416907110113,1
1767381240.919275,2,right_wrist,0.0063,0.0039,-0.9677,0.98,-2.45,-0.49,0.0014251902055119278,0.6551110569909632,0.7555289746919365,-0.0018547889400630454,-179.9464062261991,0.26262933034095337,98.14370816751001,1
1767381240.97997,1,left_wrist,0.0483,-0.0142,-0.9887,0.21,-1.33,-1.33,-0.02440931581951447,0.4838029989979603,0.8748216023827238,0.005099751594566188,-179.15700192022916,-2.730727453411535,122.09204595303345,1
1767381240.97997,2,right_wrist,-0.0073,0.0112,-0.9687,0.98,-2.59,-0.7,0.0060544740457873555,0.6548792114951032,0.7557093102997049,4.682419526553927e-06,179.54522101207797,0.5239607038183784,98.175116953322,1
1767381241.066304,1,left_wrist,0.0615,0.0088,-0.9862,0.14,-1.05,-0.91,-0.02428359606394508,0.4833302078505822,0.8750461231203709,0.009823418616995115,-179.6395721530471,-2.98040606076987,122.16264485889056,1
1767381241.066304,2,right_wrist,0.0112,0.022,-0.9711,1.12,-2.52,-0.35,0.003861606076439127,0.6545402464171819,0.756016598163871,-0.0010281631063739007,179.79942844946615,0.41166368199223347,98.22889091777202,1
1767381241.11964,1,left_wrist,0.0449,-0.0259,-0.9897,0.21,-1.19,-1.26,-0.02476208626013016,0.48297037973296963,0.875274472541434,0.004587930029063102,-179.08864484380828,-2.7385726630672482,122.19899713899443,1
1767381241.11964,2,right_wrist,-0.0039,0.0,-0.9687,0.98,-2.59,-0.77,-0.0005263042218702434,0.6542859579325434,0.7562422129683923,-0.0027062115269434824,-179.7260204085415,0.15729117636335327,98.26893999076252,1
1767381241.17419,1,left_wrist,0.0327,0.002,-0.9828,0.07,-1.19,-1.19,-0.01968892123432013,0.4825025774317897,0.8756512769712126,0.006200829863274403,-179.53320301885077,-2.3191121105368127,122.27914348063157,1
1767381241.17419,2,right_wrist,-0.0102,0.0068,-0.9677,1.05,-2.45,-0.56,0.004794953111124716,0.6541020841926197,0.7563872806730176,-0.0023986487051444283,179.848492268137,0.5954058436165127,98.29458803505322,1
1767381241.22988,1,left_wrist,0.0547,-0.0132,-0.9862,0.42,-1.19,-1.05,-0.028693084891286823,0.48159154428959977,0.875893643239058,0.007524432310122088,-179.17035934180936,-3.2969904415246156,122.36959896529123,1
1767381241.22988,2,right_wrist,0.0088,0.0024,-0.9677,0.98,-2.52,-0.56,0.0015370390422388084,0.6539334689595554,0.7565504702900242,-0.00020393491153442204,179.90250120562382,0.14853460168734467,98.32209593543236,1
1767381241.317128,1,left_wrist,0.0376,-0.0039,-0.9892,0.42,-1.19,-1.12,-0.023328989553538435,0.4811926032026638,0.8762757959231002,0.0070828206804563485,-179.42417309100125,-2.734141340877468,122.4409106577606,1
1767381241.317128,2,right_wrist,-0.0059,0.0024,-0.9633,1.19,-2.52,-0.7,0.0027777572320257064,0.6535140079947626,0.7569044990298938,-0.002702733373227891,-179.97359642103692,0.44333293166709736,98.3852191243737,1
1767381241.376719,1,left_wrist,0.0488,-0.0132,-0.9921,0.28,-1.05,-1.12,-0.026944635389292548,0.48081156172942585,0.8764019480487766,0.0037221213518961833,-178.88773273234693,-2.912334442862666,122.47162551326461,1
1767381241.376719,2,right_wrist,0.0049,0.0093,-0.9726,0.98,-2.52,-0.63,0.002369202425519991,0.6533179572739788,0.7570790484507335,0.0011610254753704205,179.7219040157598,0.11862007862220522,98.41490537968733,1
1767381241.4315479,1,left_wrist,0.0493,-0.0044,-0.9936,0.21,-1.05,-0.98,-0.021481291780847143,0.47986832186601214,0.8769968114154582,0.011897081156438831,179.98560015612526,-2.8141314127041475,122.62784315701093,1
1767381241.4315479,2,right_wrist,-0.001,0.0044,-0.9692,1.19,-2.59,-0.49,-0.001682707510576833,0.6531661865437258,0.7572099143549965,0.0020607896203447816,179.94713099729745,-0.3002542812239192,98.43829603210729,1
1767381241.485696,1,left_wrist,0.0522,-0.0078,-0.9887,0.21,-1.05,-1.05,-0.02509590828464783,0.4795389350157554,0.8771196874747083,0.00858248423207693,-179.48286822279837,-2.995383946889173,122.65385370963216,1
1767381241.485696,2,right_wrist,-0.0088,0.0088,-0.9672,1.05,-2.52,-0.7,0.0037577838272108907,0.6529256109159837,0.7574127174048939,3.440976459540187e-05,179.71585127572817,0.32357691252379683,98.47340950203902,1
1767381241.567424,1,left_wrist,0.0488,-0.0107,-0.9882,0.35,-1.26,-1.19,-0.02219682569313763,0.479201544905658,0.87741565528449,0.0038662838576699675,-179.1690657281701,-2.4448160935078516,122.69984892436177,1
1767381241.567424,2,right_wrist,-0.0005,0.0059,-0.9692,0.98,-2.59,-0.56,0.005647672123622504,0.6525310124648492,0.7577393912065882,0.0015480907763946578,179.4432556630932,0.3746352943957828,98.5310831822658,1
1767381241.6206348,1,left_wrist,0.0395,-0.0054,-0.9902,0.21,-1.19,-1.05,-0.01819669178745741,0.47874499464034814,0.8777372751293613,0.007027543190142576,-179.7083469007725,-2.2163312541167004,122.77553108982266,1
1767381241.6206348,2,right_wrist,-0.0083,0.0049,-0.9677,0.98,-2.52,-0.56,0.004733466102749601,0.6523301387121068,0.7579081191366722,-0.004274034769314452,-179.98263303300828,0.730611357460624,98.56307375980919,1
1767381241.675853,1,left_wrist,0.0478,-0.0112,-0.9926,0.28,-1.12,-1.19,-0.02725750532806387,0.47776441124233154,0.8780352853765041,0.007227266935697846,-179.23371389867444,-3.1397736254571575,122.87521600553613,1
1767381241.675853,2,right_wrist,0.001,0.0068,-0.9672,0.98,-2.45,-0.63,0.003449882552615712,0.6521438100063008,0.758087160650138,-0.0006373682221186488,179.79755395488496,0.34732540804766915,98.59191645122834,1
1767381241.73054,1,left_wrist,0.041,-0.0112,-0.9906,0.21,-1.19,-1.19,-0.02214494109570709,0.4773803838025909,0.8784021450552755,0.00521941631307246,-179.31328355643083,-2.515383412649562,122.93990337113753,1
1767381241.73054,2,right_wrist,-0.0024,0.0073,-0.9697,1.05,-2.45,-0.56,0.003855016893460368,0.6519696442415897,0.7582280163850972,0.003316172638278635,179.42384973558043,0.08719709589506652,98.61774815784587,1
1767381241.7847722,1,left_wrist,0.0454,-0.0054,-0.9892,0.28,-1.05,-1.12,-0.02077673481968686,0.4768439369253309,0.8786877706378509,0.009797389410808184,-179.8510558930147,-2.6282870826424793,123.02122177928702,1
1767381241.7847722,2,right_wrist,-0.0078,0.0054,-0.9672,0.91,-2.52,-0.63,0.005720647045078617,0.6517439137996605,0.7584132951670506,-0.0025335225166613204,179.79292464857627,0.6863995349343099,98.65040242685063,1
1767381241.8718479,1,left_wrist,0.0483,-0.0117,-0.9877,0.21,-1.05,-1.12,-0.024033411886321954,0.4764854951115222,0.878832862589069,0.00606363710428255,-179.29756819201057,-2.752469204026046,123.05180772251045,1
1767381241.8718479,2,right_wrist,0.0015,0.0068,-0.9687,1.05,-2.52,-0.7,0.0010033476512803618,0.6513733105573023,0.7587502720191973,0.0031350116275527477,179.6525270703802,-0.14676588939433918,98.70946448536972,1
1767381241.930068,1,left_wrist,0.0395,-0.0049,-0.9892,0.21,-1.19,-1.05,-0.017926420183107406,0.47557512746061603,0.8794163243468277,0.01157022353080039,179.8107885706637,-2.437788176446362,123.1963133969132,1
1767381241.930068,2,right_wrist,-0.0078,0.0049,-0.9682,1.05,-2.45,-0.56,0.004987207107575835,0.651173593934293,0.7589109317668854,-0.0015086327188184349,179.75904586645143,0.5462923408881623,98.7372278791206,1
1767381241.982543,1,left_wrist,0.0478,-0.0044,-0.9882,0.28,-1.19,-1.19,-0.02205635283767794,0.47516887706922645,0.879570789227556,0.009125913756124475,-179.71851905571694,-2.72102225190064,123.23498492511452,1
1767381241.982543,2,right_wrist,0.0015,0.0044,-0.9697,0.98,-2.45,-0.7,0.0018242739192308559,0.6509610679095164,0.7591084632271174,0.000837345647641087,179.79107964005098,0.09622743080118494,98.7714235488714,1
1767381242.070494,1,left_wrist,0.0415,-0.0098,-0.9906,0.14,-1.12,-1.12,-0.01993298011765838,0.4748508829111047,0.8798306762242026,0.004158903345331944,-179.33415205404845,-2.2365364522193882,123.27489737478658,1
1767381242.070494,2,right_wrist,-0.0049,0.0054,-0.9697,0.98,-2.52,-0.7,0.004427379816412676,0.650536627018222,0.7594611426078586,-0.0011260925725493517,179.7679494994972,0.46925623617509055,98.83387852950689,1
1767381242.127249,1,left_wrist,0.0425,-0.0068,-0.9877,0.28,-1.12,-1.12,-0.020564215000007272,0.4743139291208902,0.8800723169159848,0.008725061688443891,-179.7619624388476,-2.548946122584601,123.3499147811612,1
1767381242.127249,2,right_wrist,-0.0034,0.0068,-0.9687,1.12,-2.52,-0.63,0.0034805125009198645,0.6503465785825057,0.7596253178400207,0.0025671492374436176,179.51714911975614,0.11165220625641223,98.8631370040604,1
1767381242.179775,1,left_wrist,0.0498,-0.0122,-0.9902,0.28,-1.19,-1.05,-0.028068835489545304,0.47343666538426343,0.8803344083318193,0.009010763072871908,-179.3851645792992,-3.322264931970172,123.44016655510946,1
1767381242.179775,2,right_wrist,0.0024,0.0059,-0.9677,1.05,-2.45,-0.56,-0.0008801611549030291,0.6501807312222311,0.759774515671816,0.0026319953122172736,179.83642315632187,-0.2727285567120732,98.88955243516918,1
1767381242.2380118,1,left_wrist,0.0429,-0.0102,-0.9906,0.28,-1.19,-1.12,-0.02320120665470157,0.4730893146813488,0.8806854048000552,0.006436001574004356,-179.39104764300208,-2.6913436048795107,123.4978140748261,1
1767381242.2380118,2,right_wrist,-0.0049,0.0088,-0.9682,1.05,-2.52,-0.56,0.004607480818412961,0.6499813588461689,0.7599356972568607,0.0008604113694640409,179.5818863970514,0.3371461026725346,98.91730036842412,1
1767381242.3184252,1,left_wrist,0.0429,-0.0102,-0.9906,0.28,-1.19,-1.12,-0.01820716001725905,0.4727227859848711,0.8810133864973648,0.004132765085551095,-179.4305694602993,-2.0624521763308135,123.55666471768528,1
1767381242.3184252,2,right_wrist,0.0034,0.0083,-0.9677,0.91,-2.52,-0.56,0.0018063681800252792,0.6495945939692508,0.7602765928698432,0.0017614920224656827,179.71207278008293,0.026251065008789994,98.97753647061697,1
1767381242.370025,1,left_wrist,0.0488,-0.0044,-0.9892,0.21,-1.19,-1.05,-0.02095888320497088,0.4722294582298999,0.8811930128686165,0.0076771131440115875,-179.64070197120896,-2.5326312433750204,123.61853271402562,1
1767381242.370025,2,right_wrist,-0.0034,0.0049,-0.9677,1.05,-2.45,-0.7,0.0061637019295153065,0.6493426578553099,0.76046693634469,-0.0024819739014237245,179.75763087065178,0.7218247985673247,99.01219440614291,1
1767381242.423163,1,left_wrist,0.042,-0.0049,-0.9906,0.14,-1.12,-1.12,-0.015603574159102752,0.4717952702052622,0.8815331139169504,0.008069730682614589,-179.9715685990076,-2.012908601587932,123.68824785055155,1
1767381242.423163,2,right_wrist,-0.0049,0.0068,-0.9677,1.05,-2.38,-0.56,0.004220509488052693,0.6491848789646625,0.7606184584800592,0.0008607222062349306,179.61100222858013,0.3038328731567138,99.0377144910575,1
1767381242.473403,1,left_wrist,0.0454,-0.0054,-0.9902,0.07,-1.19,-1.19,-0.022369086450502302,0.4708829491497297,0.8818542381822566,0.010098255860041289,-179.81321695593596,-2.8064804925766995,123.79374223664611,1
1767381242.473403,2,right_wrist,0.0034,0.0044,-0.9682,1.05,-2.59,-0.63,0.0002963677855677421,0.6489943509685658,0.7607905799638383,0.001984443325493709,179.8049544021482,-0.12174430547634486,99.06836426996477,1
1767381242.574538,1,left_wrist,0.0454,-0.0054,-0.9902,0.07,-1.19,-1.19,-0.01963665198137169,0.47053522518660706,0.8821461804840524,0.005396296410452335,-179.48628460455768,-2.27656439192211,123.83902785067673,1
1767381242.574538,2,right_wrist,-0.0034,0.0049,-0.9687,1.05,-2.52,-0.63,0.0013789150983027649,0.6486022015357422,0.761126318151196,-0.00010282871436832567,179.90648135613222,0.12790989760096794,99.12720910285823,1
1767381242.6346729,1,left_wrist,0.0454,-0.0107,-0.9906,0.21,-1.19,-1.19,-0.021909222005335287,0.46970688894963464,0.8825454682069961,0.0029868062660404946,-179.12202087338738,-2.377174294035546,123.93632924724507,1
1767381242.6346729,2,right_wrist,-0.001,0.0078,-0.9697,0.91,-2.52,-0.63,0.004444997815126808,0.6483895662922011,0.7612889396384255,0.0032191151014968225,179.3888962825223,0.14858955476611185,99.15715405608766,1
1767381242.729236,1,left_wrist,0.0439,-0.0078,-0.9902,0.21,-1.26,-1.12,-0.020829348789824804,0.46917181840986005,0.8828283706219031,0.007616499461870271,-179.65033008712638,-2.517491206376809,124.01623641912525,1
1767381242.729236,2,right_wrist,-0.0044,0.0049,-0.9677,1.05,-2.52,-0.56,0.006000155513399281,0.648024996578042,0.7615953790271238,0.0002838809173585211,179.52964093687058,0.5025739432748291,99.21045787557117,1
1767381242.8254778,1,left_wrist,0.0464,-0.0088,-0.9906,0.28,-1.33,-1.12,-0.02066161831589525,0.46830711420148896,0.883287885119507,0.00800351909791486,-179.70101805610147,-2.5216291110675813,124.12957701766413,1
1767381242.8254778,2,right_wrist,-0.0034,0.0063,-0.9672,0.98,-2.45,-0.56,0.00755591734746344,0.6476572673252946,0.7618942395740494,-0.00037402894423690464,179.47183933247044,0.6874572691557099,99.2636401888202,1
1767381243.283582,1,left_wrist,0.0449,-0.0073,-0.9877,0.14,-0.98,-1.05,-0.01903492404592244,0.4638704481955763,0.8856617308361994,0.008073257683751339,-179.80737224055025,-2.3616500644490626,124.70891177008897,2
1767381243.283582,2,right_wrist,-0.001,0.0073,-0.9697,1.05,-2.52,-0.56,0.0003730881150191178,0.6459804740954653,0.7633538385858052,-7.077409524229719e-05,179.9785734404966,0.03787445286005264,99.52153010400069,2
1767381243.3722339,1,left_wrist,0.0449,-0.0073,-0.9877,0.14,-0.98,-1.05,-0.023481476697211116,0.463482109755934,0.8857716424394899,0.006446056031022915,-179.40647670913503,-2.726802359807629,124.74403382206394,2
1767381243.3722339,2,right_wrist,-0.0029,0.0059,-0.9682,1.05,-2.45,-0.63,0.0018214956217869574,0.6455745726811873,0.7636941051197996,0.0012112251940148994,179.75925178162078,0.06980109131741623,99.58208433270684,2
1767381243.429541,1,left_wrist,0.0449,-0.0083,-0.9902,0.21,-1.19,-1.05,-0.01820056175515323,0.46306877211123143,0.8861055471860353,0.007280871742483891,-179.77333780314063,-2.235006265761896,124.81345640959888,2
1767381243.429541,2,right_wrist,-0.0024,0.0059,-0.9697,1.05,-2.52,-0.56,0.007170462870556542,0.6453715897053445,0.7638335818072196,0.0015345901641869407,179.33535198412812,0.514140200445043,99.60733141020859,2
1767381243.480287,1,left_wrist,0.042,-0.0078,-0.9902,0.14,-1.19,-1.12,-0.017613686984112188,0.46224156932728355,0.8865640761593985,0.005160279092047112,-179.59099930554217,-2.06320366250067,124.91887771352211,2
1767381243.480287,2,right_wrist,-0.0039,0.0049,-0.9682,0.98,-2.52,-0.56,0.0028575063083610686,0.6452055709107605,0.7640034309090781,-0.0006028951606989717,179.84151012414247,0.29474636738259286,99.63699921971649,2
1767381243.531714,1,left_wrist,0.042,-0.0078,-0.9902,0.14,-1.19,-1.12,-0.017613686984112188,0.46224156932728355,0.8865640761593985,0.005160279092047112,-179.59099930554217,-2.06320366250067,124.91887771352211,2
1767381243.531714,2,right_wrist,-0.0039,0.0088,-0.9682,1.05,-2.52,-0.63,0.005914530953993534,0.6449973675139863,0.7641572751164627,0.0026595319521816874,179.3299392845556,0.3213440040250625,99.66513093287207,2
1767381243.582944,1,left_wrist,0.0449,-0.0083,-0.9916,0.28,-1.12,-1.12,-0.02473017320122553,0.461379352261855,0.8868529628337888,0.003055184576906438,-179.00185841801186,-2.6757258464519618,125.00587735086737,2
1767381243.582944,2,right_wrist,-0.002,0.0059,-0.9677,0.98,-2.45,-0.63,0.0016883514710257087,0.6448085170988754,0.7643422707644761,0.00013736325401654843,179.86321657864696,0.13772834635206524,99.69705638928973,2
1767381243.672608,1,left_wrist,0.0449,-0.0083,-0.9916,0.28,-1.12,-1.12,-0.0213702076103224,0.46087091251907497,0.8871842149024118,0.0067442604129529906,-179.55660920162572,-2.529575989664948,125.08862239130599,2
1767381243.672608,2,right_wrist,-0.0034,0.0078,-0.9687,1.12,-2.52,-0.63,0.001846426860709797,0.6444289782692797,0.7646615157354548,0.0008056226269498618,179.79305607841218,0.10229880338499955,99.75386786551692,2
1767381243.729116,1,left_wrist,0.0464,-0.0098,-0.9906,0.14,-1.05,-1.12,-0.020742891756487924,0.459992935906287,0.8876545886035465,0.006750013997143704,-179.59283046668125,-2.4664835107410057,125.2038020315683,2
1767381243.729116,2,right_wrist,0.0015,0.0063,-0.9677,1.05,-2.52,-0.63,0.0016196618404479975,0.644221422915872,0.7648229697024953,0.004686146308813003,179.4697174094097,-0.20399188556247533,99.7851065683953,2
1767381243.779444,1,left_wrist,0.0449,-0.0083,-0.9892,0.21,-1.19,-1.12,-0.025313547130488237,0.45954111553182536,0.8877733632301367,0.006296269251702623,-179.30661852744413,-2.9079878274262567,125.24721658458247,2
1767381243.779444,2,right_wrist,-0.0034,0.0044,-0.9682,1.05,-2.52,-0.56,0.003563589986817424,0.6440302216848137,0.7649908473793662,-0.0011738010115536475,179.83989859608155,0.39901986315923976,99.81275607120236,2
1767381243.873632,1,left_wrist,0.0459,-0.0088,-0.9877,0.21,-1.12,-1.19,-0.019988005698132465,0.4590842066567425,0.8881419167660836,0.006790177437140588,-179.63923129173216,-2.392157607476375,125.32321108368657,2
1767381243.873632,2,right_wrist,-0.0015,0.0083,-0.9677,1.05,-2.45,-0.63,0.00820545836556747,0.6435999663429465,0.765313367590511,0.0026838710178386837,179.1594018963739,0.5216747008734138,99.87100835458081,2
1767381243.926303,1,left_wrist,0.0434,-0.0078,-0.9892,0.21,-1.19,-1.19,-0.019408716800946507,0.45819799302379366,0.8886115925408871,0.006880298180789197,-179.68126901357013,-2.3382422563577636,125.4391902471399,2
1767381243.926303,2,right_wrist,-0.0029,0.0063,-0.9682,1.12,-2.52,-0.56,0.0038641310023063338,0.6434428146804804,0.7654842889271021,0.000464901523723355,179.6742989747822,0.3046767886469861,99.90035804904852,2
1767381243.981472,1,left_wrist,0.0449,-0.0078,-0.9902,0.35,-1.26,-1.12,-0.02398165988177081,0.457745519026436,0.8887359147891121,0.006511034057199295,-179.40445171617569,-2.7849562261727616,125.48384736316088,2
1767381243.981472,2,right_wrist,-0.0024,0.0068,-0.9677,0.98,-2.52,-0.56,0.0023467319716160896,0.6432712250395793,0.765624471185807,0.003974041593374686,179.4783475055806,-0.08705193828020832,99.92700836094717,2
1767381244.034316,1,left_wrist,0.0449,-0.0078,-0.9902,0.35,-1.26,-1.12,-0.018643504580134952,0.457308835319505,0.8890848715630961,0.007009995244049018,-179.73699362340167,-2.267372142155906,125.55592800689,2
1767381244.034316,2,right_wrist,-0.002,0.0054,-0.9677,1.05,-2.52,-0.56,0.0033705788999374656,0.643079137982569,0.7657895342095254,-0.002061743105597194,179.93253928569212,0.447715842886295,99.9553689860214,2
1767381244.1170309,1,left_wrist,0.0439,-0.0088,-0.9887,0.28,-1.12,-1.05,-0.023094440019113486,0.456911395999713,0.8891958416004406,0.005420177698303806,-179.3423910875736,-2.6379151983228066,125.59232082016324,2
1767381244.1170309,2,right_wrist,-0.001,0.0068,-0.9692,1.05,-2.52,-0.63,0.0015226740313691162,0.6427053666942071,0.7660933758758491,0.005332215806213407,179.4197376471352,-0.25903890906105326,100.0121356503924,2
1767381244.1685498,1,left_wrist,0.0439,-0.0088,-0.9887,0.28,-1.12,-1.05,-0.018379576518223945,0.4564653358901751,0.8895190148584656,0.0075835679534866675,-179.8114732216816,-2.270724058729525,125.66612727748617,2
1767381244.1685498,2,right_wrist,-0.0015,0.0059,-0.9697,1.05,-2.45,-0.63,0.003454385140628019,0.6424927351024348,0.7662838235010708,-0.0005043852420983496,179.78995922179885,0.34046536364221025,100.04289324324823,2
1767381244.2290392,1,left_wrist,0.0434,-0.0093,-0.9916,0.21,-1.26,-1.12,-0.017394408058880477,0.455671300049024,0.889964068164771,0.0050058221626930344,-179.60198332296298,-2.035735685626991,125.76704628097022,2
1767381244.2290392,2,right_wrist,-0.0024,0.0049,-0.9667,1.12,-2.52,-0.63,0.0016394217177137782,0.6422959931611456,0.7664497098384395,0.0028305042202537408,179.63073357358454,-0.06434170937331166,100.07321407803683,2
1767381244.316365,1,left_wrist,0.0434,-0.0093,-0.9902,0.14,-1.12,-1.19,-0.021893465543427824,0.45517224561611647,0.8901161974110782,0.0056619867293326975,-179.4350229654475,-2.5292735399683823,125.82050857869096,2
1767381244.316365,2,right_wrist,-0.0005,0.0068,-0.9677,1.12,-2.52,-0.56,0.0031130136213086334,0.6419295874503043,0.7667560929320546,0.0013445644819459854,179.6528653655445,0.17461562572561207,100.12720962111688,2
1767381244.369468,1,left_wrist,0.0439,-0.0059,-0.9862,0.35,-1.26,-0.98,-0.0195922738294717,0.4546930090488461,0.8903774810179034,0.009917238754308303,-179.99100919806892,-2.516531331702206,125.89532481677516,2
1767381244.369468,2,right_wrist,-0.0034,0.0068,-0.9692,1.05,-2.52,-0.63,0.008216334036762512,0.6417023556983662,0.7669061564961805,0.0023506753113853255,179.1891788332273,0.5492140422878842,100.15485777759329,2
1767381244.427474,1,left_wrist,0.0439,-0.0073,-0.9897,0.14,-1.12,-1.12,-0.020331957177180577,0.4538091430872034,0.8908110941657914,0.009973348432142325,-179.96071684409932,-2.5950027600009498,126.00746229220024,2
1767381244.427474,2,right_wrist,-0.0039,0.0063,-0.9682,0.98,-2.45,-0.7,0.003912710713230251,0.6414950811216839,0.7671171600564849,0.00011974319316326007,179.70184445287373,0.33514702583164047,100.19160479931259,2
1767381244.4787252,1,left_wrist,0.0464,-0.0068,-0.9897,0.21,-1.26,-1.12,-0.02316711437122038,0.4534558820352411,0.890958125159392,0.005887874982844346,-179.39664831299856,-2.6721918764987627,126.0380100380404,2
1767381244.4787252,2,right_wrist,-0.0024,0.0049,-0.9687,1.05,-2.59,-0.56,0.0005155538979588827,0.6413238366986057,0.7672673184773791,0.002081509762318249,179.77909960620974,-0.10764212214832454,100.2187759870624,2
1767381244.573855,1,left_wrist,0.0464,-0.0068,-0.9897,0.21,-1.26,-1.12,-0.02070564105297182,0.45291987699550224,0.8912530217949156,0.010144584387570883,-179.96138686831864,-2.642116926858302,126.12127824923068,2
1767381244.573855,2,right_wrist,-0.0039,0.0054,-0.9692,1.05,-2.45,-0.56,0.0022567929262598064,0.6409326354942967,0.7675930145429526,0.0011080022048481732,179.73678778755084,0.11712912311021327,100.276630595869,2
1767381244.666131,1,left_wrist,0.0449,-0.0088,-0.9906,0.21,-1.05,-1.05,-0.02203240292890047,0.45209019382071547,0.8916449148473373,0.00991845246049371,-179.87186379157907,-2.7660672588789206,126.22420890053168,2
1767381244.666131,2,right_wrist,-0.0015,0.0068,-0.9672,1.05,-2.59,-0.56,0.0030669134289363835,0.6405622170495189,0.7678995216137497,-0.0009822606571912055,179.86131051031666,0.34197537623385676,100.33157965084686,2
1767381244.719501,1,left_wrist,0.0434,-0.0098,-0.9892,0.35,-1.12,-1.05,-0.021385853264532576,0.4517974251110244,0.8918524229973733,0.004581215658602703,-179.3604171616471,-2.4235097595658717,126.25445910472834,2
1767381244.719501,2,right_wrist,-0.001,0.0054,-0.9692,1.12,-2.45,-0.7,0.0020611834227209466,0.6403394304570258,0.7680844710529964,0.0027222512941489463,179.60915081344038,-0.01833486338699108,100.36523635620854,2
1767381244.774227,1,left_wrist,0.0454,-0.0083,-0.9902,0.21,-1.05,-1.12,-0.02144647675842232,0.45092919033587886,0.892294247436541,0.0037269195505171024,-179.2722277471306,-2.3861587661804986,126.36449086217341,2
1767381244.774227,2,right_wrist,-0.0005,0.0073,-0.9682,1.05,-2.45,-0.63,0.0075890605261228015,0.6401049729519065,0.7682479686941128,0.0017573730222714497,179.2885780071067,0.5392044593489566,100.39446043251046,2
1767381244.873578,1,left_wrist,0.0454,-0.0083,-0.9902,0.21,-1.05,-1.12,-0.022553927003642768,0.45037909439695656,0.892514630839428,0.008223469125096276,-179.67668302702057,-2.7321404276158914,126.43960794598856,2
1767381244.873578,2,right_wrist,-0.0044,0.0068,-0.9687,0.98,-2.52,-0.56,0.008471489609488994,0.6397434421996107,0.7685402976244964,0.001540439430928492,179.2432299032783,0.6331536092216536,100.44689993395544,2
1767381244.9253628,1,left_wrist,0.0444,-0.0098,-0.9911,0.28,-1.19,-0.98,-0.02117573623528904,0.4495708319933299,0.8929626769420469,0.007437257842270844,-179.6697848334308,-2.550816008817759,126.54581166164532,2
1767381244.9253628,2,right_wrist,-0.0024,0.0059,-0.9687,1.05,-2.52,-0.63,0.004024230138058906,0.6395641145826428,0.7687270708324617,0.0004893661813904613,179.66195433396905,0.31862961406968204,100.4796280565757,2
1767381244.978772,1,left_wrist,0.0444,-0.0088,-0.9897,0.21,-1.19,-1.12,-0.023427871838112044,0.44921681589686424,0.8931108038232093,0.0029119118944077433,-179.09109289960972,-2.5484128138092843,126.57682586102212,2
1767381244.978772,2,right_wrist,-0.0039,0.0068,-0.9682,0.91,-2.38,-0.56,0.003358018983861218,0.6393904728542152,0.7688624381661573,0.004370138322663877,179.36891765305376,-0.024335826763844437,100.50591956069529,2
1767381245.068144,1,left_wrist,0.0444,-0.0088,-0.9897,0.21,-1.19,-1.12,-0.020985045329586085,0.44868851886374067,0.8934129376304942,0.007180792910851975,-179.65585240150295,-2.5184160939462044,126.65913501461081,2
1767381245.068144,2,right_wrist,-0.0034,0.0059,-0.9682,1.05,-2.59,-0.7,0.002923545396426565,0.6389785568027161,0.7692172939685578,0.0016160100008487913,179.6434856133814,0.13937165592685613,100.5676449868521,2
1767381245.122118,1,left_wrist,0.0444,-0.0078,-0.9892,0.21,-1.12,-1.19,-0.02453781077204604,0.4482761370290778,0.893550064986095,0.0038317327866479924,-179.13086369818643,-2.7103490008172075,126.69543494917066,2
1767381245.122118,2,right_wrist,-0.001,0.0063,-0.9692,1.05,-2.52,-0.63,0.0003258810844176611,0.638780021609681,0.7693765300010547,0.004442170346863262,179.58449693794105,-0.29643185660153026,100.59831345815849,2
1767381245.17279,1,left_wrist,0.0449,-0.0083,-0.9892,0.14,-1.19,-1.19,-0.020710649196595127,0.44774555899177515,0.8938918926249245,0.007229641237896085,-179.67762399837486,-2.493167006609733,126.78090751054597,2
1767381245.17279,2,right_wrist,-0.0024,0.0063,-0.9682,1.05,-2.59,-0.63,0.004423203948225342,0.6385579026393586,0.7695610478835808,-0.0001839129716511583,179.69254867077382,0.40352198915329424,100.62924598986535,2
1767381245.225357,1,left_wrist,0.0454,-0.0088,-0.9911,0.28,-1.05,-1.12,-0.020402959282593898,0.4468550527201202,0.8943442698774067,0.007253140592874739,-179.69830272534585,-2.463144711938762,126.89591823702928,2
1767381245.225357,2,right_wrist,-0.0029,0.0059,-0.9682,0.98,-2.52,-0.7,0.0017742051232891851,0.6383419017434357,0.7697464993849947,0.0026067909967209054,179.6402811796739,-0.03418675952550643,100.66305464275106,2
1767381245.277869,1,left_wrist,0.0454,-0.0063,-0.9897,0.21,-1.12,-1.12,-0.02497509439315841,0.4463915267470569,0.8944582242544971,0.007438721125051341,-179.48421915025108,-2.941684192274775,126.94253050329728,2
1767381245.277869,2,right_wrist,-0.002,0.0068,-0.9672,0.98,-2.45,-0.63,0.006895905908151853,0.6381087619666761,0.7699152345657,-0.00043123857081818874,179.5337705473417,0.6399430055525156,100.6932517225204,2
1767381245.329982,1,left_wrist,0.0449,-0.0083,-0.9877,0.14,-1.26,-1.19,-0.01983879416996641,0.44598930359076894,0.8948022101472849,0.005382196952634906,-179.53759889711557,-2.309897588824071,127.00530693598004,2
1767381245.329982,2,right_wrist,-0.0024,0.0063,-0.9677,0.98,-2.52,-0.63,0.0030986307687558504,0.6379256988193397,0.7700910807402481,0.0009636584109097461,179.68844487018737,0.20299770446837107,100.7243134683449,2
1767381245.385178,1,left_wrist,0.0464,-0.0088,-0.9892,0.14,-1.12,-1.05,-0.02413878897896226,0.4455237272964727,0.8949190284518936,0.00677198620835813,-179.4614433125702,-2.8223100038295392,127.05509924307022,2
1767381245.385178,2,right_wrist,-0.0024,0.0068,-0.9697,1.05,-2.59,-0.63,0.004155320462244285,0.637718796213184,0.7702426834078319,0.004866099563930645,179.26682277569748,0.011161450207736746,100.75413533435979,2
1767381245.4670238,1,left_wrist,0.0464,-0.0068,-0.9906,0.21,-1.12,-1.05,-0.0190293452105807,0.44508980040165463,0.8952466827380842,0.008144362819027575,-179.86483212425725,-2.3682425810015606,127.12683188240568,2
1767381245.4670238,2,right_wrist,-0.0024,0.0078,-0.9677,0.98,-2.59,-0.56,0.004489735133871673,0.6373337123927735,0.7705690025170469,0.0029989474748111657,179.40727830284666,0.17742473164234676,100.81112630085529,2
1767381245.519478,1,left_wrist,0.0464,-0.0068,-0.9906,0.21,-1.12,-1.05,-0.023496392969518096,0.44469436568480386,0.8953488433949559,0.006729730821270898,-179.49253907043888,-2.754712558204659,127.16322507433097,2
1767381245.519478,2,right_wrist,-0.0029,0.0078,-0.9682,1.05,-2.52,-0.63,0.0016917772737593544,0.6371291182892721,0.7707532122604704,-0.0017636064631705707,-179.9677507134597,0.27818216349428715,100.84364208188504,2
1767381245.571488,1,left_wrist,0.0454,-0.0029,-0.9867,0.28,-1.12,-0.98,-0.019517200747745617,0.44423855577727134,0.8956413605975408,0.009886234009072944,179.97886891195566,-2.5071762556331927,127.23759415734163,2
1767381245.571488,2,right_wrist,-0.0044,0.0098,-0.9667,1.12,-2.52,-0.49,0.00530254661823167,0.63696686545915,0.7708721569707868,0.0011013236187679535,179.51565889725728,0.3880190255819507,100.86493872605985,2
1767381245.6269271,1,left_wrist,0.0459,-0.0156,-0.9902,0.28,-1.19,-1.12,-0.02511251537709962,0.44350559790725635,0.8959182660769467,0.0016145296649962852,-178.88821827427907,-2.6611784554540763,127.30067867447177,2
1767381245.6269271,2,right_wrist,0.001,0.0015,-0.9692,1.05,-2.45,-0.77,0.0008380931376696884,0.6367251849585638,0.7710903486000757,-0.00010361075667148494,179.94800496517217,0.08161409635762434,100.90381728546915,2
1767381245.684941,1,left_wrist,0.0429,-0.0102,-0.9897,0.07,-1.19,-1.05,-0.021105493852784086,0.4430421636238105,0.8962390233607054,0.004879793664897828,-179.42914234702576,-2.416021978828011,127.37838059177471,2
1767381245.684941,2,right_wrist,-0.0024,0.0044,-0.9692,0.91,-2.45,-0.56,0.0055399264598434885,0.636529000774935,0.7712309364981363,0.001727129262636196,179.44325534385828,0.36362378109571697,100.92968078422668,2
1767381245.770298,1,left_wrist,0.0429,-0.0102,-0.9897,0.07,-1.19,-1.05,-0.02557403444705354,0.4425864663644709,0.896344347204521,0.0054772061868137815,-179.26458729245314,-2.9058297066145715,127.42394337141862,2
1767381245.770298,2,right_wrist,-0.0054,0.0317,-0.9628,0.63,-3.01,-2.45,0.0056303418537350216,0.6355264848610594,0.7720558511024184,0.002036926428761313,179.40973436042495,0.3497834733041542,101.07841979468355,2
1767381245.820469,1,left_wrist,0.0517,0.0893,-0.9882,-0.28,-1.4,-1.47,-0.022832292834087015,0.4419113674836998,0.8967142108189711,0.009831266852994526,-179.8538285164928,-2.845170086118328,127.52712373795612,2
1767381245.820469,2,right_wrist,-0.0156,0.063,-0.9794,0.98,-2.59,-0.63,0.010041561596727016,0.6353014084831364,0.7721875165478278,0.004210309696483855,178.89629313161691,0.5820380519632301,101.10411904393115,2
1767381245.879761,1,left_wrist,0.0727,-0.0293,-0.9862,0.77,-1.12,-0.63,-0.03155267940198083,0.44146192275443247,0.8967098151181453,0.005225576647327867,-178.93872517186364,-3.5087506067140333,127.5442450550854,2
1767381245.879761,2,right_wrist,0.0307,-0.0224,-0.9677,1.19,-2.59,-0.35,0.005614663684092162,0.6352316143298595,0.7722969898011833,0.002575121672064401,179.36337903928123,0.30944330874998194,101.12215270158742,2
1767381245.934168,1,left_wrist,0.0288,-0.0142,-0.9921,0.63,-1.05,-0.63,-0.026533553807114856,0.4412957305697569,0.8969637461805787,0.0031759629990993025,-178.98332513609222,-2.8890660127206247,127.58106258268116,2
1767381245.934168,2,right_wrist,-0.0249,0.0376,-0.9672,0.91,-2.66,-1.19,0.011100349049349043,0.6348025365414595,0.7725897228110968,0.002764427279579367,178.94762907640416,0.7816704772807846,101.17597946074103,2
1767381246.021118,1,left_wrist,0.0571,-0.0137,-0.9872,-0.21,-1.12,-1.33,-0.028991941579901048,0.4406463592074316,0.8971844330854414,0.007095524633024012,-179.26428937172827,-3.3408313181935343,127.66321321474831,2
1767381246.021118,2,right_wrist,0.0093,0.0429,-0.9682,0.84,-2.66,-0.7,0.008846367340161055,0.6345378141941974,0.7728365350324147,0.002682212076717025,179.11913763710564,0.5884186208591798,101.22002989939996,2
1767381246.0790799,1,left_wrist,0.041,-0.0034,-0.9906,0.49,-1.26,-0.77,-0.01826365141613711,0.4400544383021287,0.897756128507416,0.007243210263658894,-179.8240394867354,-2.244702245813538,127.77100136777693,2
1767381246.0790799,2,right_wrist,-0.0073,-0.0044,-0.9672,1.19,-2.52,-0.35,0.005700337309780411,0.6344284898188086,0.7729584045044925,-0.0018172414946929323,179.7465294033451,0.6370314295595102,101.24168849569989,2
1767381246.132128,1,left_wrist,0.0561,-0.0015,-0.9872,0.56,-1.05,-0.7,-0.02223002122059226,0.43971734256451356,0.897811747825487,0.009410115359455037,-179.84782718968583,-2.7622870683138747,127.80828140935661,2
1767381246.132128,2,right_wrist,-0.0132,0.0161,-0.9692,0.98,-2.31,-1.12,0.010090929153203962,0.6340525534707928,0.7732240324371827,0.00035811670565303634,179.23498119714654,0.868119750840432,101.289914979973,2
1767381246.2211368,1,left_wrist,0.0493,-0.0176,-0.9902,0.14,-1.26,-1.26,-0.024398614547716052,0.439320725287304,0.89798561727591,0.004882530777389506,-179.27327318306743,-2.7575187435214783,127.84405419842118,2
1767381246.2211368,2,right_wrist,-0.0005,0.02,-0.9667,0.91,-2.59,-0.77,0.006944303691498868,0.633797580283361,0.7734589725918538,0.003690743874991144,179.16848812863753,0.3474379449329806,101.33285481572919,2
1767381246.280787,1,left_wrist,0.0478,-0.0322,-0.9906,0.35,-0.98,-1.47,-0.022782527319109826,0.4384066101022698,0.8984818976901883,0.003298513396757765,-179.19426720308255,-2.5121680573681315,127.96299495879657,2
1767381246.280787,2,right_wrist,-0.0132,0.0088,-0.9687,1.26,-2.31,-0.56,0.00866954907871402,0.6335801143164029,0.7736253724139308,-0.002204726511965822,179.56595521651394,0.928673927033512,101.36322020371104,2
1767381246.3397062,1,left_wrist,0.0522,0.0107,-0.9867,0.14,-1.19,-0.7,-0.021810977784723243,0.4380221634133371,0.8986640049871923,0.007991980177255402,-179.72794462103045,-2.648168770283929,128.02313052733172,2
1767381246.3397062,2,right_wrist,0.0088,-0.0024,-0.9682,0.98,-2.45,-0.98,0.004460051969925397,0.6332752236802568,0.7739119491091303,-0.0017011864251764153,179.82720325653176,0.518993038886061,101.41379288267233,2
1767381246.422553,1,left_wrist,0.0337,-0.0239,-0.9906,0.35,-1.12,-1.26,-0.020889561783534995,0.43763841333654546,0.8989043571385363,0.0026836725056639237,-179.22819400196434,-2.2869604964273247,128.0656210047347,2
1767381246.422553,2,right_wrist,-0.0093,-0.0049,-0.9697,0.98,-2.59,-0.77,0.004223300324359416,0.6329765508161038,0.774152415560988,-0.003299595794342491,179.98637886301393,0.6139984716408265,101.45844125082324,2
1767381246.476366,1,left_wrist,0.0459,0.0176,-0.9897,0.14,-0.98,-1.19,-0.017877749098833433,0.4365091892561646,0.8994428046693584,0.011948008645932928,179.66247762638793,-2.4410147077286664,128.2316033339041,2
1767381246.476366,2,right_wrist,-0.0015,0.0234,-0.9687,1.19,-2.38,-0.56,0.006267432773834649,0.6328057451859895,0.7742851276068021,0.000386410336445521,179.51121060474242,0.5280748652009636,101.48104105135732,2
1767381246.536027,1,left_wrist,0.0332,0.0117,-0.9911,0.0,-1.19,-0.91,-0.01244667308594868,0.4361240841814589,0.8997157959143641,0.012343018599890555,179.34910145314274,-1.9004548200059215,128.28857622034454,2
1767381246.536027,2,right_wrist,0.0107,-0.0078,-0.9677,0.91,-2.66,-0.77,0.0019152181475096228,0.6325634631558874,0.774505881382577,-0.000660850569536941,179.91982376302127,0.2178823536876291,101.52064658032069,2
1767381246.621367,1,left_wrist,0.0425,-0.021,-0.9892,0.42,-1.12,-1.05,-0.015461511022579354,0.43579021864591727,0.8998772705458764,0.00829005213167047,179.91720777517168,-2.0087644682419064,128.32173613523713,2
1767381246.621367,2,right_wrist,0.0049,-0.0044,-0.9677,1.05,-2.59,-0.77,0.002835570425851422,0.6321944695869111,0.7748035733790919,-0.0012388878376745978,179.9045736047243,0.34151101074570395,101.57484249278323,2
1767381246.6767402,1,left_wrist,0.0395,-0.0268,-0.9911,0.42,-1.19,-0.98,-0.019761175956457096,0.43498073889084315,0.9001995530959073,0.0064820771919936356,-179.68339155734478,-2.362238539900339,128.413360213016,2
1767381246.6767402,2,right_wrist,0.0005,0.0185,-0.9687,1.12,-2.45,-0.56,0.004968330667585052,0.6320122267542818,0.7749386542168355,0.002437852348139258,179.42367662760148,0.26463857164124904,101.59976285043675,2
1767381246.7349172,1,left_wrist,0.04,0.0102,-0.9897,0.14,-0.98,-1.05,-0.016990915706181702,0.43448072670122423,0.9004581067582678,0.010630375438224472,179.7488463421068,-2.2830732961324376,128.48938583751226,2
1767381246.7349172,2,right_wrist,-0.0063,-0.0146,-0.9692,1.12,-2.52,-0.56,0.002650458167469557,0.6318227157404009,0.7751035679377831,-0.002736771098485581,-179.94881490547198,0.4335651665188897,101.63006058153232,2
1767381246.818275,1,left_wrist,0.04,0.0102,-0.9897,0.14,-0.98,-1.05,-0.014878019689809011,0.4339691867262407,0.9006786244935869,0.015079949688747249,179.18278987168608,-2.2860833477724256,128.56447636728953,2
1767381246.818275,2,right_wrist,0.0127,-0.0029,-0.9687,1.12,-2.45,-0.63,0.0021569307374404685,0.6314737271868811,0.7753942686456886,8.760091354601973e-05,179.83613638911513,0.18531252758194655,101.68164688443551,2
1767381246.87025,1,left_wrist,0.042,0.0029,-0.9911,0.14,-1.12,-1.26,-0.017529157939367077,0.43357564291620776,0.9008809874391752,0.010878279383725053,179.74770616660973,-2.350730874672146,128.60405024476967,2
1767381246.87025,2,right_wrist,-0.0098,0.0171,-0.9682,1.05,-2.59,-0.63,0.0072416635883774325,0.6312501689796621,0.7755445445158863,0.0012008094216596275,179.36940798830983,0.5567199403858624,101.70958727551961,2
1767381246.923732,1,left_wrist,0.0376,-0.0195,-0.9887,0.35,-1.19,-0.98,-0.020234696844759256,0.43298090609358497,0.9011755796600857,0.0008164718535742739,-179.07967506897776,-2.1305797744434725,128.65782520405745,2
1767381246.923732,2,right_wrist,-0.0029,-0.0098,-0.9682,1.12,-2.52,-0.49,0.0036028803515412624,0.6310901415336515,0.7756967374185497,-0.0026122921784732093,179.9716494145587,0.5091753152547966,101.73775668400823,2
1767381246.9744482,1,left_wrist,0.0376,-0.0195,-0.9887,0.35,-1.19,-0.98,-0.020234696844759256,0.43298090609358497,0.9011755796600857,0.0008164718535742739,-179.07967506897776,-2.1305797744434725,128.65782520405745,2
1767381246.9744482,2,right_wrist,0.0029,0.0264,-0.9687,1.05,-2.45,-0.56,0.005452214208746318,0.6309149150570008,0.7758319720237397,0.001180891440587385,179.5008142426779,0.3993502419797112,101.761499054783,2
1767381247.0273569,1,left_wrist,0.0478,-0.0088,-0.9892,0.42,-1.26,-1.12,-0.02492579619429741,0.43187994853862904,0.9015479612327434,0.008347953727428128,-179.62834432196044,-2.9895735641906835,128.79748224884284,2
1767381247.0273569,2,right_wrist,0.0005,0.0005,-0.9687,1.05,-2.52,-0.56,0.001071166251573162,0.6307410370222382,0.7759924156553586,-0.0006063533079686025,179.97649686396997,0.13907633666591349,101.79026874054411,2
1767381247.08382,1,left_wrist,0.0498,-0.0112,-0.9892,0.35,-1.12,-0.84,-0.02492618026180022,0.43167249134301255,0.9016808729973982,0.0030247356781363606,-179.07844920751617,-2.7261481419528124,128.81328082118233,2
1767381247.08382,2,right_wrist,-0.0107,0.0127,-0.9667,0.91,-2.52,-0.7,0.006462046800673825,0.6304952753217264,0.7761661683249084,-0.00016998810594299685,179.54821146252294,0.5870397721411921,101.82239560877302,2
1767381247.167189,1,left_wrist,0.0478,-0.0049,-0.9897,0.07,-1.12,-1.12,-0.0226169084461903,0.4311320581953254,0.9019747359482052,0.007429640621495136,-179.65015785889437,-2.7057142681578963,128.89736592905126,2
1767381247.167189,2,right_wrist,-0.0034,0.0146,-0.9682,0.98,-2.52,-0.63,0.005711743932255365,0.6301340498568399,0.776461536054389,0.002436846390067318,179.3707222232871,0.3322497263909994,101.87635598599057,2
1767381247.223584,1,left_wrist,0.0366,-0.0015,-0.9906,0.42,-1.12,-0.98,-0.01725875662592825,0.4307580134149399,0.9022758127986696,0.006930139756266116,-179.86452230659467,-2.1270066945693737,128.95667256941002,2
1767381247.223584,2,right_wrist,-0.0083,0.0039,-0.9682,0.98,-2.38,-0.49,0.004760581115401668,0.6299565928558277,0.7766086399859505,-0.003323895920889717,179.95214413228723,0.6636166840653528,101.90431585500146,2
1767381247.27426,1,left_wrist,0.0464,-0.0088,-0.9892,0.28,-1.19,-1.19,-0.021782424954666094,0.43029371815102635,0.9024068882543369,0.005886434743046299,-179.53419321870192,-2.543565501482932,129.0033446894164,2
1767381247.27426,2,right_wrist,0.0,0.0073,-0.9677,0.91,-2.52,-0.7,0.003581915530474171,0.6297407190567575,0.7767970631424095,0.0003454509199077013,179.71076319851696,0.29391453788483185,101.93666494980157,2
1767381247.332171,1,left_wrist,0.0503,-0.0049,-0.9887,0.14,-1.12,-0.91,-0.02171500606776706,0.4295915043976789,0.9027490363136094,0.004875991762249653,-179.4348904866172,-2.487175575394731,129.09094859187374,2
1767381247.332171,2,right_wrist,0.001,0.0039,-0.9697,1.05,-2.52,-0.42,-0.0002009505010845759,0.6296125421742534,0.7769072620853957,0.0017642207186798035,179.85743432553076,-0.14517567380611493,101.95694945488616,2
1767381247.424118,1,left_wrist,0.04,-0.0098,-0.9892,0.28,-1.12,-1.12,-0.016846756070626002,0.42921374725229616,0.9030427472919129,0.0023542606085725356,-179.4147076135378,-1.859439427595371,129.1472755798784,2
1767381247.424118,2,right_wrist,-0.001,0.0063,-0.9682,1.12,-2.52,-0.63,0.0018749899311764886,0.62917122319194,0.7772619849662177,0.0019654633782093204,179.68975674178648,0.02529556011392315,102.02158265698769,2
1767381247.484303,1,left_wrist,0.0498,-0.0166,-0.9872,0.28,-1.19,-1.19,-0.025923103386695096,0.4281826211267727,0.9033157113548843,0.002891590432378106,-179.02613788479485,-2.826386764032162,129.25293408063052,2
1767381247.484303,2,right_wrist,-0.0005,0.0054,-0.9687,0.91,-2.59,-0.7,0.002504152401647358,0.6289363071568719,0.7774522218624719,0.0009452416261147719,179.7353107754676,0.15496946701355643,102.05593250437,2
1767381247.572427,1,left_wrist,0.0429,-0.001,-0.9931,0.14,-1.05,-0.91,-0.021912244246870386,0.42776384467645023,0.9036043465132445,0.006093578756346354,-179.55641503128413,-2.5684687478030104,129.32456064416897,2
1767381247.572427,2,right_wrist,-0.001,0.0059,-0.9677,1.05,-2.45,-0.7,0.003288738486422694,0.6285726639918114,0.7777432873423245,0.0009845178311407136,179.6753678767118,0.22218823678158237,102.10903561203773,2
1767381247.631766,1,left_wrist,0.042,-0.0151,-0.9911,0.14,-1.12,-1.19,-0.02175669761631056,0.42688276911977463,0.9040283166486315,0.005527226692222961,-179.5078277763335,-2.5250571733933715,129.4357287594313,2
1767381247.631766,2,right_wrist,-0.001,0.0073,-0.9677,0.98,-2.52,-0.49,0.0023612738106645985,0.6284177164840176,0.7778581293044223,0.004725322214280139,179.40875323107514,-0.12980257267379014,102.13241656056209,2
1767381247.722927,1,left_wrist,0.042,-0.0151,-0.9911,0.14,-1.12,-1.19,-0.022269343726499115,0.42651319046048575,0.9042070794929,0.0003634393056409945,-178.94832223172693,-2.3258286248323596,129.47228086848773,2
1767381247.722927,2,right_wrist,-0.0044,0.0098,-0.9672,0.98,-2.45,-0.56,0.005856132959130513,0.6280194694398765,0.7781719475995155,0.002381529004215618,179.36616875391152,0.35081643580086,102.18790495267906,2
1767381247.7775621,1,left_wrist,0.0488,-0.0127,-0.9892,0.28,-1.12,-1.12,-0.027886538074971795,0.42540210765120895,0.9045452738488847,0.00729625642015206,-179.3959004204512,-3.2479438213472527,129.6082437455062,2
1767381247.7775621,2,right_wrist,0.0015,0.0044,-0.9687,1.12,-2.45,-0.63,0.0013835039732194203,0.6278314872297224,0.7783471376785189,0.00120117747549942,179.79332900178105,0.03697976627489825,102.2191497832832,2
1767381247.828623,1,left_wrist,0.0429,-0.0054,-0.9887,0.28,-1.12,-1.05,-0.02251485452687625,0.42501859651460483,0.9048804066866928,0.006612377553867772,-179.58864922906682,-2.657601635063954,129.67195693978442,2
1767381247.828623,2,right_wrist,-0.0068,0.0088,-0.9677,1.05,-2.52,-0.56,0.00694941276885152,0.6276242923685579,0.7784852964513325,0.00031064467834329766,179.4724470412992,0.5976112606331497,102.2448857530481,2
1767381247.879127,1,left_wrist,0.0483,-0.0044,-0.9877,0.14,-1.19,-1.19,-0.023541166300296387,0.42443006830701757,0.9050863019086384,0.011122801062111722,179.99133474869467,-2.983896297050735,129.75282137611987,2
1767381247.879127,2,right_wrist,-0.0044,0.0034,-0.9687,1.05,-2.59,-0.63,0.0025624362221435136,0.6274276202602423,0.7786697340396911,-0.001208530402298515,179.92360094567556,0.31553597138314876,102.27823708814901,2
1767381247.9692822,1,left_wrist,0.0483,-0.0044,-0.9877,0.14,-1.19,-1.19,-0.022237798213972697,0.4240865596033271,0.9053291270830466,0.005936493026810451,-179.5347027743088,-2.5964003344132234,129.7895170062553,2
1767381247.9692822,2,right_wrist,-0.0034,0.0029,-0.9697,1.12,-2.59,-0.7,0.0018005101144223793,0.6270094639865004,0.779005932700945,-0.002376352545416193,-179.91723416238568,0.33146980478875604,102.34017103078439,2
1767381248.0242062,1,left_wrist,0.0415,-0.0054,-0.9902,0.35,-1.05,-1.05,-0.01701336034662488,0.42366002817687215,0.9056365883417679,0.006715351932041131,-179.87085938599265,-2.0920986050108477,129.8569204186392,2
1767381248.0242062,2,right_wrist,-0.0063,0.0098,-0.9687,1.05,-2.52,-0.56,0.005739727474433263,0.6268233613432034,0.7791402032607052,0.00026993664840693434,179.56360192791254,0.4930763568837757,102.36431462839984,2
1767381248.077101,1,left_wrist,0.0444,-0.0063,-0.9882,0.35,-1.05,-1.12,-0.021943216148664606,0.4226936922398599,0.9059505375657494,0.010107486829927572,-179.98641926505982,-2.7686743081333542,129.97452956803852,2
1767381248.077101,2,right_wrist,0.0024,0.0039,-0.9687,1.05,-2.52,-0.63,0.0016373583870658653,0.6266321028779692,0.7793128513362754,0.0010032160141598878,179.7928361179961,0.07418282284763407,102.3955360472709,2
1767381248.1415858,1,left_wrist,0.0439,-0.0088,-0.9902,0.35,-1.19,-1.05,-0.021539526114134046,0.42239523453984573,0.906143278485682,0.004761670718015196,-179.45134123857426,-2.4678280021577206,130.00338158154707,2
1767381248.1415858,2,right_wrist,-0.0044,0.0102,-0.9687,0.98,-2.52,-0.63,0.006718975732013571,0.6264044266069929,0.7794662390937351,0.002175271326828969,179.3233756639317,0.4440026352193045,102.42439564598581,2
1767381248.2158232,1,left_wrist,0.0459,-0.0068,-0.9887,0.14,-1.12,-1.19,-0.02330340466225976,0.4218138707512958,0.9063381865395777,0.009005631188629784,-179.80867450868618,-2.8567439082939545,130.08026825957737,2
1767381248.2158232,2,right_wrist,-0.0029,0.0093,-0.9701,0.98,-2.52,-0.63,0.0048687200341904595,0.6260201648037858,0.7797884629684849,0.002236480609652266,179.4508741439,0.27461854836017713,102.48315544572479,2
1767381248.267712,1,left_wrist,0.0464,-0.0073,-0.9911,0.21,-1.19,-1.05,-0.021788538332818325,0.4215185277562855,0.9065498773073076,0.0038354021429665773,-179.34538047570265,-2.449463382072309,130.11197287010373,2
1767381248.267712,2,right_wrist,-0.001,0.0049,-0.9687,1.05,-2.45,-0.56,0.000516934951861382,0.6258481092864092,0.7799447624736606,0.00021064374573108221,179.94410070224362,0.031094388781345135,102.511043449919,2
1767381248.323311,1,left_wrist,0.0425,-0.0044,-0.9882,0.21,-1.12,-1.19,-0.018110743233972586,0.4205744261826567,0.9070582367708897,0.005874361814401369,-179.73756566856943,-2.16607927008497,130.2436901156018,2
1767381248.323311,2,right_wrist,-0.0034,0.0088,-0.9701,1.05,-2.59,-0.63,0.0053903367723922855,0.6256246122627372,0.7801037020669009,0.0017328652849898055,179.4586346048816,0.35763094686508445,102.54074327326224,2
1767381248.3764338,1,left_wrist,0.0468,-0.0088,-0.9882,0.28,-1.26,-1.19,-0.02265469024695151,0.42008774451197767,0.907183492927567,0.005582300636221049,-179.489205593646,-2.6247228152453115,130.29359813000505,2
1767381248.3764338,2,right_wrist,0.0005,0.0049,-0.9687,1.05,-2.45,-0.56,0.0009631067662175349,0.6254571462992008,0.7802569972057087,0.0012036943748329936,179.82334847036952,-0.0001591052577003115,102.56839380397219,2
1767381248.426474,1,left_wrist,0.0405,-0.0068,-0.9921,0.14,-1.12,-1.12,-0.017245370645116324,0.4196668535029149,0.9074999640221608,0.005113175339492307,-179.70220378125245,-2.039702580126272,130.35901276531524,2
1767381248.426474,2,right_wrist,-0.0034,0.0073,-0.9682,0.98,-2.52,-0.63,0.00642524488617032,0.6252275228157151,0.7804149843225211,0.001308887602491932,179.42257563494704,0.48083237953062796,102.59782544759435,2
1767381248.480745,1,left_wrist,0.0439,-0.0078,-0.9902,0.28,-1.19,-1.12,-0.02177256218999824,0.41919462378266237,0.9076188417621426,0.005464522462372002,-179.52199910601345,-2.5277799435837642,130.4086156193314,2
1767381248.480745,2,right_wrist,-0.0039,0.0059,-0.9687,1.05,-2.52,-0.63,0.0020080665396544723,0.625034465389196,0.7805945689458238,-6.0635778501533405e-05,179.86159789215023,0.18396391888188343,102.63015831589955,2
1767381248.573869,1,left_wrist,0.0439,-0.0078,-0.9902,0.28,-1.19,-1.12,-0.021087399120049047,0.41863744471330167,0.9078519840966423,0.010138365453032771,179.95684796347794,-2.6811072247029317,130.48935675031817,2
1767381248.573869,2,right_wrist,-0.0015,0.0049,-0.9701,1.05,-2.52,-0.56,0.0014339033717494045,0.6246638112842007,0.7808914129753075,-0.0012914853638295602,-179.9870737141997,0.22075740309585534,102.68482152295796,2
1767381248.626732,1,left_wrist,0.0434,-0.0063,-0.9906,0.21,-1.05,-1.12,-0.019307051501354287,0.4177941923138296,0.9082900522139867,0.009188671300707931,179.9679303353044,-2.4501844213464663,130.59782794005494,2
1767381248.626732,2,right_wrist,-0.0044,0.0068,-0.9677,1.05,-2.59,-0.56,0.005510863114773856,0.6244723030727414,0.7810265367451025,0.001233686632661848,179.49521382565152,0.4049386801374093,102.709822446995,2
1767381248.682095,1,left_wrist,0.0464,-0.0098,-0.9892,0.28,-1.05,-1.05,-0.022541878918103893,0.41744974544689406,0.9084041261233189,0.005432988431255782,-179.48669288960605,-2.6073003026882735,130.6267935362397,2
1767381248.682095,2,right_wrist,-0.0044,0.0083,-0.9677,0.98,-2.45,-0.56,0.0019029809829963964,0.6243082233447047,0.7811701100953438,0.0029799364398007647,179.59710594353575,-0.042839710022770705,102.73671641449938,2
