timestamp,node_id,node_name,ax,ay,az,gx,gy,gz,qw,qx,qy,qz,roll,pitch,yaw,rep_number
1767339016.552022,1,left_wrist,0.0659,-0.7105,0.8862,36.61,213.01,143.92,0.0017271666655086617,0.2689558215543691,0.25591367191071307,-0.9285300078492347,-33.21782539191878,30.023232190575524,171.06652491966534,1
1767339016.552022,2,right_wrist,-0.122,0.7169,0.8652,-26.88,180.11,-125.02,-0.1933310948286677,-0.36483025871882646,0.19634678349798368,0.8893648917657468,36.746500864306455,34.96070954919991,-143.52903185485934,1
1767339016.620505,1,left_wrist,-0.2133,-0.3206,0.447,10.01,175.84,97.3,0.04173677819908058,0.4446953302083383,0.21343667302970562,-0.8688779495662601,-33.03033442747741,52.24051853973701,168.9562720107309,1
1767339016.620505,2,right_wrist,-0.1703,0.5466,0.7125,-31.99,172.76,-112.35,-0.17062414370141235,-0.4336904395402834,0.15257623982428536,0.8715047304969707,35.64302024267597,44.73753141165482,-142.772538065182,1
1767339016.675314,1,left_wrist,-0.2133,-0.3206,0.447,10.01,175.84,97.3,0.05884684123330359,0.515704542386232,0.19432796576351877,-0.8323596073580709,-33.8003021415164,61.8086077029464,167.4729029372824,1
1767339016.675314,2,right_wrist,-0.2533,0.4436,0.6134,-25.83,168.35,-96.67,-0.15101180686516033,-0.49744566825280634,0.11310112535370098,0.8467298133215604,35.4794060557876,53.92481051942138,-141.28954797205506,1
1767339016.7487519,1,left_wrist,-0.5661,-0.1796,0.1391,-0.7,127.33,57.19,0.06845682057777425,0.5682807714569614,0.18602818889600894,-0.7986013657919286,-37.58940314844757,68.92800735178933,163.50365915831003,1
1767339016.7487519,2,right_wrist,-0.5134,0.2035,0.2674,-13.02,136.57,-71.54,-0.11364428358506289,-0.6013742888754181,0.05377183207384197,0.7890136447257712,39.27434109074238,69.51491406810362,-135.79419958149714,1
1767339016.821169,1,left_wrist,-0.876,-0.062,-0.1552,10.29,116.9,35.63,0.07623863212540433,0.6609718278267397,0.1693778248300381,-0.7270591903324455,-64.67700138789588,80.73617476121338,135.39258090798404,1
1767339016.821169,2,right_wrist,-0.6481,0.0078,0.183,-37.73,110.81,-58.87,-0.10273262569886954,-0.6381249751001796,0.015835310227698844,0.762883848774113,39.993330589532015,76.01923021570923,-132.90824238279296,1
1767339016.875063,1,left_wrist,-0.876,-0.062,-0.1552,10.29,116.9,35.63,0.07631763300712616,0.702555775468552,0.15936145116323747,-0.689343839554049,-108.65004500097231,83.18243805459069,90.57051496756564,1
1767339016.875063,2,right_wrist,-0.8106,0.0664,0.0454,-37.45,101.08,-43.19,-0.09779545173670652,-0.671942604539489,-0.014551518328244433,0.7339737319132368,48.738712102135445,81.58051130862883,-122.12367726358164,1
1767339016.94677,1,left_wrist,-0.8755,0.08,-0.4319,-36.33,58.03,16.73,0.08927462760085657,0.722306648105903,0.16641057788577285,-0.6652899116448908,-136.91125838755573,82.22168606771493,63.96970767955524,1
1767339016.94677,2,right_wrist,-0.8984,0.1376,-0.4236,-6.23,40.39,11.34,-0.10088763179082982,-0.7183315434559905,-0.023948261931163648,0.6879302000771944,106.48771792059976,83.29285458380488,-63.3664185323812,1
1767339016.9990451,1,left_wrist,-0.9062,-0.0273,-0.2494,17.15,16.17,-1.89,0.08275729250135658,0.7300030290257605,0.16235365986440628,-0.6587018272934211,-141.86329001812362,81.33289129894544,58.156301846087075,1
1767339016.9990451,2,right_wrist,-0.9789,0.1054,-0.1986,-5.32,10.08,6.79,-0.10401009396415786,-0.7237102869219902,-0.024021603564963915,0.6817978318526875,112.44881834233303,82.6778234778973,-57.1414430014289,1
1767339017.051668,1,left_wrist,-1.0258,-0.0756,-0.1981,-31.78,3.71,-2.17,0.09235469420694996,0.732122048022148,0.17212971393683046,-0.6525636205289268,-145.73574767741994,80.86117301428965,55.89151928229319,1
1767339017.051668,2,right_wrist,-0.9989,0.1459,-0.2499,11.55,3.5,2.73,-0.10109858558056459,-0.7278357739407914,-0.019635972776670865,0.6779738864725781,116.56143101325013,82.25498865503585,-53.62124008555143,1
1767339017.102124,1,left_wrist,-1.0487,-0.1986,-0.0386,20.09,-35.07,-13.02,0.08300154943522191,0.7195495363867971,0.17050484172634722,-0.6680473833679549,-130.83339989312958,81.76571321520625,69.87348855144633,1
1767339017.102124,2,right_wrist,-0.9135,0.1147,-0.2172,-19.67,-32.27,11.06,-0.11051203735660996,-0.7200105430277969,-0.020526521943800124,0.6847996564141947,106.04111709317843,82.16417994277633,-63.300796685338135,1
1767339017.1717792,1,left_wrist,-0.9467,-0.0547,-0.3011,-40.25,-26.88,-21.35,0.08163081218347827,0.6983621659115885,0.1868007318845796,-0.6860992510511332,-107.6235721947406,81.41247231211564,94.32214912589708,1
1767339017.1717792,2,right_wrist,-0.8711,0.1484,-0.3543,23.66,-51.8,22.4,-0.11004463054437306,-0.7083924584351622,-0.0037754282249314692,0.6971772014791205,91.39489380724623,81.33308814412327,-79.34592756264725,1
1767339017.226457,1,left_wrist,-0.6407,-0.0815,-0.2733,-44.38,-136.08,-80.22,0.08182826541009686,0.6507545797574816,0.21964770934348343,-0.7222032232583837,-74.98131808231543,77.3958324620738,129.78775966728054,1
1767339017.226457,2,right_wrist,-0.732,0.0503,-0.3797,34.09,-97.79,45.01,-0.1123526070917796,-0.6825143892193186,0.024627826522181387,0.7217648303630857,70.43624794927011,78.43438994357602,-102.41455175621623,1
1767339017.297138,1,left_wrist,-0.6407,-0.0815,-0.2733,-44.38,-136.08,-80.22,0.08217829769931538,0.6002208145721746,0.25129835860184135,-0.7548714036877926,-61.38415631899834,71.34854800307134,146.26640772127962,1
1767339017.297138,2,right_wrist,-0.3436,0.1459,0.0015,49.91,-185.64,118.44,-0.13954113878219024,-0.5796837138113243,0.133757430671492,0.7915832314225972,51.97046048410885,61.69143656302667,-127.54621991019602,1
1767339017.348373,1,left_wrist,-0.4426,-0.1698,-0.1732,-88.55,-184.17,-126.21,0.08289005944105374,0.5226229269505,0.30671433952452964,-0.7911515835802787,-56.3298235253689,61.37751511009557,156.7059895969314,1
1767339017.348373,2,right_wrist,-0.1147,0.3279,0.2162,39.62,-218.05,166.18,-0.17519759970750184,-0.49088800574957375,0.20379445177438035,0.8287355357977091,49.526439723568934,47.921218531817395,-132.9564237143898,1
1767339017.422645,1,left_wrist,-0.1274,-0.4221,0.3509,-222.25,-210.98,-237.02,0.03494976295798814,0.29355797602507133,0.4579213958700519,-0.8383974141096019,-61.352093719595736,31.6174298743023,165.70603760700413,1
1767339017.422645,2,right_wrist,0.0551,0.5949,0.425,61.32,-243.95,200.76,-0.21299223097078798,-0.3825905951988784,0.2871811649314624,0.8519305866794916,50.26063359349498,31.974821915934623,-136.61750969084255,1
1767339017.4780731,1,left_wrist,0.3026,-0.5788,0.6334,-81.06,-180.6,-300.72,-0.029982533503282973,0.16052215651929386,0.5166143235048896,-0.8405018296831395,-64.71977741127812,13.819238092338683,167.13214671151323,1
1767339017.4780731,2,right_wrist,0.3489,0.6661,0.8921,89.32,-225.26,238.77,-0.2574873406353876,-0.2703811883696464,0.3778715737659727,0.8472351244654347,53.91104041422215,15.281321342493678,-138.38480089337986,1
1767339017.5497868,1,left_wrist,0.3323,-1.0424,0.8418,-324.73,-155.26,-312.06,-0.08689115060348246,0.03303457121258891,0.6449684523665518,-0.7585343370629296,-80.43489676635551,-3.552803457396248,169.93482860196244,1
1767339017.5497868,2,right_wrist,0.9858,0.9614,0.6266,213.71,-118.86,339.57,-0.36780498960961544,-0.07412158343341874,0.6204632370823133,0.6886587340017771,76.45190490657636,-20.75238705824587,-140.20127575771937,1
1767339019.171382,1,left_wrist,0.2211,-0.8267,0.8003,48.3,206.64,166.88,0.24508474034130695,0.2438789181244905,0.35888449308560677,-0.8669823896533014,-38.882760118224816,36.78340703135234,-161.81739159396673,2
1767339019.171382,2,right_wrist,0.2113,0.8589,0.8691,-70.98,158.27,-157.5,-0.21705430785858715,-0.32366158505697235,0.27974685261953514,0.8774236743146963,44.884427204288606,26.521663505980374,-141.09143734809751,2
1767339019.225617,1,left_wrist,0.0259,-0.6437,0.5885,40.46,200.55,145.6,0.2614912128545183,0.341139620528738,0.34840273714678743,-0.8329835758608979,-37.47048512980133,48.63682145996537,-162.5715775889538,2
1767339019.225617,2,right_wrist,0.0239,0.7935,0.7623,-48.37,179.9,-149.59,-0.18957206393003187,-0.40061304720586055,0.22382634038640425,0.8680284490354981,43.037313833932366,37.6346794295266,-140.0559930473949,2
1767339019.296692,1,left_wrist,-0.161,-0.4182,0.4221,-14.21,196.7,118.79,0.27426763455370795,0.42364700758794654,0.3575084243435009,-0.7858041767014983,-40.52547790261474,59.532075350225846,-165.363414240269,2
1767339019.296692,2,right_wrist,-0.2962,0.3806,0.3436,-5.04,175.28,-111.86,-0.1395103175095672,-0.5440464819405001,0.13786395519724645,0.8158086948874205,45.51616310863716,58.12571946819536,-134.34510216789474,2
1767339019.348447,1,left_wrist,-0.3684,-0.3328,0.2987,28.07,145.74,100.1,0.2782789557226378,0.48801486761531737,0.34717284730249076,-0.7509149924486818,-41.47048539201117,67.84045787255745,-167.89824778943753,2
1767339019.348447,2,right_wrist,-0.4592,0.3167,0.2211,-16.52,153.58,-92.47,-0.12216961122313381,-0.6004768984515417,0.10434728590652746,0.7833350014160906,50.34955839729389,66.24168333264763,-128.1746809627895,2
1767339019.420531,1,left_wrist,-0.6378,-0.2552,0.0854,-18.41,117.95,64.89,0.2883568530180993,0.5823569687329292,0.3634339894818638,-0.6675525609081198,-68.92826339572872,80.78885065338659,166.15315326111298,2
1767339019.420531,2,right_wrist,-0.5266,0.1771,0.0883,-25.76,124.32,-67.41,-0.11094528404987727,-0.6459993282279538,0.07164391759775837,0.7518265497755251,58.293258982851974,72.83557485636892,-118.48572560510279,2
1767339019.476525,1,left_wrist,-0.8233,-0.0869,-0.1649,45.78,59.78,35.42,0.2767857480232247,0.6131345401532542,0.3494334772815845,-0.6521901028972933,-88.06861120409879,83.31293836142703,144.59373626100066,2
1767339019.476525,2,right_wrist,-0.6905,0.2147,0.001,-31.01,96.18,-47.11,-0.10744015653728264,-0.6791683832495412,0.04465793938530472,0.724701723750749,70.77336163131719,77.10813554858333,-104.1054225509906,2
1767339019.546659,1,left_wrist,-0.8233,-0.0869,-0.1649,45.78,59.78,35.42,0.2644573074350924,0.6428514456375907,0.3351183412194377,-0.6360031829827376,-120.65462071597523,84.24519895956816,109.58331641793325,2
1767339019.546659,2,right_wrist,-0.8969,0.0976,-0.0961,-39.34,49.0,-30.52,-0.10874714315516741,-0.7180508785311828,-0.00422015153306447,0.6874294036606406,101.7327504199021,81.16563045259304,-69.07656257797987,2
1767339019.5967171,1,left_wrist,-0.9379,-0.2699,-0.0898,48.58,46.13,22.19,0.24659314226599624,0.6632808339609612,0.32389428650219887,-0.6279672353384893,-138.3887769399728,83.10961229169347,89.28394819069896,2
1767339019.5967171,2,right_wrist,-0.9804,0.1591,-0.2503,10.36,46.69,-12.53,-0.10134866752054827,-0.734838094877313,-0.007140990548757217,0.6705896123284889,119.87941030575527,80.7502422176027,-51.29239199272944,2
1767339019.6491258,1,left_wrist,-0.9589,-0.0927,-0.3426,-25.69,38.78,11.62,0.25046249627550504,0.6747803045783253,0.3328809851612241,-0.6092046685890695,-152.94061670699114,81.45791550832594,75.92613330694499,2
1767339019.6491258,2,right_wrist,-0.937,0.0303,-0.4104,16.52,22.68,3.08,-0.09563559827546465,-0.7446642920460148,-0.0031384410874615823,0.6605445289165919,128.2635645189315,79.85597516316972,-43.694865658200236,2
1767339019.721716,1,left_wrist,-0.9902,-0.1752,-0.0952,12.18,-25.06,-5.04,0.2347425207604928,0.6641345919326905,0.32675433523763836,-0.6301212559093825,-133.74048648086074,82.04493763701831,93.16553999458871,2
1767339019.721716,2,right_wrist,-0.9721,0.1527,-0.3021,-4.55,-5.81,5.53,-0.09853521924665179,-0.7452921846336552,-0.002217919702979605,0.659412959323821,127.61855664943086,79.529226100995,-44.176360950799484,2
1767339019.776551,1,left_wrist,-0.9902,-0.1752,-0.0952,12.18,-25.06,-5.04,0.22993366031411672,0.6561743317051315,0.3252534818720644,-0.6409180375024368,-122.26538406546115,82.17199077750749,104.0788255253198,2
1767339019.776551,2,right_wrist,-0.975,0.1869,-0.1908,16.38,-18.34,1.26,-0.09459518179868891,-0.7429597338642379,0.004903676883090264,0.6625998335269034,125.27474830678929,79.62249327723262,-47.42284118141395,2
1767339019.848937,1,left_wrist,-0.9989,-0.2357,-0.0869,-6.93,-24.36,-4.13,0.23064764514849556,0.6468505009921567,0.329093250706386,-0.6481386622422345,-112.62606440718909,82.01596237780254,114.12540997320328,2
1767339019.848937,2,right_wrist,-0.8374,0.1103,-0.3831,27.09,-41.23,23.45,-0.09235767431656322,-0.7306215592447882,0.027838630034748107,0.6759343221344354,111.83838340195038,79.28438338980006,-62.908957163418634,2
1767339019.922698,1,left_wrist,-0.7989,-0.0215,-0.3294,-27.3,-86.8,-36.68,0.2491624390561297,0.5853988634859862,0.3476926091975532,-0.6887206248561994,-68.74067101390037,78.4117368525452,161.46035174799582,2
1767339019.922698,2,right_wrist,-0.7291,0.0483,-0.3577,31.36,-91.63,58.45,-0.09726580708602299,-0.7061465751215166,0.0586830339008387,0.6988938966311337,91.0897620520587,77.32421158049385,-85.7643148124159,2
1767339019.994404,1,left_wrist,-0.7623,-0.0942,0.0429,-42.77,-134.26,-68.39,0.26207929433358484,0.5314920172487883,0.36011612840573415,-0.720518600137768,-53.838481481865244,72.68015246488264,179.01231847296282,2
1767339019.994404,2,right_wrist,-0.6017,0.3753,0.0068,3.08,-155.54,98.21,-0.14269340109921633,-0.6109303650741558,0.13403834043976962,0.7670960862924863,60.20316406835369,64.03109347615924,-119.07712271258218,2
1767339020.052305,1,left_wrist,-0.7623,-0.0942,0.0429,-42.77,-134.26,-68.39,0.27220038625251913,0.47600161528072166,0.37259367854296843,-0.7486677251517807,-47.98028068054705,66.28742865502903,-172.4462562724907,2
1767339020.052305,2,right_wrist,-0.4577,0.4963,0.1576,39.34,-178.08,111.23,-0.1613175052641499,-0.5435863162806908,0.19076317656261046,0.8013114186853214,55.04990964184008,54.058524735564426,-127.45859809708354,2
1767339020.127507,1,left_wrist,-0.4782,-0.266,0.1244,-18.06,-168.42,-128.59,0.25742907509719576,0.32423908935705753,0.402823490241553,-0.8162919330344517,-46.52815731770847,47.4548272163918,-166.39512062033646,2
1767339020.127507,2,right_wrist,-0.3465,0.5051,0.2777,42.91,-193.34,133.49,-0.18335357203576705,-0.4628351182769058,0.2527619428769512,0.8296243253089896,53.008905573100584,42.47503805377702,-133.13904799577188,2
1767339020.202365,1,left_wrist,-0.3426,-0.8218,0.4587,-158.9,-134.96,-179.34,0.2356260949002252,0.22143253533501187,0.4682748973070789,-0.8222934976328243,-55.16221008817853,35.791732666618664,-167.16983987093988,2
1767339020.202365,2,right_wrist,0.022,0.9887,0.5134,147.49,-165.34,199.43,-0.23562664008183032,-0.28671480605641914,0.4248521447882001,0.8256968944719629,60.43774759735876,15.85871065209182,-138.86990807539976,2
1767339020.2740018,1,left_wrist,-0.0576,-1.6372,0.6832,-224.84,-121.94,-217.49,0.15872295216511909,-0.013723670276538546,0.6243098961825355,-0.7647586801460197,-77.07728957809988,10.206362317402684,-164.68746661825008,2
1767339020.2740018,2,right_wrist,0.3021,0.7159,0.6168,175.7,-119.84,226.52,-0.27271178972120025,-0.21369203463861058,0.5244863076478248,0.7777390996786919,68.96826633303412,2.65524044103346,-139.52989717065878,2
1767339020.344267,1,left_wrist,0.2259,-0.3797,0.2865,-90.86,-38.5,-250.18,0.08273697307553894,-0.1029373312155897,0.6441627643534013,-0.7534008442715565,-81.42568777351875,-2.7807383917125033,-165.07299091344493,2
1767339020.344267,2,right_wrist,0.9135,1.1024,0.1771,100.87,-82.11,257.74,-0.3615983000019765,-0.05660098152432691,0.6882173190627127,0.6264183267340568,87.06491303173692,-25.264944870612393,-144.04922931820587,2
1767339020.402088,1,left_wrist,0.3152,-0.8213,0.2855,-310.17,10.92,-283.5,-0.02947968054717566,-0.18973609198272431,0.7198292565788253,-0.6670659676577235,-96.50981504638696,-17.19193927604245,-165.8322696090581,2
1767339020.402088,2,right_wrist,0.9028,1.0497,0.1801,172.48,-34.86,220.99,-0.4072353019891859,-0.004559892759068965,0.7398249723222129,0.5355348975746018,96.78525626135885,-36.70404349520103,-146.4641589175703,2
1767339021.8807979,1,left_wrist,0.3196,-0.7564,0.8174,57.96,183.68,203.14,0.18701330806986252,0.2103355422623087,0.40390562420391163,-0.8704281871598806,-46.85751330233814,31.146991189724037,-169.52131964992114,3
1767339021.8807979,2,right_wrist,0.3367,0.8921,0.7832,-64.12,145.53,-180.11,-0.19612341624203872,-0.30769964314062825,0.3548746947088418,0.8607673822049652,52.62959211881991,22.986682290189307,-142.84439962720495,3
1767339021.94659,1,left_wrist,0.1405,-0.712,0.6847,6.65,211.68,173.25,0.21198485821655083,0.3160065114129273,0.4001356748715449,-0.8337228234411204,-48.00340417461394,44.1523856868733,-171.941369839222,3
1767339021.94659,2,right_wrist,-0.0244,0.6705,0.6715,-46.62,173.39,-159.11,-0.13802801317085264,-0.46197468297480226,0.23554452180403268,0.8438284411647592,48.64281350184004,45.612988422222195,-139.8989522903836,3
1767339022.030422,1,left_wrist,-0.2025,-0.3245,0.2928,-27.58,148.54,140.77,0.25950851174069545,0.47176195249135977,0.40170135482199754,-0.7407644794736321,-56.4649493785631,65.15105582215992,-179.25628087593887,3
1767339022.030422,2,right_wrist,-0.2211,0.5998,0.5095,-35.7,179.69,-141.54,-0.11307028381087708,-0.5351114302371579,0.18404568765884058,0.8166994875734009,49.54249887446557,56.349200424427586,-136.46849047733264,3
1767339022.0991309,1,left_wrist,-0.425,-0.2357,0.1547,-28.7,151.9,105.91,0.2704618105985608,0.5314598272703455,0.40630726364725017,-0.6923259842826981,-69.12299137451139,72.87567479843493,168.76330914647437,3
1767339022.0991309,2,right_wrist,-0.4826,0.2489,0.0869,-11.48,165.06,-95.9,-0.067550033470277,-0.6637259220829361,0.11642809498381697,0.7357644949518563,70.61692712109544,73.93792283821416,-113.38362729428847,3
1767339022.1532888,1,left_wrist,-0.7086,-0.0908,-0.0478,-3.43,99.68,60.83,0.2725295200366367,0.5740918104433073,0.404154227247359,-0.6578796352590769,-86.29918093563293,77.33131022368596,151.25807632438185,3
1767339022.1532888,2,right_wrist,-0.55,0.1181,-0.1376,-3.15,126.77,-72.31,-0.05098406929494863,-0.7091092877037193,0.0906599817846577,0.6973846933172948,96.34770711786932,78.4640722126241,-86.88395923485018,3
1767339022.218693,1,left_wrist,-0.8506,-0.1962,-0.1674,19.18,81.9,42.7,0.26380428557957686,0.6474416399684128,0.39557360353629495,-0.595607375651252,-139.41705700706683,78.50728790623329,96.47055536261124,3
1767339022.218693,2,right_wrist,-0.6915,0.1464,-0.2455,-32.69,83.3,-55.72,-0.0472663391690206,-0.7376165562390824,0.062046937794552844,0.6706995502114746,122.07453142369644,79.60039705859081,-59.12808895969002,3
1767339022.269405,1,left_wrist,-0.914,-0.2728,-0.2899,27.09,71.47,33.53,0.24927375610893743,0.6749719696905133,0.38979560672765445,-0.5747476138473919,-152.58144246044512,75.97940106490367,81.58625618224933,3
1767339022.269405,2,right_wrist,-0.8452,0.1132,-0.1908,-24.78,60.13,-43.82,-0.04339134355895503,-0.7577736542944778,0.03930009147102611,0.6498859769003413,142.36480522599177,78.96857284052128,-37.302144351414405,3
1767339022.32884,1,left_wrist,-0.9262,-0.1518,-0.3016,13.23,35.21,25.69,0.24350174223620846,0.6907582166095083,0.3846746390730489,-0.5617698904074534,-159.0526374239218,74.45755662881011,74.21734379881529,3
1767339022.32884,2,right_wrist,-0.9126,0.1244,-0.2582,-12.25,45.92,-26.18,-0.04098929626894698,-0.7730570558256662,0.026779887649270858,0.6324440715565461,153.6887758755871,77.3262924375422,-25.152759870425207,3
1767339022.395704,1,left_wrist,-0.954,-0.1986,-0.327,-21.14,38.64,16.24,0.2438375107425743,0.7008380369567206,0.3916943746956715,-0.5440081167972424,-163.732575095448,72.46683367208577,70.35881738073307,3
1767339022.395704,2,right_wrist,-0.9565,0.2201,-0.3377,24.36,26.74,-8.96,-0.03865224417663192,-0.7933647468579305,0.021871109817325752,0.6071243999531896,161.31065800046315,74.08121901964299,-17.316332912383356,3
1767339022.4537652,1,left_wrist,-0.8769,-0.0185,-0.426,-0.49,11.69,4.9,0.24296211328714937,0.7066691220309308,0.391879296645261,-0.5366738118595795,-165.82990342947534,71.60894280375825,68.26711565987902,3
1767339022.4537652,2,right_wrist,-0.9238,0.1054,-0.3562,-0.56,-0.07,0.42,-0.03936244292029434,-0.7955441531870261,0.022385081235887387,0.6042011308789043,161.41990259930472,73.65307211182905,-17.190296716882322,3
1767339022.525162,1,left_wrist,-0.9877,-0.1122,-0.2962,-9.8,-23.03,-0.14,0.25119241353442545,0.6948749742579927,0.3977132697894546,-0.5439442035412132,-163.49537496011342,72.89192042283806,71.79660478066361,3
1767339022.525162,2,right_wrist,-0.976,0.1259,-0.1718,12.46,-0.21,2.03,-0.036691291628716295,-0.7935973898837082,0.02706528988947598,0.6067325621487452,160.7669746886042,73.94913864459639,-18.445324404880626,3
1767339022.576271,1,left_wrist,-1.0058,-0.0732,-0.2054,-9.24,-20.3,-6.79,0.2575006355604371,0.6861380533207242,0.39836601838270064,-0.5515546299951907,-161.61312072145518,74.16347955279447,74.22607365310377,3
1767339022.576271,2,right_wrist,-0.9316,-0.0161,-0.2957,14.35,-16.17,8.26,-0.030139717866166496,-0.7906382854756995,0.031333683395717335,0.6107379955691732,161.1830980969458,74.54862591410856,-18.914533310264463,3
1767339022.652412,1,left_wrist,-1.0038,-0.1103,-0.2996,-18.41,-10.43,-16.45,0.2580769996623878,0.6796433812143344,0.4087072068367336,-0.5517604151228342,-158.76558856236903,73.93667942748489,78.10399402094463,3
1767339022.652412,2,right_wrist,-0.854,0.0029,-0.4904,14.91,-39.55,27.93,-0.04380047962877833,-0.7742642686696556,0.049857463655758674,0.6293731751223173,147.3685192590324,75.98556844795814,-33.125963798267485,3
1767339022.720618,1,left_wrist,-0.8408,-0.0742,-0.4046,-33.95,-64.89,-42.56,0.273728943443084,0.6412051872259578,0.43070227784392673,-0.5730828223355767,-143.57841913146243,76.10053285833798,96.65922755703521,3
1767339022.720618,2,right_wrist,-0.7388,0.1215,-0.4597,50.75,-90.44,62.37,-0.04178112965789146,-0.7506475976510031,0.08671597060703178,0.6536534722519025,128.87951303328316,76.92648550006706,-54.785938278294005,3
1767339022.802017,1,left_wrist,-0.7676,-0.0522,-0.3065,-64.68,-100.94,-70.77,0.29233806068157997,0.5965123100643558,0.45432364135500897,-0.5935499567218787,-123.15242942440308,76.8434762645925,121.0570401264097,3
1767339022.802017,2,right_wrist,-0.6798,0.3026,-0.1035,45.22,-123.48,112.0,-0.0689489540164763,-0.6735423714566535,0.17962677922041367,0.7136672444350253,85.39211367670163,69.48820896681472,-103.73119094935008,3
1767339022.872708,1,left_wrist,-0.6022,-0.325,-0.102,-14.7,-143.22,-147.77,0.29506734891127745,0.4619431045247425,0.5031404912166478,-0.6681268396695224,-80.49621691888949,66.09149909569688,169.97357354790952,3
1767339022.872708,2,right_wrist,-0.5217,0.3396,0.0224,57.89,-137.55,143.15,-0.08879799913658275,-0.6174274990698979,0.24621573257973944,0.7418059124675758,76.23807040131808,60.72653343147019,-116.97433024570817,3
1767339022.924918,1,left_wrist,-0.3928,-0.2381,0.1025,-53.83,-151.27,-183.47,0.28316357025260935,0.3653691833502674,0.5328799936056487,-0.7087754685050816,-73.24818005247629,55.056157413760864,-178.79923262935213,3
1767339022.924918,2,right_wrist,-0.3279,0.5544,0.1484,15.82,-168.14,175.28,-0.12548886096982995,-0.5393784263465257,0.3060684957464689,0.7743678291845123,69.2575382678665,49.335500254008174,-126.39543763426822,3
1767339022.997889,1,left_wrist,-0.3201,-0.9579,0.2381,-25.69,-143.5,-202.65,0.25374451155054834,0.2656332873416116,0.5533776997251013,-0.7475465209343282,-70.4132234891123,42.68596194099683,-173.3299655754087,3
1767339022.997889,2,right_wrist,0.0468,0.9858,0.4714,14.77,-168.77,207.76,-0.1820657999278678,-0.36207606986294677,0.45823135498376055,0.7910606736774211,69.64694967498558,23.95329106046853,-137.28933030848924,3
1767339023.053879,1,left_wrist,-0.2025,-0.7452,0.2772,-121.38,-198.1,-198.59,0.24621922055224124,0.13455210311680116,0.5892497975929097,-0.7576651655013626,-71.95198312446622,29.607793634610328,-165.71454895576701,3
1767339023.053879,2,right_wrist,0.1,1.0268,0.446,187.46,-133.77,207.62,-0.19818727063336666,-0.28298538833598413,0.5626573689512231,0.7510377892703644,77.81763768710826,11.65641758286675,-141.01519632961586,3
1767339023.126389,1,left_wrist,0.3582,-0.8823,0.5124,18.41,-122.71,-227.78,0.15471283046643453,-0.07648426680045649,0.5872792142910817,-0.7907700180727077,-72.59890457410037,3.4832264305510674,-160.41901527888325,3
1767339023.126389,2,right_wrist,0.3836,0.7481,0.3953,125.72,-96.95,238.42,-0.23770274516577908,-0.19851542771009892,0.6367751082197405,0.7061207343319319,83.67051653960938,-1.2820807681754405,-143.9379958245751,3
1767339023.19693,1,left_wrist,0.4914,-1.0838,0.4099,-131.74,-100.45,-220.92,0.0963198558422085,-0.17913495393069798,0.6128659141502951,-0.763563045807945,-79.22892749328699,-8.945758000764682,-158.21165216626713,3
1767339023.19693,2,right_wrist,0.8335,1.2102,0.2137,91.91,-54.81,218.26,-0.30874027060164155,-0.04283149784470339,0.7529017453097608,0.5796411562429985,98.68649001581755,-24.534959082759944,-152.33254724461102,3
1767339024.544302,1,left_wrist,0.2669,-0.8608,0.8384,53.69,179.55,206.43,0.35950607266864965,0.01611626138939698,0.4605023048651701,-0.8114390162218343,-51.9746756080336,20.932108877796345,-142.49957490068917,4
1767339024.544302,2,right_wrist,0.3196,0.9536,0.6544,-58.1,140.42,-191.1,-0.21088805969765767,-0.3466390408511712,0.37250036816488136,0.8346323006880125,57.87855806635367,24.93062158427286,-137.7022320286068,4
1767339024.594835,1,left_wrist,0.2669,-0.8608,0.8384,53.69,179.55,206.43,0.3921920530217418,0.125346919730971,0.46336893695409764,-0.7847055317293095,-49.39340832151415,34.06825183362932,-142.9288821431147,4
1767339024.594835,2,right_wrist,0.1235,0.8335,0.6393,-57.05,157.5,-174.58,-0.18275187995369263,-0.4214889333605085,0.31026868838743843,0.8322752972630815,56.006247878058886,36.02833581718371,-135.6085955479515,4
1767339024.651069,1,left_wrist,0.0512,-0.7515,0.712,7.42,197.68,176.61,0.4086621321434668,0.22520122276736454,0.48105967433362334,-0.7422002834451545,-50.57636140049567,46.67475979532365,-145.3667013970867,4
1767339024.651069,2,right_wrist,-0.0351,0.7178,0.5314,-13.37,162.33,-157.85,-0.1513262267971071,-0.49540347885882025,0.2638579807149186,0.8136674580140062,57.440879698446516,46.57961034010187,-132.3856050340008,4
1767339024.718413,1,left_wrist,-0.2274,-0.3914,0.2938,12.74,168.35,127.19,0.41262324501353453,0.39293612216284524,0.5000009675613681,-0.652182715204736,-59.754407062076446,67.69194117847648,-157.49783847950366,4
1767339024.718413,2,right_wrist,-0.2333,0.5388,0.426,-10.85,164.01,-134.54,-0.12627447928437557,-0.5633366139748008,0.22054944092109496,0.7861708207166292,61.2753958933191,56.10470516578963,-126.71684769381054,4
1767339024.774807,1,left_wrist,-0.4002,-0.2645,0.1484,-3.5,160.58,100.66,0.4040886747104313,0.45536710851913037,0.5117927276266605,-0.6061529043056352,-76.32534058631951,74.9420329774716,-174.7499712521962,4
1767339024.774807,2,right_wrist,-0.406,0.3889,0.2826,-9.03,148.26,-114.66,-0.10499551666548332,-0.6201519211546255,0.18172176853181565,0.7558867210171406,67.8581009845453,64.07528306103208,-118.5247764685006,4
1767339024.827159,1,left_wrist,-0.5617,-0.1835,-0.0195,-0.49,124.18,82.46,0.39496019698763735,0.5057204134792993,0.5190863031432209,-0.5646261737423419,-105.10908964994567,78.84956681156277,155.88373857992403,4
1767339024.827159,2,right_wrist,-0.5217,0.3284,0.0752,-9.73,127.47,-91.56,-0.09020302487102559,-0.6675253944187258,0.1513114923681054,0.7234487503531805,79.4782753926858,69.80834691247571,-105.55274173213414,4
1767339024.895846,1,left_wrist,-0.7149,-0.2059,-0.0722,-2.87,105.98,63.28,0.3833145557189412,0.5437779091022311,0.5263514543060351,-0.5294616921896413,-135.99980277940747,78.33187984857071,124.56868012084315,4
1767339024.895846,2,right_wrist,-0.754,0.2699,-0.1469,-34.09,89.74,-47.95,-0.0796596350823974,-0.7372404922398413,0.09527250847706069,0.6641189262993369,113.32322729998982,74.59063404216836,-67.95341126939407,4
1767339024.947244,1,left_wrist,-0.8462,-0.124,-0.0947,5.67,94.36,48.44,0.372479581999066,0.5754408020768642,0.5273827062268562,-0.5019903639232269,-155.23728668692874,76.07463938060334,104.49946312518622,4
1767339024.947244,2,right_wrist,-0.8394,0.1976,-0.1078,-10.64,70.77,-36.26,-0.07325761158516045,-0.7604910772032331,0.0765666523846752,0.6406435760871317,128.79234534213012,74.40568960197275,-51.47828349302691,4
1767339025.023914,1,left_wrist,-0.8745,-0.2069,-0.3494,-14.49,33.25,21.07,0.35493806937120664,0.6103749554047989,0.5382978933109226,-0.4601051605694644,-169.1783020244255,70.69951672122727,90.50666490926403,4
1767339025.023914,2,right_wrist,-0.8779,0.2494,-0.1752,-58.66,56.98,-27.37,-0.09022000718273775,-0.7755767639802749,0.05228863855853751,0.6225808636277913,135.47850830208185,72.99584289441307,-41.41343816732263,4
1767339025.100306,1,left_wrist,-1.0311,-0.2723,-0.0576,20.58,34.72,26.53,0.34664438629372507,0.6246563516802982,0.532155338282823,-0.45437078217420707,-171.71032087608032,69.48631425104853,86.61097734793586,4
1767339025.100306,2,right_wrist,-0.9209,0.3074,-0.4421,48.09,60.76,-26.53,-0.05769438125735566,-0.8133327527732875,0.04427538797584656,0.5772355512762061,156.0877218714729,69.044788134455,-22.80650315349003,4
1767339025.151677,1,left_wrist,-0.7764,0.1659,-0.6237,53.2,3.08,-7.63,0.3295968133722712,0.6338680316479974,0.5243626690051917,-0.4632721127191765,-169.1106228102582,68.90155327716865,86.6802187961087,4
1767339025.151677,2,right_wrist,-0.8682,0.182,-0.4558,1.96,24.99,-13.93,-0.054669944462899425,-0.8219313284858198,0.040032696974917535,0.5655417505356023,159.1228545200392,67.71300054111076,-19.668298393378162,4
1767339025.2267148,1,left_wrist,-0.9628,-0.1771,-0.2694,14.14,-3.29,-2.66,0.30831912028403835,0.6411482801076576,0.5137140522628227,-0.47954778228032635,-164.45507279903316,68.70109994992814,88.06519486343429,4
1767339025.2267148,2,right_wrist,-0.8686,0.1991,-0.3977,5.39,7.98,-8.47,-0.05340627164923163,-0.8256267115901117,0.04017616931290074,0.5602447489060189,160.02871478788637,67.04548357133058,-18.877380009713313,4
1767339025.296858,1,left_wrist,-0.9643,-0.1474,-0.3865,-30.38,3.22,4.2,0.31311108054698295,0.6379683438015449,0.521877368326992,-0.4718070113657783,-165.47458252362324,68.2496128053536,88.44059230268745,4
1767339025.296858,2,right_wrist,-0.9335,0.1488,-0.2987,-5.95,-7.63,1.26,-0.04454291570890725,-0.8245001267927199,0.04201925531028031,0.5625387557867525,161.61019937240548,67.5005536956755,-18.18130621258624,4
1767339025.375517,1,left_wrist,-0.978,-0.1127,-0.3714,3.22,1.75,-3.22,0.30778649009145853,0.6352385858183546,0.5220170782429554,-0.4787876205870048,-162.82165389270335,68.37695557277664,90.54091215454524,4
1767339025.375517,2,right_wrist,-0.9462,0.082,-0.3138,3.22,-2.38,-1.61,-0.04111905505280305,-0.8223135648134113,0.04080190234915762,0.5660784655859237,162.25730697651574,68.0687266879873,-17.716516683277586,4
1767339025.449564,1,left_wrist,-0.8725,0.0102,-0.4309,26.04,-22.75,-9.45,0.30475483963801936,0.6342828522471938,0.5157166782563557,-0.48871879320382206,-160.7578282850415,69.11634547506675,91.54633352081565,4
1767339025.449564,2,right_wrist,-0.8682,0.0996,-0.4416,-1.61,-36.33,14.91,-0.045065820077793375,-0.812615154532019,0.04562368465771611,0.5792617386673077,158.78505287553085,69.60651139950787,-21.260875445305665,4
1767339025.499585,1,left_wrist,-0.8999,-0.205,-0.406,7.42,-37.73,-9.31,0.30555320085998156,0.6250556546560008,0.514195550027661,-0.5015432248156972,-156.66556490122315,70.2562803862536,95.41606153178458,4
1767339025.499585,2,right_wrist,-0.8037,-0.0093,-0.5348,6.72,-53.97,34.3,-0.04857792757348773,-0.8004663851845772,0.059583622135221774,0.5944270713177926,152.7545625434189,71.05821525265051,-28.149544880139064,4
1767339025.552685,1,left_wrist,-0.8296,-0.1908,-0.5671,-37.59,-59.5,-18.27,0.32262303419803123,0.6041209593496644,0.521150071762279,-0.5092689338468119,-152.69384639038464,72.09919931686781,101.61887484988667,4
1767339025.552685,2,right_wrist,-0.7369,0.1474,-0.4421,11.76,-91.14,69.44,-0.060222900066485605,-0.7767469066662698,0.08914691686405597,0.6205564216939473,137.46458148038587,72.41943726492943,-44.9071117913703,4
1767339025.6277812,1,left_wrist,-0.6617,-0.2689,-0.1781,-118.02,-130.76,-112.77,0.37539855730866784,0.4854609430325131,0.5656854032966682,-0.5508208605868518,-113.28707015002433,73.64165691491547,151.200316619134,4
1767339025.6277812,2,right_wrist,-0.6598,0.2294,-0.3294,64.47,-113.89,100.17,-0.06208385269799311,-0.7440526653176327,0.14443684061281167,0.6493606282657505,118.01432195982316,71.51065049016674,-68.7503562013477,4
1767339025.697023,1,left_wrist,-0.5544,-0.0151,-0.3343,-60.41,-145.32,-167.58,0.3815006437011487,0.4002140978692487,0.59021423923838,-0.5881607658817213,-92.50997293150009,67.08958913358764,176.51606798997616,4
1767339025.697023,2,right_wrist,-0.3728,0.3172,0.04,39.06,-149.38,184.24,-0.10270388739808978,-0.6343504452097811,0.28356966994718374,0.7117862505426178,86.31662535538545,57.65013212379155,-108.98814250789587,4
1767339025.747561,1,left_wrist,-0.5148,-0.3045,-0.0844,-129.22,-158.48,-221.13,0.3817529706281469,0.27827080394390524,0.6329024112840328,-0.6134040812383423,-85.5390813225059,55.548935248905785,-168.1568213342897,4
1767339025.747561,2,right_wrist,-0.3167,0.6159,0.0444,102.34,-144.06,220.36,-0.12729241835020041,-0.5606924768975494,0.38288656591818737,0.7230618674915903,83.60610921815517,45.50843146467243,-118.91445755859239,4
1767339025.802131,1,left_wrist,-0.0874,-0.5832,0.2245,101.92,-179.48,-221.55,0.3548896977170117,0.18131842118156852,0.5969320374683496,-0.6963110477641699,-72.49546472106849,42.54725882190885,-157.85081982675968,4
1767339025.802131,2,right_wrist,-0.0498,0.8589,0.144,-3.43,-147.91,229.11,-0.17749252689732273,-0.46955288409106816,0.44521067516832075,0.7414876577890768,78.87466884218051,32.56745707346236,-126.05650039158841,4
1767339025.87663,1,left_wrist,0.3987,-0.7403,-0.1059,-62.23,-233.24,-236.46,0.28173778884966133,-0.07040650469742954,0.5854570110016728,-0.75690609107034,-71.7926834374707,12.9034319686073,-148.5252472946559,4
1767339025.87663,2,right_wrist,0.0942,0.8589,0.2821,166.46,-122.64,253.12,-0.20215563674424353,-0.3864192268010121,0.5564086646604455,0.7072642204875185,85.02097669488126,18.762054933651694,-130.87415070606662,4
1767339025.944322,1,left_wrist,0.4787,-0.7666,0.3187,-184.17,-169.54,-252.7,0.23059839815970845,-0.21473319521919487,0.6090210692674071,-0.7278786786446735,-80.44178986513793,-1.8177764905659595,-143.30536260590802,4
1767339025.944322,2,right_wrist,0.4982,1.1409,0.3977,151.41,-70.42,254.87,-0.2894991317411784,-0.20747156253341642,0.7003684263091061,0.6185708293238155,93.89204828699394,-8.559731428147222,-138.99898973059837,4
1767339025.9954271,1,left_wrist,0.4787,-0.7666,0.3187,-184.17,-169.54,-252.7,0.17371696331782194,-0.3527076492083966,0.6170050700787277,-0.681707029700197,-90.60611529149011,-15.45717650624052,-135.78802686584223,4
1767339025.9954271,2,right_wrist,0.5807,1.5499,0.1854,111.51,-41.09,224.56,-0.32825925819053636,-0.13831550499428935,0.7503149676046201,0.5569040580556506,100.05025856667855,-19.787871037966497,-142.4721606424743,4
1767339027.5253692,1,left_wrist,0.1645,-0.651,0.895,-2.03,197.75,156.1,0.2824629201675848,0.05875228496731891,0.39982494933217927,-0.87000165381052,-44.53378456856722,19.153531074358696,-151.92975557699367,5
1767339027.5253692,2,right_wrist,0.2162,0.9736,0.8706,-60.76,133.35,-178.43,-0.2607394747555516,-0.30138683197995914,0.3937808198691751,0.8283221412689892,57.88002707663692,17.094127712804248,-135.5530937565343,5
1767339027.599342,1,left_wrist,-0.0673,-0.7925,0.9682,10.5,181.37,154.21,0.3065722280651411,0.15163648308541086,0.410269790454732,-0.8453984534034192,-44.21628863561817,30.526787438424936,-152.78599609221402,5
1767339027.599342,2,right_wrist,-0.0825,0.6974,0.7135,-33.81,158.34,-133.63,-0.21966998387987274,-0.4387535331576894,0.28705327920837675,0.8227033792440496,55.90605133700993,36.57068568129803,-130.20927860947648,5
1767339027.669107,1,left_wrist,-0.1235,-0.5612,0.629,-7.14,149.31,121.45,0.34100968616087773,0.29851170871620863,0.44501702377780805,-0.7723749104235138,-48.65796786630415,49.87463225554312,-156.10091268942372,5
1767339027.669107,2,right_wrist,-0.1879,0.6232,0.571,-36.54,157.15,-114.94,-0.20624740483187431,-0.5011784508041733,0.23682129121663278,0.8063484634301304,56.78180924332124,45.28061025843481,-125.89719563718884,5
1767339027.724779,1,left_wrist,-0.3138,-0.5427,0.3279,-51.59,169.89,96.32,0.34388455958073966,0.36184863488030233,0.4749889704324656,-0.7247030102633276,-56.86880420387671,58.3367892231625,-162.86220313656142,5
1767339027.724779,2,right_wrist,-0.3811,0.5251,0.4773,5.11,159.32,-102.06,-0.18676683296036195,-0.5635484734104803,0.2019949205331156,0.7789283152521121,61.66278377951465,53.36718067498996,-119.63700439782683,5
1767339027.775591,1,left_wrist,-0.5212,-0.4163,0.1903,-23.8,155.05,74.76,0.3354909308291666,0.4185873855964463,0.495195541106099,-0.6833826249031718,-68.10492512741143,64.73962906102163,-174.08552692072828,5
1767339027.775591,2,right_wrist,-0.468,0.3972,0.3152,6.16,153.37,-82.46,-0.17177744299311548,-0.6190829338052695,0.17130778102831012,0.7469153066506027,69.54508005689094,59.991522425475125,-110.41552070155248,5
1767339027.8531241,1,left_wrist,-0.6364,-0.326,0.0615,9.66,130.9,60.76,0.3205487854683244,0.47107646136990966,0.502402135819771,-0.650328791921224,-81.68602878624993,69.1955286302427,170.86064780972967,5
1767339027.8531241,2,right_wrist,-0.6427,0.3113,-0.0054,-10.64,118.65,-52.43,-0.15859461521621168,-0.7043716104206322,0.11303855447519323,0.6825911423832175,92.70310572120991,67.78036290748479,-83.53438234495208,5
1767339027.9234471,1,left_wrist,-0.8438,-0.3196,-0.2982,35.28,80.71,35.49,0.29314138351220187,0.5470224141506933,0.5118881489358734,-0.5939740151457003,-113.09075236656277,71.79511154773375,137.31897696806476,5
1767339027.9234471,2,right_wrist,-0.7403,0.3279,-0.0742,1.54,99.89,-42.91,-0.15051267311796046,-0.7375661855655589,0.09468681853809581,0.6514418343461613,107.05186969931648,68.82155895703143,-68.34503914586438,5
1767339027.973901,1,left_wrist,-0.8438,-0.3196,-0.2982,35.28,80.71,35.49,0.2736633521524577,0.5809378625886524,0.5063750192815909,-0.5755031792676529,-125.3381342774693,71.05236733479242,122.6624813517629,5
1767339027.973901,2,right_wrist,-0.7974,0.2904,-0.1274,-15.96,89.04,-37.03,-0.14773213755953063,-0.7648756623942858,0.0723918742720669,0.622816066867556,119.72900762787118,68.64852295449674,-54.055713820480946,5
1767339028.049505,1,left_wrist,-0.9277,-0.4207,-0.1235,11.27,65.24,33.67,0.26244141360196727,0.6033049658994767,0.5037948045676212,-0.5597663954171462,-133.6028646989028,70.02687317493728,113.15124932420979,5
1767339028.049505,2,right_wrist,-0.9765,0.6066,-0.0976,3.22,87.22,-33.46,-0.13510840478253114,-0.8051741816438361,0.041753709429176396,0.5759313187526811,138.4826395242554,66.37207571872199,-33.78340231157843,5
1767339028.124619,1,left_wrist,-0.67,0.0537,-0.8721,-150.29,76.09,-1.89,0.30287000479032966,0.6033408534314108,0.5911430180152086,-0.44136097134979324,-159.88707941438724,62.9564493513102,101.2240337385828,5
1767339028.124619,2,right_wrist,-0.7125,-0.0405,-0.6544,19.04,80.57,-23.45,-0.12146328107014184,-0.828581623036063,0.032359242442523216,0.545574967119227,147.7645863115215,63.66890820591038,-24.815374086867838,5
1767339028.194898,1,left_wrist,-0.8477,-0.1244,-0.527,166.6,-46.48,-16.94,0.26588544892989424,0.612112449987273,0.5570809851647017,-0.49425100160328683,-148.67929778910766,64.331306484987,104.60799743461284,5
1767339028.194898,2,right_wrist,-0.9614,0.2616,-0.2972,33.67,4.97,1.19,-0.09600685488426804,-0.8366902051375158,0.04787861772790166,0.5370659386021778,152.3422823738186,62.81327676996582,-23.644752853779877,5
1767339028.245569,1,left_wrist,-0.9945,-0.1122,-0.3758,-12.74,12.25,-1.89,0.26968748128058667,0.6143513539407314,0.5594726214739565,-0.48665332853354915,-150.76457138588265,64.12099633534875,103.20180221695382,5
1767339028.245569,2,right_wrist,-0.8403,0.1205,-0.4568,14.42,-4.48,0.28,-0.08770238568955707,-0.8379599297466074,0.049932285141798524,0.536319135015654,153.8991220636539,62.88198508094851,-22.952284929820888,5
1767339028.2987158,1,left_wrist,-0.8174,0.0747,-0.5866,-64.89,12.04,-5.18,0.28405944373044345,0.6103075823567192,0.5755466136914819,-0.4643069919931376,-155.26247641796024,63.344367847997894,102.05157391164845,5
1767339028.2987158,2,right_wrist,-0.8686,0.0586,-0.4104,12.46,-25.97,8.61,-0.08039845606899622,-0.8327038140571924,0.054338516264584164,0.5451493116261726,153.81048886928605,64.04765653130936,-24.02244914669805,5
1767339028.350946,1,left_wrist,-0.9243,-0.3182,-0.3562,45.78,-26.11,-15.33,0.27343166805748925,0.6043152928698826,0.5675692552812903,-0.4877533087189963,-149.2174560602612,64.14445066889196,105.98220688304822,5
1767339028.350946,2,right_wrist,-0.8672,0.1854,-0.3372,5.11,-31.99,17.85,-0.08239534984510159,-0.8226715352984817,0.06300487208890224,0.5589748987446602,150.32395351608628,65.41194279684397,-28.067936654667108,5
1767339028.4010189,1,left_wrist,-0.853,-0.223,-0.4792,-1.33,-32.9,-10.01,0.2779564817301283,0.5960698359217987,0.5681326759693858,-0.4946374505273871,-147.06893714031943,64.89195769837445,108.53433354094048,5
1767339028.4010189,2,right_wrist,-0.8301,0.2133,-0.4748,11.06,-45.43,25.06,-0.08338477006825135,-0.813267800303583,0.07683102721025727,0.570735891956913,146.28006394065503,66.27813996578969,-33.177308895529436,5
1767339028.472584,1,left_wrist,-0.7325,-0.1552,-0.5007,-22.05,-98.0,-47.25,0.3053708812191921,0.5442205107083895,0.5697464972257821,-0.5347537653225692,-131.09503782843348,68.43729588228098,126.9935029176796,5
1767339028.472584,2,right_wrist,-0.7422,0.1484,-0.5153,14.14,-79.59,44.87,-0.08590572055575997,-0.7942658294589591,0.09894081609853264,0.5932728834519778,137.9345294517047,67.73382826052135,-43.14195797623213,5
1767339028.525702,1,left_wrist,-0.6051,-0.2591,-0.161,-88.27,-135.38,-121.87,0.32685812393561714,0.4663598625742727,0.6008586943895076,-0.5609287608721188,-113.04268026628866,66.34534428475132,151.12601236797838,5
1767339028.525702,2,right_wrist,-0.6588,0.3011,-0.3304,39.76,-109.83,71.54,-0.08785276351241138,-0.7646017610626267,0.13988171240728195,0.6229760392319824,124.02442482042048,68.13734433783875,-60.27031566774745,5
1767339028.577337,1,left_wrist,-0.6051,-0.2591,-0.161,-88.27,-135.38,-121.87,0.34713315590534016,0.38844040433715765,0.6276921028933872,-0.578459374818026,-101.12458050991442,62.27361480103268,169.34314175105246,5
1767339028.577337,2,right_wrist,-0.529,0.3235,-0.2201,43.68,-136.15,98.84,-0.09432104152519062,-0.7223361739953027,0.19203457980555685,0.657614410595095,106.78625546918015,66.03751142810371,-81.31438873569977,5
1767339028.647089,1,left_wrist,-0.1122,-0.4612,0.325,-11.76,-167.93,-204.96,0.34041428158595755,0.28375655660734433,0.6350908780941589,-0.6326609755913902,-86.97251519107144,52.31948088929109,-173.3948091932121,5
1767339028.647089,2,right_wrist,-0.4006,0.5222,0.0917,54.74,-149.03,175.35,-0.12813218596255047,-0.5957619665403349,0.3332944817028752,0.7194196345741912,83.86424544881497,50.515282000729776,-113.8685933852986,5
1767339028.719249,1,left_wrist,-0.3689,-0.9048,0.1113,-116.34,-127.96,-251.93,0.29277636889506103,0.046789196671995444,0.6636342752831803,-0.6867913202427507,-82.60201139966995,26.927436111194343,-157.5794460253395,5
1767339028.719249,2,right_wrist,-0.2391,0.734,0.224,99.12,-168.77,211.4,-0.14576412301289485,-0.5107004789820805,0.42734518788562964,0.7316515096688799,81.68725661266276,38.5155022014322,-123.85358627055025,5
1767339028.769443,1,left_wrist,0.2196,-1.1707,0.2684,-80.99,-254.87,-233.73,0.2921269631656451,-0.10988671192967685,0.6514802523037156,-0.6914913078204156,-82.50423493272503,13.21810390133103,-145.8005250148915,5
1767339028.769443,2,right_wrist,-0.0898,0.5334,0.4914,55.65,-107.31,249.83,-0.19326877449893123,-0.4274959908291333,0.5037385989032369,0.7253563142371495,81.93345757673231,25.179780165583256,-128.21153650710139,5
1767339028.824637,1,left_wrist,-0.02,-1.1517,0.4094,-238.21,-36.61,-321.93,0.18985100260335053,-0.2410869027790077,0.6903427205553131,-0.6551798457639069,-93.98484004096446,-3.0832011396359498,-144.37473688399376,5
1767339028.824637,2,right_wrist,0.0791,1.3713,0.2982,58.38,-136.64,245.7,-0.2312798435393333,-0.32918456210927,0.576518212948804,0.711177831614335,83.04950223540695,11.62722984430809,-133.66676316693028,5
1767339028.87504,1,left_wrist,0.4128,-1.3625,0.1059,-309.96,-98.35,-298.55,0.09737186203092911,-0.3799518202870024,0.723847219586524,-0.5676271112641484,-110.59710738133244,-16.88054008972207,-136.34287653058627,5
1767339028.87504,2,right_wrist,0.3811,0.6666,0.5783,64.26,-76.93,259.7,-0.28331769127332834,-0.24187156736047302,0.6362428835541902,0.6755917582688442,85.78909598698299,-1.9315117508069222,-136.29187566662586,5
1767339030.624219,1,left_wrist,0.2499,-1.0263,1.0448,47.18,213.64,168.28,0.6313259504928119,-0.0769314891344314,0.38433374222986855,-0.6691761089559994,-41.43631138857814,22.47735768950381,-101.93036676945223,6
1767339030.624219,2,right_wrist,0.1908,1.0834,0.7671,-63.07,155.05,-169.89,-0.2655695021301248,-0.275781117723182,0.33642139166318835,0.8603710024617947,49.40858942993413,17.20921169002275,-137.7282437942589,6
1767339030.699031,1,left_wrist,0.1562,-0.751,0.9575,31.57,220.57,151.2,0.634985853314611,0.01844246285699064,0.43549636004642095,-0.637805426474565,-40.63692104354298,35.21129981046781,-103.65680608240882,6
1767339030.699031,2,right_wrist,0.0073,0.8682,0.73,-32.2,179.97,-147.28,-0.21127493903871017,-0.4297722335560049,0.2272651039008903,0.8479441608663801,47.078935258882744,39.25810521880377,-134.35506236346617,6
1767339030.7701719,1,left_wrist,-0.0927,-0.5026,0.5846,-3.71,224.56,104.09,0.5975718359972083,0.18444358538016337,0.5397653922539359,-0.5635084613029253,-47.99904446270055,58.53599378097316,-114.65963324001486,6
1767339030.7701719,2,right_wrist,-0.1196,0.5636,0.6583,3.92,188.79,-133.91,-0.18051365970355016,-0.5077411300323561,0.1863867518683171,0.8215069946518261,49.71675431007546,50.07945297741321,-130.78954876123777,6
1767339030.82639,1,left_wrist,-0.2625,-0.5192,0.3333,19.67,178.99,108.92,0.5774620280927578,0.2548728250700798,0.5704458088087815,-0.5255178668364099,-54.3056616454844,67.9264228432482,-122.72432470719032,6
1767339030.82639,2,right_wrist,-0.2313,0.4734,0.4968,-6.72,181.93,-113.75,-0.15711500787250354,-0.5766024279521604,0.14516290016979905,0.7885253621762521,54.46459559384865,59.73649476804836,-124.53214619777893,6
1767339030.900152,1,left_wrist,-0.548,-0.2113,-0.0151,9.52,139.86,71.68,0.554655517085191,0.3068776621786621,0.5968233820759035,-0.491919920749504,-68.08786981533738,74.5753860218835,-137.58708020757732,6
1767339030.900152,2,right_wrist,-0.4856,0.2948,-0.0102,-19.25,135.73,-75.25,-0.12196391654377817,-0.6855286788099163,0.08719050371939316,0.7124416113981492,81.2428653802494,72.8488478513905,-95.90734725325247,6
1767339030.970599,1,left_wrist,-0.6495,-0.0761,-0.1747,-19.25,112.35,49.7,0.5085583938799546,0.38865742114438756,0.6431412238301847,-0.4203369305852719,-131.66869651211073,78.77899167043479,158.16019310972317,6
1767339030.970599,2,right_wrist,-0.6329,0.2816,-0.1386,-5.81,115.36,-57.12,-0.11097500983789678,-0.7242880479943145,0.06372148288640338,0.6775182236241487,103.05711748605023,75.30586402495467,-73.08157452475643,6
1767339031.025791,1,left_wrist,-0.7725,-0.0234,-0.3499,36.68,86.59,32.9,0.4821028652098074,0.4233948950853601,0.6509662506799989,-0.4056556799155854,-149.80456148421231,76.20869730546201,137.81063030511967,6
1767339031.025791,2,right_wrist,-0.7544,0.3538,-0.2386,-25.97,86.94,-48.58,-0.10866843957207808,-0.7512965654871718,0.038542096389330045,0.6498147026145723,121.71574682217057,75.4732159766177,-52.553668367412016,6
1767339031.095635,1,left_wrist,-0.914,-0.1815,-0.3294,10.85,49.28,1.47,0.46327711799337423,0.4348811079429445,0.6613702617138831,-0.39855001043605537,-153.85211866766434,73.62542269717535,133.0665560223386,6
1767339031.095635,2,right_wrist,-0.8555,0.061,-0.3128,8.26,54.67,-30.59,-0.07984951553928815,-0.7914121619610753,0.017210480087260054,0.6058008287741143,149.82707162155214,72.96535447033783,-25.039064239215154,6
1767339031.151998,1,left_wrist,-0.914,-0.1815,-0.3294,10.85,49.28,1.47,0.44394229829674564,0.44573841822043797,0.6714115902964695,-0.3917128728046999,-156.45994336897442,70.96841554988794,129.73874894319877,6
1767339031.151998,2,right_wrist,-0.8603,0.08,-0.3841,17.57,42.07,-15.61,-0.0686261434086416,-0.8052366044279118,0.01429025497703464,0.5887955943644235,156.80654432614512,71.13413313046541,-18.729223152930004,6
1767339031.220619,1,left_wrist,-1.0092,-0.1845,-0.2772,7.7,13.79,4.76,0.42790996746001,0.4541456268983512,0.6698343401582634,-0.4024509486412235,-154.09585264987007,69.85104176478123,129.972583147176,6
1767339031.220619,2,right_wrist,-0.9194,0.0849,-0.388,35.42,25.41,-9.17,-0.0525382672925471,-0.8147891268636562,0.018575895238538042,0.5770730849127729,161.94735668291392,69.79018521269799,-15.257087103705036,6
1767339031.2764108,1,left_wrist,-1.0092,-0.1845,-0.2772,7.7,13.79,4.76,0.424399783909677,0.457592048438237,0.6689090409629758,-0.4038007374207108,-154.17349733584817,69.6065313011502,129.35898461205244,6
1767339031.2764108,2,right_wrist,-0.9331,0.1425,-0.3104,26.39,15.75,-1.19,-0.04650110831788943,-0.8181421499122336,0.02684404342364437,0.5725036827784304,162.56507553381923,69.11249227569331,-15.815257074695662,6
1767339031.349301,1,left_wrist,-0.8701,-0.1064,-0.3421,5.88,11.06,-2.03,0.41895481093689113,0.46219713015634906,0.671155201016824,-0.4005014050114372,-155.38866562933268,68.84199450528668,127.89608980265993,6
1767339031.349301,2,right_wrist,-0.9287,0.2011,-0.3309,14.42,-3.01,0.35,-0.05504448946927996,-0.8175368874564923,0.03151219169159485,0.5723727138865102,159.58414410867758,68.81246760846338,-18.475913128870264,6
1767339031.402449,1,left_wrist,-0.8774,-0.3016,-0.2747,-6.02,-9.66,-4.41,0.4203293591101314,0.4555215742816201,0.6722547718913894,-0.40484175538513395,-153.1554508026536,69.06159453696291,130.40670657094347,6
1767339031.402449,2,right_wrist,-0.8716,0.306,-0.4055,1.89,-11.55,6.37,-0.05934462055547637,-0.8155365927565359,0.03717177216728055,0.5744532541818617,157.26768219184646,68.83799605628957,-20.904530511152238,6
1767339031.473727,1,left_wrist,-0.9814,-0.2728,-0.2987,-7.14,-20.37,-7.42,0.42901731455096287,0.4415318066698284,0.672003398014456,-0.4115886788668781,-149.25499188962445,70.06183204343819,135.2047311028262,6
1767339031.473727,2,right_wrist,-0.8701,0.1396,-0.4182,2.94,-26.88,10.22,-0.060385075218442295,-0.8108469107688336,0.042521316747895783,0.5805797685155133,155.18458256543897,69.45344409101803,-23.344320533276388,6
1767339031.5456672,1,left_wrist,-0.834,-0.0483,-0.4704,27.37,-60.76,-9.59,0.438573510545685,0.43492641358841777,0.6586023434441362,-0.42980838035180596,-143.08923055234317,72.0937961439475,140.4242267902991,6
1767339031.5456672,2,right_wrist,-0.8281,0.1625,-0.327,-7.14,-81.48,37.03,-0.07713585242942908,-0.7774211978038839,0.0631846144548709,0.6210266064923056,137.52931088150999,72.91128262537009,-41.32753520789538,6
1767339031.5976331,1,left_wrist,-0.9018,-0.2216,-0.3104,-6.72,-77.98,-19.88,0.45517727598000846,0.4132064200879948,0.650828559543321,-0.44552922228766184,-132.79229299815609,73.87866225443476,151.55406332075506,6
1767339031.5976331,2,right_wrist,-0.7569,0.2367,-0.2752,14.84,-89.95,60.55,-0.08759803467699419,-0.7530210029562495,0.09237087506898489,0.6455645396600422,121.03625564741915,72.95294130360635,-59.35480023131287,6
1767339031.6751318,1,left_wrist,-0.6115,-0.0317,-0.1845,-56.84,-119.91,-108.15,0.49763899271718864,0.2851234213106678,0.6581320293627441,-0.4877727949305879,-94.60656129576277,68.935310256348,-162.15005616613337,6
1767339031.6751318,2,right_wrist,-0.6139,0.1571,-0.2147,19.81,-110.6,93.94,-0.10237290619518502,-0.7200290381843335,0.13287350319066388,0.6733666196050527,102.47327487103848,70.47259921864158,-80.03466526724117,6
1767339031.7449331,1,left_wrist,-0.429,-0.3167,0.0976,-75.18,-222.11,-167.44,0.5305356411452904,0.16904595910179515,0.6406534562927918,-0.5286951353341636,-76.23904431264175,59.15154290985119,-137.8081619869861,6
1767339031.7449331,2,right_wrist,-0.5007,0.2733,0.0254,43.12,-145.74,164.5,-0.15987608904927691,-0.6127069918833861,0.25154092340069933,0.7319541939918396,77.73581759264444,54.73755205102513,-110.06376093049249,6
1767339031.800202,1,left_wrist,-0.429,-0.3167,0.0976,-75.18,-222.11,-167.44,0.5541549767143443,0.049695504380897086,0.6129433154090287,-0.5610197061801313,-68.93664491950821,47.31494761484475,-124.18066359271444,6
1767339031.800202,2,right_wrist,-0.2542,0.5109,0.3899,-53.55,-170.17,176.26,-0.21245154344320571,-0.5291604486219909,0.2925099022472656,0.7676532540086495,68.25133154214224,43.482668160108545,-118.81397331885519,6
1767339031.872758,1,left_wrist,-0.223,-0.6832,0.3396,49.7,-179.55,-220.71,0.5314149590064987,-0.1426830869722281,0.4999938936967493,-0.6687643712864499,-60.758138119193504,19.911345694845085,-114.80683549438457,6
1767339031.872758,2,right_wrist,-0.1669,0.8467,0.5514,80.08,-149.94,195.44,-0.24098872901250146,-0.45529588960219197,0.3774493166909157,0.7695206941530869,69.4224207009349,31.25160162391808,-123.29214272134548,6
1767339031.949425,1,left_wrist,0.0991,-0.774,0.8403,-61.11,-134.19,-280.21,0.47016501612869405,-0.25640850669428,0.4615953109634682,-0.7071982071527426,-63.67256206571266,4.093751216960411,-115.3083603660696,6
1767339031.949425,2,right_wrist,0.2342,1.1692,0.4338,227.85,-112.91,264.18,-0.31205727950284556,-0.29709194076613243,0.58274806592456,0.6890292625877948,81.69554737653968,2.6198186232748335,-129.00373665547937,6
1767339033.6484082,1,left_wrist,0.1664,-0.8862,0.8886,85.12,184.24,183.4,0.4993618319161573,-0.01411709005775448,0.3882270381693696,-0.7744147696343863,-41.39468483589037,21.46092225361477,-122.56058895160972,7
1767339033.6484082,2,right_wrist,0.0542,0.8042,0.7613,-59.29,188.51,-153.93,-0.28388888529877954,-0.41833957502567776,0.2346893696927282,0.8302529738124288,49.282916336088846,34.1529456258922,-126.20405497096384,7
1767339033.7211,1,left_wrist,-0.0708,-0.6202,0.6134,31.29,192.78,139.72,0.52606978924722,0.17213484886328384,0.4340134787571707,-0.7108111358900471,-37.69883461608089,44.53569609169101,-122.9055706775897,7
1767339033.7211,2,right_wrist,-0.0712,0.6549,0.5685,-5.74,191.66,-130.48,-0.2581591329641326,-0.49502440556958616,0.18629476019516114,0.8084546754651818,51.652711758592055,44.76674119760224,-122.03593118728396,7
1767339033.772406,1,left_wrist,-0.2948,-0.6007,0.4821,9.8,179.34,135.45,0.5295727930047409,0.25045376314499107,0.460653350768398,-0.6668013646218176,-37.791656139738045,55.27592713249429,-123.41007341450091,7
1767339033.772406,2,right_wrist,-0.2777,0.5675,0.5397,-42.42,185.92,-110.04,-0.24452112492443814,-0.5595449273982894,0.12757338957985703,0.7815650478108884,54.19274673632167,54.316617614375225,-115.83983144100978,7
1767339033.8454661,1,left_wrist,-0.3889,-0.4363,0.2313,11.9,155.61,122.71,0.5286125806450575,0.31857423532874274,0.48054587818931194,-0.6230207501550352,-38.01169192418724,64.82354053783108,-124.04445030930897,7
1767339033.8454661,2,right_wrist,-0.486,0.4055,0.0561,20.51,143.57,-85.96,-0.18781181776576578,-0.6761468286744922,0.07128954006576534,0.7088511752534219,77.99697585880102,68.71667588798573,-92.38488825949639,7
1767339033.896781,1,left_wrist,-0.6407,-0.0805,-0.0756,9.24,117.74,70.98,0.5200704522098016,0.36933654272873956,0.4962563705607347,-0.5889370574359887,-40.49488401558894,72.02820176328937,-127.12686408058617,7
1767339033.896781,2,right_wrist,-0.6007,0.1874,-0.0361,4.13,102.2,-54.25,-0.17112800129607236,-0.7112887866208515,0.04728301392201124,0.6801086573440298,93.0382315375881,72.04974077377226,-76.78905294460141,7
1767339033.9496288,1,left_wrist,-0.6407,-0.0805,-0.0756,9.24,117.74,70.98,0.509195874647427,0.41840213454033237,0.5100517656444222,-0.5527263440592848,-46.74998207307307,79.09926115839322,-133.98016595279663,7
1767339033.9496288,2,right_wrist,-0.7627,0.2669,0.0098,14.07,68.18,-58.73,-0.15284999885466233,-0.7311456932314381,0.029687915993191354,0.6642149356670856,105.09219221755662,74.19625264385037,-64.81948089197212,7
1767339034.0000231,1,left_wrist,-0.957,-0.1444,-0.0137,2.38,88.48,44.45,0.4975330378987705,0.45115821385238486,0.5226712200488083,-0.5251018358427597,-65.03712779434413,83.6684672225478,-152.5152583468371,7
1767339034.0000231,2,right_wrist,-0.9628,0.2884,0.2928,-20.51,69.51,-52.36,-0.14567373177063836,-0.7479646250410625,0.0023558016730826337,0.6475511823459794,118.28671674943398,75.46725720769079,-49.985971109169235,7
1767339034.0765529,1,left_wrist,-0.8052,0.2611,-0.5007,-101.43,86.45,12.74,0.4862623207225908,0.4840146429998006,0.5721359446869323,-0.4493765031735052,-160.55850831021132,82.49169006128547,116.62397627331131,7
1767339034.0765529,2,right_wrist,-0.9116,0.1459,-0.1659,39.2,120.05,-41.23,-0.11843745794129383,-0.7847383441989596,-0.009685485459785093,0.6083292620544304,143.09234943959098,73.14722089375728,-26.39802438268448,7
1767339034.147415,1,left_wrist,-0.9941,0.0542,-0.4431,139.79,-21.28,-4.76,0.4588646546643829,0.5094978126077793,0.5417213611095263,-0.4862028121733429,-150.8434401178025,83.02163979420293,119.43699228171074,7
1767339034.147415,2,right_wrist,-0.8882,0.1884,-0.304,7.91,19.81,0.0,-0.10488063810826224,-0.8106320601819923,-0.00611507398503168,0.5760540952247978,152.59077931053247,69.26348059992013,-18.2563841954092,7
1767339034.197624,1,left_wrist,-1.0194,-0.2289,-0.0176,18.97,11.48,13.65,0.4538050793429223,0.5161517063596778,0.5376519090937094,-0.48844527905636137,-152.90849925015306,82.84004798619705,116.33715692493519,7
1767339034.197624,2,right_wrist,-0.9091,0.264,-0.2816,24.5,17.71,-9.8,-0.0975302451068641,-0.8154193641753689,-0.0015332912147735381,0.5705933410365766,154.5015257576229,68.56688957315022,-17.32208901282042,7
1767339034.248405,1,left_wrist,-0.9292,-0.0888,-0.2816,-9.24,14.84,3.85,0.45092503581633714,0.5196928900894153,0.5437616487435372,-0.4805301045931006,-157.71326334534368,81.82873572113475,111.96872086371827,7
1767339034.248405,2,right_wrist,-0.9174,0.1932,-0.3011,11.48,-6.3,1.4,-0.09707045377543042,-0.8129239842501388,0.004228424993737998,0.574207317313864,153.17701907176408,68.86808914283044,-19.1646800842552,7
1767339034.321902,1,left_wrist,-0.9706,-0.0454,-0.2435,-13.79,-0.14,-4.13,0.44427428071510605,0.5176547275208984,0.546722700606812,-0.48553911810639305,-152.0547768632384,81.29205741569761,117.24436730607142,7
1767339034.321902,2,right_wrist,-0.9223,0.164,-0.2699,7.77,-4.62,-0.7,-0.09479804139767534,-0.8099913477097992,0.006259272733090236,0.5786952302268271,152.75056198764486,69.4374853581819,-19.95327655878996,7
1767339034.371982,1,left_wrist,-0.9457,0.0112,-0.2264,-0.56,-23.66,-6.79,0.44838284460671207,0.5135838648342554,0.5441488825587081,-0.4889646531748606,-149.12954950788173,81.98136868793469,120.2951202329628,7
1767339034.371982,2,right_wrist,-0.9087,0.0673,-0.2152,13.72,-24.99,7.42,-0.08967234561070202,-0.8025345300237602,0.011611954319431943,0.5897137958951788,151.34049171048628,70.81262732801984,-22.24132400358839,7
1767339034.450201,1,left_wrist,-0.9404,0.0132,-0.2713,-20.3,-17.71,-7.56,0.4547036729698737,0.5064999116428667,0.5475379912054977,-0.48672842271653144,-147.28179277355648,82.30328394097491,123.23580182434546,7
1767339034.450201,2,right_wrist,-0.9457,0.1118,-0.2108,-7.56,-41.93,14.0,-0.09339630744523322,-0.7802853095471718,0.017023120549978024,0.6181764948841154,142.6135571896084,74.0555081241198,-31.134547056620793,7
1767339034.50677,1,left_wrist,-0.9311,-0.1391,-0.1742,-23.31,-39.27,-13.93,0.46300834134566066,0.489974004084774,0.550477528362873,-0.49246648813190963,-134.25889389434326,82.90509670763021,137.52336191183667,7
1767339034.50677,2,right_wrist,-0.9189,0.1801,-0.2518,8.19,-51.1,17.22,-0.0957462627585144,-0.7686883377693013,0.028235686845744703,0.6317860702275696,135.07542733180938,74.99124030453497,-39.4049015472057,7
1767339034.585247,1,left_wrist,-0.8701,-0.0991,-0.1884,-5.53,-72.94,-18.83,0.4839725284631135,0.45381126934677296,0.5449277337195079,-0.512717942469554,-92.76944256849197,83.12729779362562,-179.1888250827856,7
1767339034.585247,2,right_wrist,-0.8935,0.202,-0.2152,16.38,-58.31,21.84,-0.0969490789071492,-0.7548053854847196,0.044037111581405365,0.6472483595544187,125.17841203890221,75.59337065695132,-50.49907976768213,7
1767339034.647667,1,left_wrist,-0.7896,-0.0693,-0.1601,-26.39,-117.18,-47.18,0.5042526458348341,0.41236247787656594,0.5364352201618643,-0.5365852314199119,-62.164356715492666,79.58779330039698,-146.88439133369593,7
1767339034.647667,2,right_wrist,-0.732,0.0234,-0.1796,26.32,-104.3,61.95,-0.09486010301989109,-0.7070031676605711,0.09856233648343907,0.693854125591179,94.04046109048625,74.24148011148793,-86.26238468744715,7
1767339034.698352,1,left_wrist,-0.7091,-0.1352,-0.0512,-45.85,-130.55,-79.59,0.521188976674515,0.35374035047428626,0.5339871475480913,-0.5639925010962058,-52.468417980432065,72.86831069173242,-134.49824109562394,7
1767339034.698352,2,right_wrist,-0.6276,0.203,-0.082,37.66,-126.77,90.16,-0.10537775283901847,-0.6672110045408394,0.1437753189463154,0.7232244895522331,78.91152519405492,69.19347605398764,-104.25217350389299,7
1767339034.7741282,1,left_wrist,-0.6354,-0.2259,0.0361,-39.55,-151.62,-119.14,0.5425202984746297,0.21931116206765983,0.5196623183661652,-0.622515393228018,-48.356951849741044,56.81460475497355,-125.1537042215667,7
1767339034.7741282,2,right_wrist,-0.5607,0.266,0.0966,51.87,-153.93,121.1,-0.12053004290782701,-0.6082237175595223,0.20335169654021723,0.7577496325759104,68.6884376756822,60.778930854189504,-118.25097883999584,7
1767339034.8485498,1,left_wrist,-0.4187,-0.3382,0.1884,-72.17,-145.32,-171.5,0.5304218450242787,0.11964313690641604,0.5203720167851957,-0.658446011651024,-52.41232181133995,45.20160404626188,-125.45054786400448,7
1767339034.8485498,2,right_wrist,-0.345,0.5807,0.4148,38.08,-159.39,165.69,-0.17417885389280263,-0.4608531360411316,0.3299971011983123,0.8052192416096094,62.68207684561972,38.84521208793482,-131.35038764860727,7
1767339034.919083,1,left_wrist,-0.0488,-0.6583,0.4168,7.49,-162.96,-226.03,0.4632767589393232,-0.06965064007622095,0.4513190761907617,-0.7594962306884522,-52.147865473280035,18.202265496922372,-126.19964740804112,7
1767339034.919083,2,right_wrist,-0.081,0.6842,0.3601,67.27,-165.2,190.82,-0.20507410458800748,-0.37463825280356977,0.4040576515253209,0.8089055602525909,64.05746430673284,26.127517097510847,-135.02976060389693,7
1767339034.973545,1,left_wrist,0.4563,-1.0829,0.9575,-57.47,-137.9,-260.68,0.3972076311254116,-0.1804854923078872,0.4286471393262396,-0.7911464559672564,-55.37300184723564,3.1495830878379443,-128.33359272158262,7
1767339034.973545,2,right_wrist,0.2425,1.018,0.4089,123.13,-177.17,213.92,-0.22970881003984397,-0.27947402775577895,0.4962404989875349,0.7892233508739103,68.92792973049603,12.30720378500782,-139.07969245914734,7
1767339035.051049,1,left_wrist,0.5968,-1.3342,0.5573,74.06,-127.47,-266.56,0.3295905261501381,-0.2633205578902323,0.35667103672773565,-0.8335575207650725,-51.68998186697671,-11.763643143150697,-131.13856190375543,7
1767339035.051049,2,right_wrist,0.8657,1.2263,0.1303,104.58,-123.83,264.88,-0.3161502476537663,-0.0840851274977532,0.6487834997188415,0.6870652681767002,81.3318314497685,-17.138480889506955,-145.33376294800527,7
1767339036.8685281,1,left_wrist,-0.1244,-0.6852,0.8359,41.51,181.37,163.52,0.6029326570571898,0.04642178545042199,0.3130695949382989,-0.7323282444469295,-26.721237317266798,26.456084052973313,-107.4610667732449,8
1767339036.8685281,2,right_wrist,0.0864,0.7945,0.7413,-58.31,137.76,-164.36,-0.18767523343280096,-0.30502946584492013,0.3031167647877239,0.8830941391646363,45.88172994611778,25.148413104286593,-145.2174775577523,8
1767339036.9220932,1,left_wrist,-0.1596,-0.6246,0.7281,15.12,175.42,132.79,0.6172889850973154,0.1194064008209972,0.35081761688817215,-0.693990936541253,-25.083073189646214,36.78726601732666,-105.15662301563185,8
1767339036.9220932,2,right_wrist,-0.063,0.6998,0.7305,-23.73,149.87,-134.75,-0.16000528309453843,-0.37351868010524814,0.2639690883122697,0.8747584954773855,44.987195286574526,34.68082727867775,-144.53468255133276,8
1767339036.9734862,1,left_wrist,-0.3894,-0.3665,0.5022,-0.21,156.45,97.93,0.6194864739248541,0.17725703256111716,0.38917725643871026,-0.6582989564799694,-24.778582003709968,45.68881113679832,-104.05386530879767,8
1767339036.9734862,2,right_wrist,-0.2001,0.5514,0.6876,-9.94,146.23,-113.12,-0.1363760798884333,-0.43689818232333183,0.23133815851044615,0.8584894871422876,45.28784494281618,43.396806342307876,-143.09761551560976,8
1767339037.051703,1,left_wrist,-0.3894,-0.3665,0.5022,-0.21,156.45,97.93,0.6183521246389507,0.23387913511699307,0.42306465040017666,-0.6196430437705238,-23.812548657835446,54.394906610274504,-102.48712631120819,8
1767339037.051703,2,right_wrist,-0.5266,0.4455,0.4651,1.82,159.95,-93.52,-0.09529613405898141,-0.5607573599246396,0.17315735517227926,0.8040437553227449,51.08066370368498,60.31306314823252,-135.44964895453504,8
1767339037.122184,1,left_wrist,-0.669,-0.1796,0.2347,-14.91,143.01,71.05,0.5974149129427452,0.3284440085819378,0.4949075874688387,-0.5387823631913115,-25.570871194100338,70.95279500649674,-102.46502236867225,8
1767339037.122184,2,right_wrist,-0.589,0.3201,0.1771,-5.04,143.99,-81.2,-0.08063825285789299,-0.6166393699718763,0.14858336234365388,0.7688799282146519,59.21685569618379,67.56007392958007,-126.39815352230158,8
1767339037.197778,1,left_wrist,-0.731,-0.0669,0.0049,15.96,126.98,58.38,0.5789034902980238,0.376292627224619,0.5169274263068712,-0.5060243507469913,-25.625480120525285,78.32994103651922,-103.30459209322615,8
1767339037.197778,2,right_wrist,-0.8101,0.1484,0.1586,-35.0,113.68,-59.22,-0.06707467144660767,-0.6954432504416868,0.08360129475650403,0.7105423966101299,84.95097971447085,77.70623987176486,-96.39592188479853,8
1767339037.2484539,1,left_wrist,-0.8081,-0.1186,-0.1566,43.89,102.62,49.21,0.5565253076833763,0.4217013179509018,0.5268664205519286,-0.4846229000379511,-24.847990904431516,84.36127876671183,-104.67712603521036,8
1767339037.2484539,2,right_wrist,-0.7554,0.0468,-0.1991,0.14,105.7,-43.4,-0.05581415270934721,-0.7313298162019353,0.06628290086786029,0.6764969012079233,114.61055756822898,79.13853251158159,-66.24154166172944,8
1767339037.320021,1,left_wrist,-0.9374,-0.1864,-0.2357,62.02,24.92,10.78,0.522742713138789,0.470136076136837,0.5288753474849172,-0.4753977204380183,-97.41181265458707,89.34524778056931,178.66932104983277,8
1767339037.320021,2,right_wrist,-0.752,0.0581,-0.2957,-13.86,51.66,-16.1,-0.0558893914720622,-0.748972888404189,0.055262946084049476,0.6579224841472437,129.29709764749805,78.33740274963725,-50.65187840977417,8
1767339037.3744042,1,left_wrist,-0.9126,-0.0288,-0.2855,31.43,27.93,8.33,0.5093931099694877,0.4865157908449388,0.5290257028903917,-0.4732365692288205,-171.32841761595014,88.07938763190975,103.18063476705152,8
1767339037.3744042,2,right_wrist,-0.9296,0.3284,-0.2494,18.06,49.21,-12.6,-0.05019700255867747,-0.7650970503479644,0.05770574464972934,0.6393565605492671,139.6721603020428,76.54336464631346,-40.940483830743396,8
1767339037.448664,1,left_wrist,-0.9599,-0.103,-0.1991,18.41,19.18,0.14,0.49827390865199334,0.49510746811557493,0.5320993664372632,-0.47271764427606605,-170.2943655812478,86.71268266064764,103.29144047145185,8
1767339037.448664,2,right_wrist,-0.913,0.2318,-0.2147,6.02,-8.89,-1.12,-0.03480280560893581,-0.7730319761145948,0.07205502836788465,0.629299929694112,144.89265462449706,75.44856967648929,-38.150695219271775,8
1767339037.501982,1,left_wrist,-0.9462,-0.019,-0.1972,-29.68,15.47,7.14,0.5004237101630806,0.4950264142386341,0.5418986025616094,-0.45920677701274426,-178.34169261401047,85.5583998855097,96.71087290233181,8
1767339037.501982,2,right_wrist,-0.978,0.0639,-0.144,25.9,10.5,-4.76,-0.022536022800891554,-0.7750300537327163,0.07513210058150911,0.6270372484546596,148.72545373982175,75.59445004942269,-35.571231408688064,8
1767339037.570522,1,left_wrist,-0.995,-0.0864,-0.1181,-4.06,8.54,-0.21,0.4981242893725757,0.4934584591514163,0.55700773221352,-0.4450992335236358,-177.7416157949889,83.82294028970745,98.95112143613902,8
1767339037.570522,2,right_wrist,-0.9711,0.1435,-0.2323,4.13,-2.45,-0.21,-0.022782141617991674,-0.7762288321299363,0.07789844747277636,0.6252052511574292,148.5626013672859,75.2521060898626,-35.94179180768794,8
1767339037.624964,1,left_wrist,-0.9716,-0.1444,-0.222,-4.06,3.99,1.82,0.49513556060668196,0.4933341809512118,0.5611658844319801,-0.44334525223303956,-175.56277997649119,83.28550577742365,101.30695339059952,8
1767339037.624964,2,right_wrist,-0.9838,0.1235,-0.222,-12.25,3.36,-0.77,-0.022969347809076848,-0.7777027055013604,0.07122782406960389,0.6241614438551931,150.44259073875693,75.36431159976642,-33.50060956655763,8
1767339037.67776,1,left_wrist,-0.9584,-0.1645,-0.2303,-11.34,-2.03,-6.37,0.49353404666479495,0.4883155763760426,0.56718622524813,-0.4430257650972262,-170.30395623017756,82.98968230170749,107.12801281293021,8
1767339037.67776,2,right_wrist,-0.9697,0.1747,-0.2186,16.66,1.19,-0.91,-0.020991635492799688,-0.7777264216225142,0.07851952088886992,0.6233262782756387,149.54942148964588,75.07373947839535,-35.15312044844951,8
1767339037.749103,1,left_wrist,-0.9282,-0.0771,-0.305,-13.37,-18.41,-7.42,0.49687383828068726,0.4810774744105911,0.5696868558608853,-0.4440019579982538,-166.04797622476553,83.37557129411172,112.07867732027452,8
1767339037.749103,2,right_wrist,-0.893,0.0825,-0.3753,10.92,-34.51,10.36,-0.017932389772607922,-0.7673712729973409,0.08742546203930167,0.6349618471709136,144.32781105002567,76.25612350293191,-41.3461692461887,8
1767339037.801177,1,left_wrist,-0.8725,-0.1205,-0.3045,-24.15,-43.05,-14.42,0.5068780413550703,0.46456093185556946,0.5705004898293606,-0.4492070601515432,-153.26503539220514,84.69488172258227,126.12973383710103,8
1767339037.801177,2,right_wrist,-0.7876,-0.0478,-0.4363,7.84,-73.01,32.13,-0.01971845227788147,-0.7481394712807188,0.09979275556364811,0.655698040326937,130.98639485948888,77.73395573503925,-55.542784847344215,8
1767339037.875221,1,left_wrist,-0.9048,-0.0664,-0.1405,4.48,-106.33,-27.86,0.5363649597151241,0.4177992165861688,0.5422182526572978,-0.49371632654292846,-54.207541944938406,83.82731133745054,-134.6101488146923,8
1767339037.875221,2,right_wrist,-0.8325,0.0542,-0.1196,6.44,-100.52,55.65,-0.025359354612770134,-0.7167262556765428,0.11729914657283419,0.686950717133909,105.53694248728327,78.17049989963026,-81.95801299843872,8
1767339037.9467971,1,left_wrist,-0.8398,-0.142,-0.0107,-15.47,-111.65,-45.78,0.5520721681211205,0.3784064828133418,0.5301313395072723,-0.5205627895106474,-41.51015752614089,78.32471246352918,-120.94190588855074,8
1767339037.9467971,2,right_wrist,-0.7335,0.3899,0.0205,-9.31,-117.88,78.19,-0.07950627474200699,-0.6349628130848418,0.14581391762702656,0.7544794759980497,64.78938913876117,69.21951600764328,-120.67505936098897,8
1767339038.024041,1,left_wrist,-0.6285,-0.3143,-0.0176,-36.47,-133.91,-78.54,0.5695521207897115,0.2836851996373417,0.49182788988808496,-0.5943386374272644,-36.3540260338841,63.82531926761291,-115.55235500241416,8
1767339038.024041,2,right_wrist,-0.5514,0.2133,0.1391,0.21,-140.84,91.0,-0.10145575691001274,-0.5782059176227733,0.17615469725356314,0.7901608499864624,55.76301748730233,61.402940616660516,-130.486315991531,8
1767339038.078719,1,left_wrist,-0.4148,-0.1918,0.2103,13.93,-191.8,-104.09,0.5783617677321388,0.21017546440672166,0.45125780584346475,-0.6462896660573464,-33.99683035128615,52.52783457461135,-113.50601185555433,8
1767339038.078719,2,right_wrist,-0.4368,0.63,0.0869,34.51,-151.2,105.56,-0.11992192032286007,-0.5173968487857471,0.2245491623637839,0.8170048393824724,53.46773355893389,52.332916472426476,-135.49877167960324,8
1767339038.146409,1,left_wrist,-0.3787,-0.507,0.2718,-16.52,-165.9,-138.6,0.5686829328612517,0.1276599081395925,0.42704492896948426,-0.691328647148058,-36.45743876478148,41.46911479680539,-115.33219623333771,8
1767339038.146409,2,right_wrist,-0.0127,0.835,0.284,68.74,-212.66,175.0,-0.1837608176112473,-0.32819788410687933,0.336976580704598,0.8631134889661096,51.55915906366302,26.276142177974233,-143.09811656869593,8
1767339038.222302,1,left_wrist,-0.0898,-0.8599,0.671,-113.12,-150.43,-203.49,0.5123134529639664,-0.08629676813242362,0.36558947326113134,-0.7722901855926212,-42.29832559425575,13.963310618027773,-118.30646935064937,8
1767339038.222302,2,right_wrist,0.2786,0.5348,0.852,51.52,-203.63,229.88,-0.23245692844788413,-0.21593643918844496,0.40184149467733576,0.8589869869809873,53.56236178912587,10.611667225964696,-144.34750659998488,8
1767339038.279518,1,left_wrist,0.3123,-0.9457,0.8657,-137.2,-230.44,-222.25,0.46185784564217935,-0.23171707091856875,0.3463258023164061,-0.7829769907944815,-49.206539106411974,-2.4617079782251943,-117.80212800947685,8
1767339038.279518,2,right_wrist,0.3538,1.4577,0.7183,147.84,-186.27,227.22,-0.2699752182841425,-0.1169281775095757,0.4951682872301557,0.8174653204499092,61.07407303204142,-4.369994864879204,-146.02621044920832,8
1767339038.3484328,1,left_wrist,0.4568,-1.1785,0.815,-187.25,-118.86,-275.94,0.3602110013326742,-0.3515354688704853,0.3531988184712563,-0.7886199612458644,-58.15308975878051,-17.457817878529966,-121.14215822756971,8
1767339038.3484328,2,right_wrist,0.791,1.3693,0.5817,182.91,-115.43,247.45,-0.3681881503162728,0.0597596932233687,0.6276933826060838,0.6832768710157422,75.86990837174835,-32.948389580916626,-149.3238386109085,8
1767339039.851108,1,left_wrist,0.2508,-0.9052,0.5607,118.86,87.22,207.27,0.3376209508556586,-0.10740448204048542,0.44113850801163157,-0.8245442301842925,-53.697048526568665,6.93571892576448,-138.97941183523855,9
1767339039.851108,2,right_wrist,0.1005,1.0009,0.5968,-91.56,109.55,-160.93,-0.22943945816177236,-0.3154338742209666,0.37538446286592625,0.8408005180012937,56.215603891502134,20.98833758700052,-138.17255647545377,9
1767339039.927239,1,left_wrist,-0.1171,-0.8335,0.7042,48.51,147.84,173.6,0.4121826009911896,0.07147717226108133,0.44145283670324603,-0.793798406556951,-46.93250626025631,28.515421888523864,-137.70848681842702,9
1767339039.927239,2,right_wrist,-0.0395,0.8891,0.6417,-73.36,118.79,-151.62,-0.20486558566719737,-0.3714011837435677,0.3158652612177528,0.8487169076193507,52.68894949929953,30.066783001776557,-137.70734610017354,9
1767339039.998615,1,left_wrist,-0.3187,-0.5758,0.4026,24.29,145.18,128.52,0.42450076157478667,0.14747761259394607,0.45652895190234105,-0.7678741910501784,-46.860717522629756,37.88526738090827,-139.04986459837318,9
1767339039.998615,2,right_wrist,-0.388,0.5251,0.3406,-13.86,123.76,-117.46,-0.15334646307765162,-0.48981186932980214,0.24444953995788138,0.8226868282278499,54.04811177600803,46.96631356858396,-133.89317289415115,9
1767339040.0496461,1,left_wrist,-0.3187,-0.5758,0.4026,24.29,145.18,128.52,0.4335744502265052,0.22134852862698115,0.46681513722363804,-0.7383099976597435,-46.853994515302624,47.02455338469164,-140.50412745895937,9
1767339040.0496461,2,right_wrist,-0.4597,0.3553,0.2733,23.8,107.31,-89.53,-0.12830188242919235,-0.535575626340828,0.2258500320015909,0.8035478445491817,57.05304178448262,53.395179688983085,-131.279636753191,9
1767339040.121611,1,left_wrist,-0.5417,-0.3543,0.0044,8.82,111.93,92.47,0.4401326192266447,0.34255567029203665,0.49212942123346604,-0.6683917436652553,-51.74800994991494,63.015232057094416,-146.38557303099324,9
1767339040.121611,2,right_wrist,-0.5949,0.508,0.1757,-45.01,77.28,-74.2,-0.12212715625408103,-0.5675481155240147,0.19180064919827183,0.7913195342196174,57.4534508908178,58.36161321454087,-128.41688439367698,9
1767339040.172645,1,left_wrist,-0.6676,-0.144,-0.0547,-0.21,79.8,66.78,0.44162470805125514,0.38236324369681424,0.49852944832378543,-0.6404953990953226,-55.01937968801855,68.45503264372742,-149.84442946174778,9
1767339040.172645,2,right_wrist,-0.6988,0.3465,0.286,-12.74,77.49,-63.14,-0.10958656527286546,-0.5960511606859344,0.16578596869445342,0.7779645307728933,58.893101589001105,63.00895801936821,-125.79126240031069,9
1767339040.251744,1,left_wrist,-0.7989,-0.2938,-0.0283,3.78,56.98,51.52,0.4410730866689849,0.411256269055783,0.5021144646389417,-0.6198418167395295,-58.76224640444247,72.3197111094161,-153.86138457844459,9
1767339040.251744,2,right_wrist,-0.8677,0.3138,0.2181,-8.82,92.82,-52.85,-0.0935181030306123,-0.6513294352737823,0.1159209674099118,0.744034045233309,67.04406267999691,71.35921621356795,-114.79557168426906,9
1767339040.3231812,1,left_wrist,-0.916,-0.1444,0.021,17.15,37.59,28.0,0.4351610512512781,0.459098395479902,0.5007939227469358,-0.5908205900960106,-68.20112863190752,78.05357682648027,-164.77002785754476,9
1767339040.3231812,2,right_wrist,-0.873,0.2181,0.0478,-30.87,89.11,-48.51,-0.08906362554754094,-0.683171295167575,0.08703861049302289,0.719561625121038,78.24183817823936,75.38967858851143,-101.59273512677669,9
1767339040.4012768,1,left_wrist,-0.916,-0.1444,0.021,17.15,37.59,28.0,0.4305306220999604,0.4807523005810496,0.49838452768292807,-0.5789071354600098,-75.89424116224991,80.31974544935402,-173.41754924244484,9
1767339040.4012768,2,right_wrist,-0.9087,0.2391,0.0376,-47.25,57.05,-31.43,-0.0924974734514561,-0.723109040416532,0.044461602888692546,0.6830671262339798,104.3405244091331,78.41813834343998,-71.7464768027683,9
1767339040.451933,1,left_wrist,-0.8686,0.0659,-0.3597,-76.51,58.31,18.97,0.43776024697277677,0.4875826842944082,0.5250171750288097,-0.5431261898227344,-100.56946139906776,81.61130901713422,165.52714584135137,9
1767339040.451933,2,right_wrist,-0.8735,0.2108,-0.2606,44.24,81.06,-27.44,-0.07201907464033853,-0.7512704965550852,0.04625964296855425,0.6544203078498155,128.26181984652237,77.58877388151262,-49.63851280375436,9
1767339040.518493,1,left_wrist,-1.0492,-0.4138,0.0054,18.41,-3.43,8.96,0.4414495629333685,0.4955259916364256,0.5448956201763374,-0.5125085736954258,-125.05391946631966,81.49792323204873,143.69991758623593,9
1767339040.518493,2,right_wrist,-0.8028,-0.0644,-0.4353,-14.63,32.83,-7.56,-0.0733249842410378,-0.7626622952169174,0.03726545729765188,0.6415457550579786,136.1300620260715,76.68050409562088,-40.927917046025186,9
1767339040.5715451,1,left_wrist,-1.0492,-0.4138,0.0054,18.41,-3.43,8.96,0.43859126100666407,0.4976087387066811,0.5393505321319213,-0.5187718693417596,-122.03402549611995,81.65009999134499,145.75759615842762,9
1767339040.5715451,2,right_wrist,-0.876,0.1283,-0.2406,-9.31,-0.63,0.42,-0.07574012931082097,-0.764532795118484,0.03454674483661557,0.6391866397395146,136.9758809861076,76.44005445910406,-39.66229350395966,9
1767339040.623308,1,left_wrist,-0.9828,-0.144,-0.183,-55.23,11.62,12.04,0.44826556498161646,0.49364089756288726,0.5533617603963065,-0.4991667152726832,-132.24360535749318,81.46456293529035,138.26313367073166,9
1767339040.623308,2,right_wrist,-0.9755,0.3099,-0.1957,41.72,6.02,-7.07,-0.06364069195565297,-0.7678443124859547,0.046818657714163686,0.6357460085601963,139.4112946634712,76.01256822502867,-39.2153909070455,9
1767339040.6979358,1,left_wrist,-0.9682,-0.205,-0.1527,-32.83,-3.5,0.21,0.45283962194510213,0.4854511561803686,0.5626217202320812,-0.4926766197850818,-132.30727026587022,81.07626202691655,139.83841337605693,9
1767339040.6979358,2,right_wrist,-0.9526,0.08,-0.1606,-10.64,-5.04,5.32,-0.05448712946853014,-0.7660474174812041,0.046146916672399306,0.6388058930334692,141.3197363622237,76.82598950325236,-37.99997427799458,9
1767339040.769381,1,left_wrist,-0.9726,-0.0727,-0.2084,-8.68,-2.73,-0.7,0.4581912375073684,0.48027411215807364,0.5694612172947618,-0.4848829642907747,-134.42437110234627,80.96688069885504,139.16809290623172,9
1767339040.769381,2,right_wrist,-0.9745,0.1581,-0.2386,8.96,-1.68,5.53,-0.05347850204626945,-0.7679071892244124,0.05124534665251575,0.636264499247611,141.40607292953985,76.33730487470257,-38.41168401252739,9
1767339040.8215308,1,left_wrist,-0.9648,-0.0917,-0.1703,1.47,-13.93,-11.06,0.45773057190247257,0.47691230395832207,0.5700509606205365,-0.48793368419755967,-131.2048615983214,80.84540638070634,142.41321825238936,9
1767339040.8215308,2,right_wrist,-0.8886,0.0908,-0.3201,8.54,-18.27,11.69,-0.05240458528547111,-0.7651417497733181,0.05741673589670168,0.6391519229681244,139.12687092639936,76.42556945975602,-41.28212309309718,9
1767339040.8768158,1,left_wrist,-0.9648,-0.1391,-0.1576,-3.99,-14.28,-12.88,0.456841645733246,0.4706504248153247,0.573078050553154,-0.4912895646348398,-126.88607594855152,80.42307618122908,147.02327483002318,9
1767339040.8768158,2,right_wrist,-0.9379,0.2489,-0.2196,1.47,-35.42,15.68,-0.05856003159260986,-0.7558414277727076,0.06670051785971715,0.6487106440313994,130.87123560613762,76.61407772638691,-49.792905358485044,9
1767339040.949515,1,left_wrist,-0.8169,-0.0908,-0.3426,-17.5,-69.44,-44.73,0.46613254005229565,0.44271264431070123,0.5737148085083926,-0.5075207268378306,-106.5133412420281,79.8098276591459,168.64327014040427,9
1767339040.949515,2,right_wrist,-0.7706,0.0176,-0.3689,12.39,-85.26,52.01,-0.06325288228693975,-0.7221644766157462,0.10019301158793562,0.6814975436680897,105.47954434530746,76.31997757229554,-77.53546219568916,9
1767339041.0226188,1,left_wrist,-0.6695,-0.082,-0.2869,5.25,-126.56,-71.61,0.4871914024938455,0.37021694580442244,0.5600746057044131,-0.5584804261747869,-69.59706047240421,73.58598860035336,-152.7291737421356,9
1767339041.0226188,2,right_wrist,-0.7335,0.2269,-0.1591,63.35,-107.73,76.16,-0.06210027218997892,-0.689512685663847,0.14703917392532287,0.7064667676783657,88.84729038552359,72.93515535901399,-98.11649147366191,9
1767339041.0726368,1,left_wrist,-0.6373,-0.1742,-0.0981,-20.02,-160.44,-97.09,0.5027147290244505,0.3039606644243146,0.5471605616699197,-0.5962391596143789,-58.03559643044436,65.86686054079752,-139.25748176335404,9
1767339041.0726368,2,right_wrist,-0.6378,0.2977,-0.0844,32.83,-129.29,92.05,-0.07415844024174467,-0.6446963001357949,0.19042624407640557,0.7366173035566582,75.65329913141866,67.15307575569331,-113.96940865630293,9
1767339041.124157,1,left_wrist,-0.5475,-0.3582,0.204,-6.16,-175.49,-125.37,0.5091183310793654,0.22227414318176958,0.5246661871662424,-0.6450721837718699,-52.10934358435152,55.18503136227255,-132.1027161580106,9
1767339041.124157,2,right_wrist,-0.5246,0.3167,-0.0137,32.83,-149.73,121.31,-0.09327788572352734,-0.586687938281109,0.24202127404033372,0.7671520071161281,67.97987253457255,58.760529479933844,-124.55975399231508,9
1767339041.197649,1,left_wrist,-0.5256,-0.3928,0.2567,-32.27,-171.57,-157.22,0.5024609980264442,0.12611371495009727,0.5090312429317301,-0.6873976069809474,-51.86203561065058,43.22909766749979,-129.4792824497499,9
1767339041.197649,2,right_wrist,-0.2303,0.649,0.3436,77.35,-168.14,185.5,-0.14167842748893583,-0.42145517581059,0.3815111387396669,0.810402374740036,64.38952077853165,35.099124771616765,-137.6448850895333,9
1767339041.252814,1,left_wrist,-0.2762,-0.6647,0.406,-92.89,-182.49,-183.26,0.48770766430002177,0.006024282233247084,0.5031543844940529,-0.7134007342097441,-55.26905805335634,29.958986559944766,-127.2328381852257,9
1767339041.252814,2,right_wrist,0.0088,0.7393,0.5588,-6.16,-173.6,214.2,-0.19040053784066932,-0.31806520818264483,0.4270539085447169,0.8247466991327673,62.32723035258609,21.22454114577641,-141.07165452332617,9
1767339041.3227599,1,left_wrist,0.3104,-0.9506,0.9306,-169.33,-160.37,-243.25,0.38602345213208517,-0.2444580908142659,0.48538275773579437,-0.7454057383279706,-65.83854388520245,0.5900038701700577,-125.62538473894011,9
1767339041.3227599,2,right_wrist,0.121,1.2727,0.6398,190.05,-142.94,227.01,-0.21930950909729927,-0.23386659120312292,0.5350981481911942,0.7815879531702671,71.29406784836321,7.5198920698451115,-143.25549600083392,9
1767339041.394815,1,left_wrist,0.3982,-1.4645,0.6207,-147.91,-97.86,-267.12,0.29848889890684005,-0.3579380607528743,0.48190663385467364,-0.7419910499060693,-73.2641971747212,-14.092385410055114,-125.67020010431425,9
1767339041.394815,2,right_wrist,0.4475,1.3859,0.3372,304.36,-67.97,247.73,-0.33189456149736085,-0.09124218908129345,0.6724832617559898,0.6552000653526776,85.21219567294631,-19.076075601898076,-143.84059323315864,9
1767339043.094978,1,left_wrist,0.1015,-0.8667,0.7276,79.31,137.83,182.21,0.5080560200927868,-0.05478311510067884,0.43094222888615574,-0.7437517637693208,-48.21558861962639,20.878996252654332,-120.75261594270165,10
1767339043.094978,2,right_wrist,-0.1098,0.815,0.6207,-32.34,144.48,-154.56,-0.15096772494990335,-0.372468992723673,0.292241663181874,0.8677962927920094,48.31990869071279,33.932532823745284,-144.6767675112748,10
1767339043.146694,1,left_wrist,-0.0878,-0.7515,0.6281,20.86,163.24,160.51,0.5260698857752609,0.028746662610080805,0.46076617410447207,-0.714225900867725,-47.58252695147226,31.725727615669708,-121.53349984120288,10
1767339043.146694,2,right_wrist,-0.263,0.6364,0.5324,-21.49,146.37,-131.32,-0.1251316500280951,-0.43832920498587696,0.2543710941141092,0.8529389923651554,48.18419128150502,43.16301379127441,-143.24689062122417,10
1767339043.198984,1,left_wrist,-0.2313,-0.5856,0.5266,12.74,161.28,146.79,0.5359829787343439,0.10727524742055962,0.4885737752333272,-0.6800808289844464,-47.72688134303287,42.03975906375446,-122.81032670068804,10
1767339043.198984,2,right_wrist,-0.3577,0.4592,0.4372,11.62,140.21,-114.03,-0.09757853029924472,-0.49913187293647865,0.22990433579776226,0.8297528549061775,50.41336424237513,51.57706354134978,-140.9597808388282,10
1767339043.2540128,1,left_wrist,-0.3387,-0.5324,0.3631,-12.18,148.05,128.38,0.539470268982219,0.17095251117146992,0.519692857220264,-0.6400518744310177,-50.14442830673724,51.219816854729274,-125.02720640664754,10
1767339043.2540128,2,right_wrist,-0.4958,0.5012,0.264,-20.09,121.03,-96.04,-0.08178671723621272,-0.5494707942234961,0.2001729038398656,0.8070462116554665,52.57540308446913,58.66636200018137,-137.39997689311187,10
1767339043.328416,1,left_wrist,-0.6017,-0.223,0.0908,-21.35,123.69,85.47,0.5315467585555524,0.2750779976351812,0.5749205164522881,-0.5579036999772797,-61.74534334177567,66.65397370435909,-135.69240105377855,10
1767339043.328416,2,right_wrist,-0.5929,0.3182,0.2235,16.94,103.81,-72.66,-0.06402065029532318,-0.5908179751579852,0.1885800955123493,0.781839513034827,58.087734508535256,64.11913872125544,-132.28227843737344,10
1767339043.39947,1,left_wrist,-0.7105,-0.1542,0.039,-8.75,92.12,63.07,0.5243481427318915,0.3139704549213885,0.5909055311817699,-0.5266044358613616,-70.37524281143868,71.87073148931759,-144.38644644277915,10
1767339043.39947,2,right_wrist,-0.8062,0.2352,0.1093,4.48,76.72,-54.32,-0.03251098629364185,-0.6584263908894941,0.15942233325101332,0.7348484491452999,73.493669845343,73.20035133840737,-116.9155804780277,10
1767339043.473589,1,left_wrist,-0.8984,-0.263,-0.0747,11.62,63.21,25.41,0.4993457285491945,0.37119373014981005,0.6094038989237578,-0.4914223703227872,-94.58800954362879,76.7632592056999,-170.35441403743624,10
1767339043.473589,2,right_wrist,-0.8784,0.2406,0.0039,6.09,68.04,-45.08,-0.02051026006470014,-0.6855223647915464,0.14753295682269524,0.7126516984150371,86.02016299126147,76.17388962579675,-104.36186379724795,10
1767339043.5265,1,left_wrist,-0.9565,-0.2562,-0.1044,7.77,49.07,21.91,0.48719343068856413,0.38956076167185666,0.6172010923385766,-0.47952871204508507,-107.11544199502075,77.1624054943239,176.48348911195512,10
1767339043.5265,2,right_wrist,-0.8872,0.0849,-0.0659,-11.34,61.46,-34.3,-0.01443078320999904,-0.7085265100691234,0.1308120624582139,0.6933037871962355,100.7291213684181,78.14559931686566,-88.76261116826528,10
1767339043.595757,1,left_wrist,-0.8896,-0.1479,-0.2865,16.24,49.07,11.9,0.4720229217974145,0.40807533631963555,0.6238663843459036,-0.47059495924692785,-118.89900465369891,76.66417970583908,163.65659316210125,10
1767339043.595757,2,right_wrist,-0.8843,0.2142,-0.3963,43.54,73.08,-35.35,0.006456123851631608,-0.752236071691668,0.11627133205484778,0.648521540315271,138.3706559459452,77.7372633662262,-51.64371733056833,10
1767339043.6491132,1,left_wrist,-0.8896,-0.1479,-0.2865,16.24,49.07,11.9,0.45652949638285656,0.426285957640916,0.6300859636065218,-0.4613597075131546,-129.33000510930773,75.61494233435643,152.17988673425023,10
1767339043.6491132,2,right_wrist,-0.834,-0.2103,-0.3645,17.43,32.48,-13.16,0.017170023484409064,-0.7640191453508246,0.1147362680302962,0.6346774965519265,148.35910073844627,76.84339311853283,-42.415769338156615,10
1767339043.699119,1,left_wrist,-0.8545,-0.0913,-0.3089,72.1,-0.91,2.31,0.44262066973378417,0.4430167381702181,0.6160559938584479,-0.47780553037456236,-127.64146396622603,75.62923499430752,150.32594945071358,10
1767339043.699119,2,right_wrist,-0.9536,0.1659,-0.2054,15.33,0.49,-3.08,0.01947615720289736,-0.7645893859208821,0.12100407701425951,0.6327572706683534,148.13989828781834,76.48588353210364,-43.341820917276294,10
1767339043.773367,1,left_wrist,-0.9828,-0.1967,-0.1952,-22.05,10.57,3.78,0.4414203240615654,0.4446320919825902,0.6235707203392714,-0.4675574371348728,-132.245683350434,75.08209140707041,146.59267412672207,10
1767339043.773367,2,right_wrist,-0.9409,0.1747,-0.1815,15.47,5.95,-4.2,0.021829969925852132,-0.7652003092865127,0.1268011917983518,0.630803770470167,148.08550096808486,76.148291740476,-44.06915903262397,10
1767339043.853627,1,left_wrist,-0.9755,-0.2577,-0.2045,-1.75,14.42,-6.23,0.4331599881474618,0.4439261037041636,0.6304559904783547,-0.4667197051636963,-132.84038823611579,73.85369859918086,146.02071497424456,10
1767339043.853627,2,right_wrist,-1.0146,0.2191,-0.1771,2.24,-3.22,-4.97,0.030075759854569555,-0.7653236753184417,0.13381334381346482,0.6288633473845509,149.46223493116955,76.07631492808798,-43.946664402308045,10
1767339043.907222,1,left_wrist,-0.9755,-0.2577,-0.2045,-1.75,14.42,-6.23,0.42499430325412657,0.4426480303773578,0.6369936593572864,-0.4665636519738748,-132.99548579775674,72.64680867546114,145.8681237066456,10
1767339043.907222,2,right_wrist,-0.9819,0.0532,-0.1952,6.65,2.45,-2.03,0.036485585020079196,-0.7660063568844848,0.13190821336457612,0.6280949661836714,152.20755464203359,76.37905330742312,-41.56725033911599,10
1767339043.969554,1,left_wrist,-0.9638,-0.1576,-0.1869,32.62,-26.04,-1.54,0.4277846373355967,0.4424157560450239,0.6225091313727628,-0.48347800800066437,-126.69427826298211,73.82107939937042,150.50969681186163,10
1767339043.969554,2,right_wrist,-0.9477,0.12,-0.1625,-17.78,-7.0,4.06,0.029105284358050695,-0.7618272053754018,0.12857824125730444,0.6342237991809522,148.50610933220094,76.8612612746943,-44.382348018384754,10
1767339044.026637,1,left_wrist,-0.9682,-0.122,-0.2508,-12.6,-5.25,-8.4,0.43032174256964345,0.4394742721719011,0.6260330052624808,-0.47934146314796283,-127.4694499417306,73.76185004619771,150.49715835874332,10
1767339044.026637,2,right_wrist,-0.956,0.1684,-0.2772,11.76,-4.34,2.45,0.030865094611562973,-0.7622129271078207,0.13421704723332967,0.6325065880418271,148.2018899565375,76.53064463071176,-45.29861312649038,10
1767339044.10115,1,left_wrist,-0.9682,-0.122,-0.2508,-12.6,-5.25,-8.4,0.4328941197125934,0.4365232464076175,0.6294925904209794,-0.4751728265264109,-128.24315339041976,73.71020188185402,150.4872059683405,10
1767339044.10115,2,right_wrist,-0.9116,0.1005,-0.2938,5.11,-19.46,12.18,0.02907225137531534,-0.7516551250563132,0.13682159279781192,0.6445535112935297,141.60323306204242,77.66609015456305,-51.94869998080366,10
1767339044.170885,1,left_wrist,-0.7891,-0.0473,-0.4368,-29.61,-52.15,-37.66,0.44490652453400753,0.4048180410474916,0.6312271906129803,-0.48962513405705194,-115.79439350069354,73.3538932028752,164.74135513511857,10
1767339044.170885,2,right_wrist,-0.8706,0.0395,-0.3255,-0.07,-47.11,26.81,0.02542617524409728,-0.7391730877638373,0.14434574190185082,0.6573742942441051,131.45330571056448,78.28426819652918,-62.409049581436875,10
1767339044.221916,1,left_wrist,-0.7891,-0.0473,-0.4368,-29.61,-52.15,-37.66,0.455334666248712,0.3798244235929625,0.6352898452746103,-0.49478334798718693,-108.7014793421212,72.63073010387629,173.8439680762327,10
1767339044.221916,2,right_wrist,-0.8647,0.1176,-0.2635,27.51,-64.68,45.43,0.025540699943607165,-0.7195561539883176,0.16619510037197258,0.6737698438756969,115.8665557981229,77.99238341196514,-79.80398514707437,10
1767339044.272726,1,left_wrist,-0.6642,0.0156,-0.3797,-40.32,-99.61,-80.85,0.4708632784493744,0.3301557276992541,0.637943348950171,-0.5121652584913615,-95.32848693233886,69.87709295453709,-169.77377834965233,10
1767339044.272726,2,right_wrist,-0.7662,0.0908,-0.2323,31.92,-86.03,75.53,0.020401036235069215,-0.6902931479601103,0.19773912935483673,0.6956855642615042,97.20276054010449,75.58594401397704,-100.68613535889726,10
1767339044.3247502,1,left_wrist,-0.5836,-0.2372,-0.1918,-52.08,-121.38,-136.85,0.4778690498482173,0.2545375199714647,0.6446959912266214,-0.5396470152055529,-85.05492781313156,62.98420635526227,-155.61168470322804,10
1767339044.3247502,2,right_wrist,-0.6608,0.1869,-0.2006,63.56,-104.37,108.99,0.015098410260486568,-0.6496477525692211,0.24913203825459568,0.7180968340721721,84.63120181536566,70.1429443427708,-117.2370021708929,10
1767339044.4034681,1,left_wrist,-0.4538,-0.1552,-0.0747,-69.02,-179.41,-184.8,0.4890645408957763,0.14777299051045406,0.641594888690927,-0.5721319925678668,-77.28490040738937,52.811753812477136,-142.25573394049727,10
1767339044.4034681,2,right_wrist,-0.3011,0.3714,0.06,29.89,-130.97,217.14,-0.05093742599815806,-0.5128662557473965,0.3719923222382349,0.7720073150846005,72.53239758901834,48.93600478379872,-135.5263652216972,10
1767339044.473665,1,left_wrist,-0.0273,-0.795,0.3357,-143.29,-223.79,-248.15,0.4553774523290365,-0.1257975673212749,0.6150619768235626,-0.631272613561096,-76.63321918514652,23.662325034450223,-127.18776734845076,10
1767339044.473665,2,right_wrist,-0.1508,0.5783,0.1401,67.34,-134.19,255.5,-0.1022971905735809,-0.421306680178933,0.45359171169762336,0.7786465983465019,73.58378330355094,34.28402596308781,-139.05172213697324,10
1767339044.5268211,1,left_wrist,0.4841,-0.7808,0.2904,-232.12,-146.23,-318.99,0.3853908873570161,-0.2961257096134862,0.6203194413625049,-0.6156193781191351,-86.8250605376616,6.518814368471473,-122.07304354578424,10
1767339044.5268211,2,right_wrist,0.1113,1.0116,0.3216,76.65,-134.68,267.26,-0.15377197675612894,-0.3197485269682274,0.5316724225985406,0.7690510345317534,75.89638692149246,19.16521432598626,-142.38533340573133,10
1767339044.597557,1,left_wrist,0.4841,-0.7808,0.2904,-232.12,-146.23,-318.99,0.30231464980726575,-0.45534992416357417,0.6042575980663718,-0.5797715535063761,-98.44718128969606,-9.360514046258974,-114.07654565198155,10
1767339044.597557,2,right_wrist,0.6305,1.707,0.0312,179.2,-96.46,292.88,-0.2661306895972467,-0.13796266544000355,0.7082243802990458,0.6391861905182371,92.41208309682608,-11.57162791816544,-146.8560833699429,10
1767339046.3198562,1,left_wrist,0.1884,-0.9257,0.6364,26.81,148.75,181.72,0.4830686185590874,-0.050960333090551146,0.594094717357518,-0.6411701966113255,-70.39364980495931,30.572520271626573,-127.83294342842896,11
1767339046.3198562,2,right_wrist,0.2206,0.8047,0.6466,-59.71,150.5,-166.95,-0.17499501544263715,-0.3308983530032049,0.3442581302840941,0.861028085653016,52.488583691532355,26.701259515354124,-143.67625355872107,11
1767339046.374345,1,left_wrist,0.0146,-0.6559,0.5402,-15.12,166.18,154.7,0.4803965737594385,0.030662177007742035,0.6317408113295576,-0.6076039089094232,-74.84681834889565,40.108204743884485,-134.5506557762064,11
1767339046.374345,2,right_wrist,0.0244,0.7047,0.4773,-15.19,156.87,-145.81,-0.14764289345452233,-0.4054936923200075,0.3064897534450947,0.8484341297556508,52.934546339406396,36.69586686673617,-141.50493462343695,11
1767339046.426775,1,left_wrist,-0.2562,-0.5427,0.3841,-0.07,143.64,138.39,0.47602859169990586,0.10521014639280811,0.6555419931172838,-0.5767081586383422,-79.76890151741095,48.19901691480897,-141.91775165349577,11
1767339046.426775,2,right_wrist,-0.1474,0.5866,0.3792,-13.23,137.2,-120.96,-0.12556057603726692,-0.4671721647740177,0.2730519373118474,0.8315211060074149,54.05061471301338,45.101467211826616,-138.90791740157445,11
1767339046.496617,1,left_wrist,-0.406,-0.5046,0.2357,-15.68,122.99,122.36,0.47128955201799416,0.16577633340424036,0.6757372936896056,-0.5420179659003678,-86.84199204030348,54.75017866865296,-150.19686058710698,11
1767339046.496617,2,right_wrist,-0.466,0.4148,0.2674,-10.22,96.04,-86.8,-0.09137374933468094,-0.5606319980988962,0.21889619563619578,0.7933643905395316,58.50694001517144,58.16473488525932,-132.2538104195981,11
1767339046.552709,1,left_wrist,-0.5104,-0.2913,0.1249,-19.32,97.51,105.91,0.4703701086333255,0.2164675947966578,0.6888984149498102,-0.507260007478278,-94.94818579684188,60.19074342458206,-158.90098622165564,11
1767339046.552709,2,right_wrist,-0.6266,0.3753,0.1981,-3.08,82.11,-70.35,-0.07827120168664746,-0.5946113220370262,0.20103200307310462,0.7745302630835824,62.33514006340561,62.82539634107785,-127.91203595123939,11
1767339046.6288278,1,left_wrist,-0.7896,-0.1635,0.0415,-5.32,65.03,64.19,0.46379804205524344,0.29191803708093855,0.7025734371850795,-0.4539447115833353,-113.2424151852969,66.45314303260938,-178.43802697802926,11
1767339046.6288278,2,right_wrist,-0.7759,0.3553,0.0059,-3.5,66.29,-54.46,-0.0663710148975895,-0.6238098139013096,0.18432841309383455,0.7566235791912553,66.97060313624293,66.85459589559355,-122.7974647123748,11
1767339046.698082,1,left_wrist,-0.874,-0.265,0.0747,35.14,60.06,49.0,0.4526343414020101,0.32575591170098583,0.698846667756201,-0.4479046482695644,-119.71698329970012,67.58694422154711,172.4900488715506,11
1767339046.698082,2,right_wrist,-0.9433,0.3767,0.245,-20.3,61.67,-39.55,-0.06150979867010844,-0.6673557209525219,0.1485447673889505,0.7271776526137647,77.67473823762208,72.23170693057976,-109.46783258118612,11
1767339046.7510898,1,left_wrist,-0.9545,-0.284,0.143,2.17,83.51,41.3,0.4365951976134059,0.35439287991488366,0.7065646677297805,-0.4296006173208446,-129.99047432084444,67.14050745102496,161.12388060141043,11
1767339046.7510898,2,right_wrist,-1.0292,0.5412,0.4163,-37.59,83.3,-48.51,-0.06384199151625883,-0.6929584530169747,0.12088584741046883,0.7078978700401719,87.70824114431947,74.93959807855018,-96.95543123874418,11
1767339046.8035378,1,left_wrist,-0.6539,0.0747,-0.4782,-187.11,133.28,10.92,0.4239449684432447,0.3478827925231492,0.762237656001273,-0.3438633190260875,-150.43128210214246,62.31828180136312,149.06980998483235,11
1767339046.8035378,2,right_wrist,-0.5651,-0.1425,-0.6246,113.26,107.24,-32.62,-0.023588513652023302,-0.7321026709352377,0.14177972543232673,0.6658586717085792,116.66289006278448,75.52689830233368,-73.00231503194995,11
1767339046.872632,1,left_wrist,-1.1834,-0.2845,0.2211,-18.83,10.71,2.38,0.4147426053168136,0.36817536991950256,0.7171329937947243,-0.42208498851614606,-134.9693814145028,64.91148418054904,155.18616155167942,11
1767339046.872632,2,right_wrist,-0.6661,-0.0205,-0.3958,-95.41,-31.01,18.41,-0.05577229174264594,-0.7230850810579729,0.11938187077718908,0.6780747642811202,107.01109283772436,75.30617388142737,-78.18754278386182,11
1767339046.948454,1,left_wrist,-0.9306,-0.0659,-0.3514,-55.72,36.12,-0.91,0.41402144843008787,0.3671660497340938,0.7331233052302084,-0.39535496897199557,-141.33922428445578,63.815709590151656,151.4358400468864,11
1767339046.948454,2,right_wrist,-0.9531,0.245,-0.2211,26.6,7.91,-0.63,-0.04068505091951074,-0.7281592449427898,0.1371185200083227,0.6703188436160439,111.96461311847689,74.80522013466916,-75.924675048832,11
1767339047.022707,1,left_wrist,-1.0024,-0.2943,-0.1205,-26.32,2.31,-3.36,0.423911109751418,0.3545805857784865,0.7404582988320704,-0.38248331585707523,-142.62811560237574,64.02945845797315,152.7029942310762,11
1767339047.022707,2,right_wrist,-0.9321,0.2928,-0.0947,0.07,-11.69,9.31,-0.046382103574240566,-0.723443184652639,0.14357700142847932,0.6736945180929429,108.65517273817319,74.03723214426121,-79.303813354352,11
1767339047.079679,1,left_wrist,-0.9423,-0.2025,-0.1342,12.53,-9.45,-6.93,0.4264813635759777,0.3528416905260055,0.7356726935325436,-0.3903870847501201,-140.4764085713321,64.5540579118796,154.32357401686497,11
1767339047.079679,2,right_wrist,-0.9496,0.2274,-0.0976,21.21,-3.22,2.66,-0.036958203792122175,-0.7244394173134976,0.148016256888952,0.672244605416454,110.30397524919668,74.37819415196567,-78.7887006184309,11
1767339047.151003,1,left_wrist,-0.9877,-0.2596,-0.1279,9.1,-9.31,-7.56,0.4291141473708141,0.34996185691750276,0.7316126098492051,-0.3976565557597504,-138.25459387004847,64.98808695886267,156.1746333125033,11
1767339047.151003,2,right_wrist,-0.9267,0.264,-0.2484,18.62,-19.74,14.42,-0.03993768923282185,-0.7123581287899183,0.16317867132353422,0.6814129427525972,103.71561957257255,73.29275277337064,-86.39058987647199,11
1767339047.218706,1,left_wrist,-0.9233,-0.3148,-0.1425,0.91,-22.54,-15.26,0.440204433745641,0.33526008755779363,0.7219657522503072,-0.41543493206405746,-131.2562286077848,66.08990428687353,163.0235070056376,11
1767339047.218706,2,right_wrist,-0.9057,0.2469,-0.1415,17.29,-33.11,21.56,-0.03790685979721927,-0.7037122368874054,0.17556809815139518,0.6874067213424235,100.01928131196215,72.58510823438364,-91.28357995268205,11
1767339047.273601,1,left_wrist,-0.814,-0.225,-0.1405,-9.73,-65.87,-39.76,0.4577032775698769,0.3086783138175778,0.7142022949077479,-0.4302795489318955,-122.40134352346873,66.8416396987805,173.13079837785526,11
1767339047.273601,2,right_wrist,-0.8784,0.2616,-0.1288,13.23,-39.9,32.9,-0.04019510503600576,-0.6918134042202385,0.19053004498579107,0.6953250097832391,95.31347882198176,71.21855480330532,-97.05741219544312,11
1767339047.327092,1,left_wrist,-0.814,-0.225,-0.1405,-9.73,-65.87,-39.76,0.47510552450444926,0.28331106309252146,0.7055519393277754,-0.44295151317672743,-113.69085059920802,67.13300066704957,-176.88502463730885,11
1767339047.327092,2,right_wrist,-0.7642,0.162,-0.1249,21.63,-62.3,56.91,-0.043581088003984345,-0.6708283533621227,0.2138671294845505,0.7087671409002327,88.65349235982174,68.79322970326692,-105.41957555706757,11
1767339047.395613,1,left_wrist,-0.7637,-0.2303,-0.0102,-4.55,-90.65,-58.87,0.49430761214322144,0.24654322311945626,0.6917164964405274,-0.46519319885739796,-101.10932225913028,65.95446492322804,-163.04549908731371,11
1767339047.395613,2,right_wrist,-0.6749,0.3504,0.0551,38.08,-107.38,103.18,-0.06927624894212227,-0.5902604297482305,0.2904200354676431,0.7499664188514819,75.42831697255666,57.68399990203953,-123.31098230718953,11
1767339047.474623,1,left_wrist,-0.733,-0.3289,0.0625,-22.82,-99.61,-107.31,0.521666432585304,0.13488626968655323,0.6703588562089455,-0.5101850951037312,-83.19305079478626,56.829000196925044,-140.0336345975607,11
1767339047.474623,2,right_wrist,-0.6349,0.4455,0.0346,26.46,-107.45,126.98,-0.09136633784349592,-0.5399434116421009,0.3365867895175656,0.7660434959293206,72.78560285342208,49.97241391474336,-128.48319598147674,11
1767339047.549433,1,left_wrist,-0.53,-0.3982,0.0805,-69.09,-116.97,-158.83,0.5220147030882982,0.04354647176111266,0.6640519621106107,-0.5335160224152996,-80.2218182160547,47.71057135088043,-132.1108692272382,11
1767339047.549433,2,right_wrist,-0.3133,0.5807,0.2181,-16.1,-119.91,193.69,-0.16355172083898595,-0.3949860333353377,0.4483589521933193,0.7849911579557636,71.0580968866244,28.25921463816083,-136.081409208677,11
1767339047.6195881,1,left_wrist,-0.0595,-0.9984,0.4133,24.08,-141.89,-223.02,0.49670279487065727,-0.15267263748196896,0.5987745239133734,-0.609464083309501,-74.99300874136972,24.1250163480072,-120.2632679662851,11
1767339047.6195881,2,right_wrist,-0.1371,0.9843,0.1986,151.48,-121.8,208.11,-0.18609830420626905,-0.3183295825424469,0.5434734982636685,0.7541022840006206,77.58019859806102,16.130564209577823,-139.27988063218532,11
1767339047.680429,1,left_wrist,0.0961,-0.9614,0.466,-60.9,-92.82,-280.21,0.43721573574762884,-0.26410859683994026,0.5687373039303351,-0.6446913436738166,-77.51151598777844,9.020320317166954,-118.95783733169992,11
1767339047.680429,2,right_wrist,0.2616,0.8589,0.3045,-97.58,-97.51,232.75,-0.25417176039691963,-0.21791182826264952,0.5483705007553585,0.7662903791783359,72.29764681705957,3.16473041896097,-140.98737631354462,11
1767339047.7463748,1,left_wrist,0.386,-1.5836,0.5339,-311.78,-149.24,-306.32,0.3431141812289794,-0.4355722359505466,0.5783678094546338,-0.5983645735630219,-92.79968163338238,-7.144352193833597,-112.83709149114254,11
1767339047.7463748,2,right_wrist,0.7096,0.3357,0.2113,107.45,-40.95,279.72,-0.35246191116954595,-0.06920228556025651,0.7029830948968495,0.6138374484643266,89.87108247734977,-24.242004957127985,-144.46074038354564,11
1767339049.376649,1,left_wrist,0.2108,-0.9604,0.5388,22.05,154.07,213.15,0.5780915331292362,-0.1641646857095183,0.519106615502972,-0.6077733599222935,-63.61643843215617,23.617720884484246,-107.6444345808131,12
1767339049.376649,2,right_wrist,0.2245,0.8501,0.5866,-41.65,159.04,-168.84,-0.2123102072158695,-0.28448688273521044,0.3746517594517351,0.8565206644344762,53.835588589079215,19.16277409713961,-142.3596993105318,12
1767339049.4516401,1,left_wrist,-0.0361,-0.9394,0.4963,43.4,109.06,194.32,0.6040461793425974,-0.08310185146904464,0.5444988403993929,-0.5759716210958176,-61.61194215400643,34.19950775837366,-108.0627364428753,12
1767339049.4516401,2,right_wrist,-0.0786,0.5666,0.4826,-30.59,136.5,-123.48,-0.17038145772147587,-0.4173393158367616,0.2823182657974654,0.8468142955328047,51.56822310648412,37.63392703933278,-138.5521028410562,12
1767339049.524531,1,left_wrist,-0.3597,-0.4782,0.3372,11.06,149.8,128.59,0.5915582352981589,0.05801808911047822,0.6135966555442041,-0.5197998652287861,-67.11671599995012,51.838466889775944,-118.34799122920987,12
1767339049.524531,2,right_wrist,-0.2625,0.609,0.4382,-14.07,127.19,-110.53,-0.14974197259292282,-0.4726537507807898,0.24940095180848537,0.8318503103045963,52.38401750341131,45.370363385854716,-136.3533551061529,12
1767339049.5751739,1,left_wrist,-0.5173,-0.4612,0.3011,-4.06,109.97,112.77,0.5872811485177222,0.11040875683593528,0.6363687684440442,-0.48779662725223827,-71.35836397263469,58.77838817632158,-123.46358110287521,12
1767339049.5751739,2,right_wrist,-0.4002,0.4363,0.3479,-16.45,102.13,-98.21,-0.13049456043342528,-0.5153217628288653,0.21785296734458987,0.8185076267643416,52.71237282569468,51.88118284556564,-134.78203341282486,12
1767339049.647691,1,left_wrist,-0.7154,-0.3021,0.1718,21.91,80.85,77.84,0.5821714426168761,0.15761989131527898,0.6458811920633931,-0.46804900064193633,-74.59988394390851,64.10223746958215,-128.5957962627122,12
1767339049.647691,2,right_wrist,-0.7247,0.4085,0.2987,-40.81,74.06,-69.02,-0.10890691931250335,-0.5758446625737337,0.15721388451675802,0.7948748341885999,52.5623684518833,61.78812601922889,-131.47440234177483,12
1767339049.698482,1,left_wrist,-0.7154,-0.3021,0.1718,21.91,80.85,77.84,0.5753088232335378,0.20184691308862884,0.6531780428105518,-0.4490390027340725,-79.56934443579377,68.8807378402205,-135.40107537584942,12
1767339049.698482,2,right_wrist,-0.8096,0.3762,0.3304,-26.6,80.5,-52.08,-0.10417937371841879,-0.6027231543842085,0.13142536325853385,0.7801274454556447,54.149935323828466,65.92582410260212,-128.1075439051741,12
1767339049.772676,1,left_wrist,-0.8525,-0.0947,-0.4265,-16.59,49.35,14.42,0.5485262628931485,0.25955663090036074,0.6739237858997177,-0.4213977041592916,-98.64961805402132,73.35200555134881,-156.888784440699,12
1767339049.772676,2,right_wrist,-0.9174,0.4514,0.2015,-21.35,100.87,-43.68,-0.10311590723591038,-0.6384731052061048,0.11165847217183998,0.7544876335604446,61.97481514414903,70.12096220378186,-118.72792796628876,12
1767339049.823267,1,left_wrist,-0.8525,-0.0947,-0.4265,-16.59,49.35,14.42,0.5368306743250768,0.2706764458826876,0.6889526673140193,-0.4048349181442952,-109.73196725115662,73.50820627642963,-167.44900683436538,12
1767339049.823267,2,right_wrist,-0.8306,0.2791,-0.0947,1.26,94.99,-33.67,-0.0960322540215212,-0.6733697804841194,0.09900516249166955,0.7263256313240727,74.93117190293384,73.56798953020426,-105.31221655235576,12
1767339049.8797388,1,left_wrist,-0.8638,-0.039,-0.2157,31.99,1.19,-6.09,0.5317274236740461,0.2795289898781922,0.6849521648009993,-0.41227420810070536,-109.47366981712284,73.51637885979406,-168.71873215306903,12
1767339049.8797388,2,right_wrist,-0.8072,0.161,-0.2821,38.22,63.84,-14.91,-0.08197380612408134,-0.6981743179617765,0.10384551524308316,0.7035972042383614,89.22228252798233,74.89321436221789,-92.5655337092904,12
1767339049.949117,1,left_wrist,-0.9711,-0.3104,0.0195,9.73,5.6,-8.82,0.528711026829366,0.2786147064947752,0.6837529835723107,-0.41871273313553653,-107.99399640884262,73.00583665718398,-167.80320888049636,12
1767339049.949117,2,right_wrist,-0.8872,0.2533,-0.0688,7.84,3.5,-3.5,-0.06899728809508365,-0.712603145475719,0.11134139425997346,0.6892308939810231,99.11464828097354,75.2243129130129,-84.3456772977179,12
1767339050.003551,1,left_wrist,-0.9677,-0.2796,-0.101,6.79,4.76,-2.52,0.5242411663176739,0.28155080623416895,0.6859503671118053,-0.4187749239220919,-109.62500286914718,72.74994811188898,-169.74007686453882,12
1767339050.003551,2,right_wrist,-0.9326,0.3538,-0.063,7.63,-0.84,-1.89,-0.0694104287541329,-0.7128503122852149,0.1164874951521859,0.6880823265628966,99.51371830751158,74.75897384505193,-84.335578264653,12
1767339050.0738308,1,left_wrist,-0.9662,-0.3357,-0.0366,-8.19,1.26,-9.87,0.5263504807601835,0.26817717200585584,0.6869886516406918,-0.42318172022828404,-106.34808406503588,71.83615774697392,-165.69694035047593,12
1767339050.0738308,2,right_wrist,-0.9506,0.2586,-0.0049,2.73,-6.09,4.27,-0.06999001167970302,-0.7084397040436919,0.1186269954367409,0.6922009967872138,96.90944937914686,74.6139278644426,-87.06812264021868,12
1767339050.151326,1,left_wrist,-0.9292,-0.264,-0.0854,-22.47,-3.15,-10.85,0.5301661340242524,0.2623295009502992,0.6904589484148155,-0.4163814883239317,-107.0617521153656,71.91078578617105,-165.21298618220183,12
1767339050.151326,2,right_wrist,-0.9511,0.224,-0.0498,5.04,-12.11,2.94,-0.06435347183833648,-0.7089649810939385,0.1269579926131027,0.6907307394031883,98.00549250004521,74.37974435364649,-87.11645748994782,12
1767339050.221031,1,left_wrist,-0.9672,-0.2704,-0.0615,-13.79,-4.55,-4.2,0.540471932832,0.2541112136639319,0.6892902498816915,-0.4101177054567637,-105.27441799404819,72.46157745408486,-162.02386122790028,12
1767339050.221031,2,right_wrist,-0.9975,0.2801,0.0146,2.59,-7.91,0.77,-0.06375254353848225,-0.7041672528273258,0.12794192215011194,0.6954961953846517,95.21571480366175,74.40329802183246,-90.03584102847901,12
1767339050.279547,1,left_wrist,-0.9545,-0.3972,-0.0244,-2.38,-11.2,-7.07,0.542384708938272,0.24645663263914439,0.6873459426919951,-0.41549189017714,-102.32270497934331,71.88112293284777,-158.9087463944999,12
1767339050.279547,2,right_wrist,-0.9672,0.2484,-0.0434,12.67,-6.37,4.97,-0.05871420504578855,-0.7046364662257731,0.1317881747239131,0.6947459748668109,95.96120817178905,74.4958343933303,-90.01718715889695,12
1767339050.352501,1,left_wrist,-0.9545,-0.3972,-0.0244,-2.38,-11.2,-7.07,0.5440835895947101,0.23867859764082983,0.6854813018993006,-0.4208574097106785,-99.60773874684828,71.22994642424456,-156.02576826389395,12
1767339050.352501,2,right_wrist,-0.9004,0.2957,-0.0698,5.53,-18.41,16.31,-0.0643752156306595,-0.69509798314556,0.13942225634137068,0.7023219061628093,91.04397024671951,73.41842693896437,-95.10414898465005,12
1767339050.4292,1,left_wrist,-0.8706,-0.2728,-0.1132,-9.38,-33.74,-13.86,0.554700144638861,0.21985726999621327,0.6772379264945307,-0.43048730676388985,-92.35973225530454,70.15585149260987,-148.01920388495031,12
1767339050.4292,2,right_wrist,-0.8433,0.2011,-0.1762,12.6,-36.4,28.14,-0.06599199459682566,-0.6851725656980636,0.15257547678123465,0.7091574830380374,87.29092007712262,72.11092345366912,-99.81572791370783,12
1767339050.502066,1,left_wrist,-0.8491,-0.2679,-0.143,-17.29,-53.2,-23.38,0.5659002343553993,0.20022632526607728,0.6718764809622676,-0.4338759474281872,-87.27190551478715,69.09556999826677,-141.523244926666,12
1767339050.502066,2,right_wrist,-0.7305,0.2884,-0.1576,39.34,-82.6,57.12,-0.07535228536172577,-0.6375831997504544,0.20014691921048944,0.7401019573121579,74.76464944665082,66.00628837254915,-115.58712809333363,12
1767339050.5804641,1,left_wrist,-0.6344,-0.4787,0.1903,-45.57,-121.73,-108.08,0.5983365849825095,0.09630820268847808,0.6452015749451024,-0.46522359017438303,-72.93774347739465,59.508574955097785,-121.54178375750296,12
1767339050.5804641,2,right_wrist,-0.591,0.2079,-0.0942,29.75,-115.22,90.51,-0.08514924780758466,-0.5952756162373647,0.2382724467637486,0.7626419785353051,69.07272587414597,60.15638677825307,-123.79463573419591,12
1767339050.646164,1,left_wrist,-0.4538,-0.4275,0.2616,-57.19,-131.6,-160.58,0.6028042368408766,0.00694975695461695,0.6243647478610043,-0.4967367658563485,-70.2050440485718,49.4328088069658,-114.8360422238405,12
1767339050.646164,2,right_wrist,-0.3167,0.5056,0.2747,27.09,-156.66,174.72,-0.14640198421659792,-0.4539224604690825,0.34783475623901017,0.8071752233878873,63.5200256098492,39.119694963170126,-134.63015032685084,12
1767339050.722708,1,left_wrist,-0.0527,-0.8599,0.4246,-169.05,-160.72,-244.16,0.5552974580670305,-0.24022944833758658,0.5859368479019428,-0.5390849241876916,-77.57692111553746,23.062208919744915,-106.9260217481603,12
1767339050.722708,2,right_wrist,-0.1752,0.7208,0.2933,92.33,-159.25,208.25,-0.1786717173223391,-0.36630456646477644,0.4312496351152421,0.8049354845135781,66.44730197848531,25.82340649115479,-137.89164250959945,12
1767339050.779555,1,left_wrist,-0.0527,-0.8599,0.4246,-169.05,-160.72,-244.16,0.5152548827102467,-0.37900253343237705,0.5522521055898336,-0.5346841098879649,-84.021440415815,9.42799131622229,-100.61609550561576,12
1767339050.779555,2,right_wrist,0.0083,0.8613,0.6242,71.82,-132.86,240.45,-0.22703441606360306,-0.27418539063963565,0.5016125223100536,0.7884558471748404,69.27389555065545,11.806057320031845,-139.70188487967127,12
1767339050.845631,1,left_wrist,0.0454,-0.9414,0.3689,-72.31,-38.36,-298.62,0.4388408818975612,-0.47217140752334624,0.5035705116297655,-0.5752300253896079,-87.29553843903878,-5.810561607894354,-99.77724897347414,12
1767339050.845631,2,right_wrist,0.5012,0.9384,0.5197,-1.68,-56.28,240.52,-0.322623603926341,-0.12216448082668366,0.6349116351241368,0.6912865291598853,80.27643479811071,-13.932205703258306,-141.72767139668238,12
1767339052.552012,1,left_wrist,0.3348,-1.0268,0.6583,82.88,127.05,217.49,0.6428930166284568,-0.28227774225276114,0.3598564886383321,-0.6144193624747976,-54.15557613446009,6.651190498808949,-90.8085080997958,13
1767339052.552012,2,right_wrist,0.2777,0.7749,0.6588,-65.38,158.76,-160.65,-0.22497318104086003,-0.2815489330928049,0.3319958174621919,0.8717201633977905,48.64395081347124,19.967279874060445,-141.95970377361556,13
1767339052.626434,1,left_wrist,0.0986,-0.8174,0.6622,26.39,167.72,179.27,0.6768905047726178,-0.12183186377313593,0.46852057620357984,-0.5544950055610061,-52.183066121782645,29.944702026587215,-93.56979046318222,13
1767339052.626434,2,right_wrist,0.1054,0.7144,0.6564,-42.42,161.49,-118.16,-0.2099021473843135,-0.3508074692167154,0.2858993903227981,0.8666814562907582,47.435197956386254,29.212813459898104,-139.70848762286977,13
1767339052.676985,1,left_wrist,-0.0917,-0.63,0.5017,19.18,160.44,161.14,0.6804066977667881,-0.04723716825643516,0.5151473833090721,-0.5190747046803803,-52.194695007630706,40.69106900801878,-95.2690417629384,13
1767339052.676985,2,right_wrist,-0.0825,0.6481,0.5378,-8.75,153.72,-93.31,-0.19672077582579045,-0.41520962313500936,0.2558408337976936,0.8505570956592412,48.78483547563482,37.27639081887379,-136.56349574747344,13
1767339052.746565,1,left_wrist,-0.2674,-0.5207,0.3772,2.17,138.74,135.52,0.6771162602499029,0.011816878082103566,0.5551646526392137,-0.48287279894145974,-53.61276483443054,49.750146762954195,-97.35799115386361,13
1767339052.746565,2,right_wrist,-0.4138,0.5358,0.4368,19.18,123.06,-81.34,-0.1655240501433234,-0.5200411373271631,0.20930291698492673,0.8113884971166538,54.025883967785816,50.77072548867202,-129.74065516229786,13
1767339052.802999,1,left_wrist,-0.3865,-0.3318,0.2733,-15.12,120.61,112.07,0.670425328466447,0.05749424568342513,0.5897487501219998,-0.4465654514105291,-56.4843226572728,57.36412488787674,-100.0863628686805,13
1767339052.802999,2,right_wrist,-0.5392,0.4817,0.2533,12.95,106.96,-79.31,-0.14648639884548817,-0.5647492336828139,0.1919088625320035,0.7891584292710987,58.370877036915914,56.629289611933395,-125.47213202101663,13
1767339052.870713,1,left_wrist,-0.7149,-0.2259,0.0425,7.21,61.88,64.68,0.6517134860528961,0.125509488130573,0.6391549372556243,-0.3885844395594631,-65.55178231774664,68.53383754991995,-108.98204922868663,13
1767339052.870713,2,right_wrist,-0.63,0.3826,0.1449,16.8,84.91,-66.92,-0.12665917424544165,-0.6021927537339086,0.177466003019026,0.7680020564440476,63.52429937499013,61.64419121644718,-120.72281029462862,13
1767339052.922294,1,left_wrist,-0.9804,-0.3445,0.1376,2.03,62.09,38.08,0.6387672110274046,0.14831755426878687,0.656379455135252,-0.37302059472413374,-72.55531601663017,71.65860055075362,-116.40805514424306,13
1767339052.922294,2,right_wrist,-0.7481,0.3582,0.121,7.91,64.89,-52.43,-0.11151877195412059,-0.6305931747452095,0.16333721164963141,0.7504910171062185,68.58091498948978,65.51622895237391,-115.7165578028105,13
1767339052.972669,1,left_wrist,-0.9062,-0.1752,-0.244,-81.9,83.02,14.7,0.6200431676759126,0.144495879572015,0.6932622201197126,-0.3377201580596233,-90.59125735952829,73.19679902962311,-130.9154439258027,13
1767339052.972669,2,right_wrist,-0.873,0.4094,0.2347,22.75,63.49,-45.22,-0.0960975471453466,-0.652737108277951,0.15554411088538184,0.7351908313346015,74.31047727741442,68.4157835203242,-110.59461411834508,13
1767339053.049521,1,left_wrist,-0.9062,-0.1752,-0.244,-81.9,83.02,14.7,0.5996427946849161,0.1403334009255233,0.7279888400007586,-0.301276126172469,-110.17245292966999,73.26061386599635,-146.96975346995947,13
1767339053.049521,2,right_wrist,-0.7979,0.0849,-0.2474,59.78,51.31,-18.27,-0.05449925462981589,-0.7081752375117537,0.16196185238014615,0.6850445405910169,100.51002894379948,72.29021793056641,-88.31124432162363,13
1767339053.1030662,1,left_wrist,-0.8111,-0.0488,-0.3035,61.04,-0.56,-4.55,0.5939387709812879,0.15685325082253976,0.721771547399904,-0.31887243122538395,-108.39472613356118,73.21766546299486,-148.15199812835402,13
1767339053.1030662,2,right_wrist,-0.8115,0.1498,-0.325,33.67,8.05,2.03,-0.04410475240127888,-0.7138324348621531,0.17207815333494483,0.6774120864726484,104.81838072795294,72.16425790442553,-85.69272621756365,13
1767339053.1803,1,left_wrist,-0.9389,-0.2621,-0.0512,14.7,-11.83,2.66,0.6019929944007125,0.15632546965628916,0.7145387752767008,-0.3203140971847426,-104.5595259565306,73.83031762463213,-144.36427556627007,13
1767339053.1803,2,right_wrist,-0.9272,0.3709,0.0454,-34.79,-19.18,3.43,-0.05614428016723422,-0.7047005206198352,0.16398669076663452,0.6880068032323842,98.76453255980691,72.03844971443738,-90.09103900726606,13
1767339053.247091,1,left_wrist,-0.9745,-0.2723,-0.0195,7.42,-7.91,-3.01,0.6058073875195883,0.1557661834263178,0.7092498599768513,-0.3251137361759836,-101.33175140487947,73.86736873457683,-141.50387703729098,13
1767339053.247091,2,right_wrist,-0.9467,0.367,0.0039,5.04,-13.23,2.94,-0.051250342169074585,-0.6953572531278004,0.17905908088634043,0.6941106097029868,95.56563659085833,71.25461466870213,-94.94536922822023,13
1767339053.300029,1,left_wrist,-0.9745,-0.2723,-0.0195,7.42,-7.91,-3.01,0.6096856664513133,0.1554098268559912,0.7038656507647398,-0.3297033811078349,-98.11478159587327,73.89436741504191,-138.65459390726315,13
1767339053.300029,2,right_wrist,-0.954,0.388,-0.0434,13.58,-4.9,5.39,-0.05181515582522971,-0.6934780099672785,0.18833559086801974,0.6934934351030473,95.61786964941668,70.44619715752263,-95.62522998611291,13
1767339053.369185,1,left_wrist,-0.9467,-0.2996,0.002,-7.35,-16.24,-12.67,0.6145133129819538,0.14233046341516575,0.7007774407330627,-0.33320625130928494,-94.44284462898958,72.96479582175233,-134.19724542791013,13
