timestamp,node_id,node_name,ax,ay,az,gx,gy,gz,qw,qx,qy,qz,roll,pitch,yaw,rep_number
1767376633.8616698,1,left_wrist,0.9823,0.0312,-0.0405,2.45,-5.18,-2.38,0.5581513068787481,0.46073121517704074,-0.57265042154736,0.3850524129162989,137.64039796846743,-83.75324087016075,-64.05106391246302,1
1767376633.8616698,2,right_wrist,0.956,-0.1864,0.0171,-2.24,4.06,-0.21,0.13265751876769827,0.6429074484963343,-0.278108207106849,0.701233071469212,-85.14226089175575,-77.27596086656926,-128.84376167341344,1
1767376633.9311209,1,left_wrist,0.9833,0.0283,-0.0537,-17.43,-7.21,5.32,0.5589694239046862,0.4489206844124165,-0.5809605112329657,0.3853677291033616,145.2865769154485,-84.54876551780927,-72.8875050764488,1
1767376633.9311209,2,right_wrist,1.0194,-0.3162,0.0922,3.36,-4.55,0.0,0.12935497332195633,0.6418622164575608,-0.27862969114193387,0.7025992322620441,-84.74026293398741,-76.91317858934593,-129.021190019612,1
1767376634.0076401,1,left_wrist,0.9711,0.0493,-0.0678,-18.48,-5.25,8.61,0.5612524171416925,0.4409017615754246,-0.5857886609226567,0.3839961010566851,149.0463593233503,-84.97705711019996,-77.60254359563127,1
1767376634.0076401,2,right_wrist,0.9853,-0.2313,0.0307,15.33,1.82,2.73,0.12524834980336594,0.6391631773270454,-0.2730461841011299,0.7079753279377338,-81.50494003670534,-76.76036060888283,-131.436707405716,1
1767376634.058557,1,left_wrist,0.9545,0.0644,-0.0795,-19.11,-5.67,9.66,0.5627382698351092,0.43777627447990786,-0.5912226063925745,0.37700583928614567,150.33837216046808,-84.55974301693674,-79.88850721844096,1
1767376634.058557,2,right_wrist,1.0199,-0.2245,0.0439,-15.47,10.5,-2.73,0.1344218637093716,0.6347456658004049,-0.2734144341896696,0.7101219961958949,-78.39894222775273,-77.16129627317478,-135.3413161113768,1
1767376634.125719,1,left_wrist,0.9321,0.0908,-0.1386,-28.91,-10.71,0.49,0.5670386362003366,0.4305699197825369,-0.6048312281262447,0.3567294699317969,150.99847147332687,-83.2748337359126,-83.20955253151499,1
1767376634.125719,2,right_wrist,0.9179,-0.2918,0.0956,2.59,-5.25,-0.84,0.13112359106434857,0.6340496507935882,-0.27447799664669575,0.7109496983273392,-78.57076885012631,-76.7892136980041,-134.9919316147625,1
1767376634.177354,1,left_wrist,0.9013,0.0898,-0.1815,1.82,-2.73,-4.83,0.5651332580638689,0.43487934397799044,-0.6056158278943898,0.35317676284713545,150.30315450011298,-82.60653667862147,-82.41248348996878,1
1767376634.177354,2,right_wrist,0.8847,-0.1967,0.2206,-35.35,5.88,-1.4,0.14257485308103676,0.6280662813013427,-0.2836653419892035,0.7104499499017308,-77.3827379536789,-76.73180030465346,-137.9446139777006,1
1767376634.233542,1,left_wrist,0.9892,0.0005,-0.1474,4.06,-3.78,-0.91,0.5605117845934626,0.43543835907559053,-0.6084949010196489,0.35489988758873486,154.84730231541872,-82.39810919494505,-86.7238789750734,1
1767376634.233542,2,right_wrist,1.037,-0.307,0.0874,-23.87,-1.19,-11.62,0.1501231286653278,0.6258177568195933,-0.2900201049785913,0.7083103276087626,-77.73184796663512,-76.81127287438761,-138.78471159614224,1
1767376634.318584,1,left_wrist,0.9584,0.1039,-0.1342,-22.89,9.52,-1.12,0.5682779977373534,0.4316911788158356,-0.6086014046970603,0.3468532450777759,148.90765274706095,-82.3831264315041,-81.93575978365196,1
1767376634.318584,2,right_wrist,1.036,-0.2538,-0.0395,-12.81,-10.85,-13.86,0.15412726307590444,0.6386642788613902,-0.2953185175358658,0.693642342193446,-87.36621908317038,-77.69915759962285,-129.91681987276436,1
1767376634.3775659,1,left_wrist,1.0116,0.1088,-0.081,43.33,34.02,8.47,0.5738564320262399,0.4394910461436512,-0.5832613683999688,0.3705976145550161,132.76918815774323,-84.36362188279172,-62.778089524018256,1
1767376634.3775659,2,right_wrist,0.976,-0.3323,0.0356,22.82,-12.53,-2.94,0.14393934450709486,0.6422610231309679,-0.2911433259723303,0.6942750226037226,-88.57094768228711,-77.3237348206797,-127.49230546031065,1
1767376634.462076,1,left_wrist,1.0146,0.0688,-0.0669,23.31,19.95,4.76,0.5724006421199165,0.43779252870161844,-0.576694069354732,0.3848625171211525,130.23687783865662,-85.69606395041843,-59.03793054111003,1
1767376634.462076,2,right_wrist,0.9716,-0.285,0.0922,-29.75,12.25,-13.65,0.1670420327849905,0.6335307779641485,-0.298457481210025,0.6940164584251346,-84.60815781060849,-78.25731464997101,-134.03789856055343,1
1767376634.513886,1,left_wrist,0.9887,0.1181,-0.041,13.72,9.31,-7.21,0.575633794477806,0.4439042395345246,-0.5682808335114193,0.3855536992974194,118.76385581479924,-85.2331788989775,-46.87176400619426,1
1767376634.513886,2,right_wrist,0.9716,-0.285,0.0922,-29.75,12.25,-13.65,0.17938144097716707,0.6266721520158424,-0.30392475939386004,0.6947906541888516,-81.41298386138227,-78.47821539609986,-138.76556248747656,1
1767376634.574796,1,left_wrist,0.8994,0.1913,0.001,18.97,22.54,-17.29,0.5879682008401699,0.45843577490680243,-0.542994174107747,0.3863772275528398,94.78961872346662,-83.11315677978244,-21.271189722027653,1
1767376634.574796,2,right_wrist,0.9384,-0.202,0.1552,-88.06,-1.68,-20.58,0.2097939105895247,0.6202129965656977,-0.3241032012252504,0.6828465925272653,-83.56047970875309,-79.42340765753528,-140.9998752149571,1
1767376634.640418,1,left_wrist,1.0043,0.1908,-0.0054,36.96,19.53,-11.55,0.5891622013534685,0.4697764257685389,-0.5268825267442787,0.3931829260026888,88.59703842960442,-81.99448905813887,-13.17249030135634,1
1767376634.640418,2,right_wrist,0.9521,0.2152,0.1723,-54.6,-63.14,-5.32,0.22012165210543347,0.634726844849,-0.34147224192778475,0.6573165133291726,-102.94741413426057,-79.98548859070677,-124.03747734266666,1
1767376634.7167518,1,left_wrist,1.0795,0.0605,0.002,35.28,20.16,-4.2,0.585178246214476,0.47367824621772814,-0.5171067440816887,0.40718049369128967,82.9590475457823,-82.28339167239133,-5.700897471938575,1
1767376634.7167518,2,right_wrist,1.0292,0.0068,-0.3484,-24.99,20.37,-23.59,0.26617998199975484,0.6446494614432482,-0.35749672950566935,0.6211049649103525,-130.68877848423324,-82.35308270596832,-101.7730348858633,1
1767376634.774882,1,left_wrist,1.0087,0.1288,0.0264,26.46,4.55,-10.01,0.5869548035057579,0.4776886865404421,-0.5101449785939667,0.4087171126930529,80.85893769962736,-81.62783013325809,-2.9857271182797054,1
1767376634.774882,2,right_wrist,0.7178,-0.224,0.3704,68.81,114.1,-10.85,0.267232140231417,0.6200954977342747,-0.3214448747572378,0.6638838372858026,-75.7021745307614,-84.35098759735104,-153.55870836510397,1
1767376634.826873,1,left_wrist,0.9648,0.0654,0.0522,24.43,2.31,-3.43,0.5822256287439179,0.48119300407444826,-0.5056331794274926,0.4168953081117637,79.55430756712006,-81.89014307132636,-0.4711485105664188,1
1767376634.826873,2,right_wrist,0.8252,0.1288,-0.0698,16.52,22.26,4.48,0.2669470383895738,0.617593036279681,-0.3130799738218611,0.6702977325230801,-65.44133508664176,-84.32219377851098,-163.0493834711654,1
1767376634.879703,1,left_wrist,1.0067,0.0849,0.0459,18.55,6.23,-0.28,0.5788331318421849,0.48173548622399365,-0.501938818999798,0.42537107186007417,76.24903638251203,-82.26889619506157,3.7653480428939066,1
1767376634.879703,2,right_wrist,0.9745,0.1176,-0.0561,10.36,27.93,0.7,0.2700096798629381,0.6132094693733828,-0.30484944044042417,0.6768572509135796,-52.71353210146787,-84.11805016757407,-175.32237279662374,1
1767376634.934686,1,left_wrist,1.0634,0.124,0.0532,22.19,-0.91,2.24,0.5741448515773776,0.48417354014646435,-0.49819467681887086,0.4332848213572359,74.37238555620559,-82.58699786417633,6.72602659971655,1
1767376634.934686,2,right_wrist,0.9994,-0.1083,0.0259,88.41,26.53,8.75,0.24491906933751761,0.6154743245599084,-0.2803414074078466,0.6947047578467822,-45.934675190608054,-82.96325793311405,-177.75775302606866,1
1767376635.007523,1,left_wrist,0.9994,0.0903,0.0615,7.0,-0.63,-3.5,0.5732083754277287,0.483779451383822,-0.49663492022617245,0.43674175066074855,72.271225827926,-82.71332233798591,9.14790517168389,1
1767376635.007523,2,right_wrist,1.1961,-0.1298,0.1469,17.92,1.75,6.23,0.23260860921510332,0.61351678844024,-0.2786826693404706,0.7013033259797496,-48.94183341661012,-81.96001578675352,-173.55708398398562,1
1767376635.058507,1,left_wrist,1.0716,0.1972,0.0664,5.74,-0.91,-2.1,0.5749289770112099,0.48729609239024596,-0.49226628851019705,0.4355147424949424,72.91393632149445,-82.09004670501159,8.786442933246962,1
1767376635.058507,2,right_wrist,1.0468,-0.0317,0.081,21.28,-8.54,10.01,0.2257085366936542,0.619144349375507,-0.2727268782257797,0.7009536225694324,-50.57258690084008,-82.34861036087122,-170.79793482500082,1
1767376635.1128771,1,left_wrist,0.996,0.1776,0.0537,1.96,2.52,-7.14,0.5790505364006727,0.4905285474976538,-0.48670662728988573,0.432664857985993,72.97187362983165,-81.16114077043963,8.828469790646603,1
1767376635.1128771,2,right_wrist,0.9823,-0.1771,0.0698,12.04,-9.45,10.5,0.21479496942823015,0.6211265312976247,-0.27633878803800094,0.7012145373936534,-57.91617898102657,-81.80885799106674,-162.83505442311423,1
1767376635.181004,1,left_wrist,0.9677,0.1074,0.0259,6.37,4.55,-6.16,0.5721643082694633,0.49601166938832775,-0.48492800046663026,0.43754458348443387,75.2794695609531,-81.48279209098051,7.618293246947072,1
1767376635.181004,2,right_wrist,0.9823,-0.1771,0.0698,12.04,-9.45,10.5,0.20384509201967294,0.6226987210450818,-0.2798408858723836,0.7016997647587392,-63.95201621702835,-81.10874753891378,-156.17356555526715,1
1767376635.231502,1,left_wrist,0.9955,0.1801,0.0371,0.98,3.99,-6.58,0.5760640973991848,0.49945773271514887,-0.479800414961318,0.4341470842026383,75.63855668495998,-80.56346757891878,7.328244821851872,1
1767376635.231502,2,right_wrist,0.9418,-0.2054,0.1274,22.33,2.94,2.17,0.19589950412226723,0.6207593758254413,-0.27457959855957537,0.7077338664104754,-61.634909779259004,-80.48587429855586,-157.36777065278451,1
1767376635.314972,1,left_wrist,0.9687,0.1264,0.0371,7.35,1.33,-5.95,0.5735462569705759,0.5000471984451869,-0.4795810889982905,0.4370348607575553,75.50848067494543,-80.82286583659672,7.817462387404318,1
1767376635.314972,2,right_wrist,0.9638,-0.1059,0.1322,3.22,-0.07,3.08,0.19284163838222684,0.6184196376530285,-0.26461306080585617,0.7143872775477679,-55.73533245642604,-80.27812685143194,-162.1518288402572,1
1767376635.375494,1,left_wrist,0.9506,0.1152,0.0551,3.78,0.56,-3.15,0.5716913608688001,0.4983383689403268,-0.4790230667818819,0.4420008590950415,73.12445192158626,-81.20385491943199,10.529594651170589,1
1767376635.375494,2,right_wrist,1.0185,-0.1874,0.1425,1.05,0.0,2.45,0.19045497006150347,0.6154340562655128,-0.26603302552861413,0.7170733965888993,-55.5444862412356,-79.72321439096163,-162.27619717275056,1
1767376635.427087,1,left_wrist,1.0063,0.1337,0.0727,-2.31,0.7,-2.87,0.5739262551823033,0.4956086837414795,-0.4779602737881466,0.4433223013709278,70.33606141141125,-81.13592060762628,13.169175054244445,1
1767376635.427087,2,right_wrist,1.0677,-0.164,0.0913,18.13,0.42,4.9,0.18297680996384566,0.6183519442458943,-0.26324260238190933,0.7175400283984001,-57.451294403846404,-79.64697001295683,-159.48977476382348,1
1767376635.514347,1,left_wrist,0.9921,0.1371,0.039,1.89,3.43,-2.31,0.5720403784444263,0.4965148091675307,-0.47895528479036076,0.4436718211447203,71.39769938102746,-81.31854125702496,12.23186621466716,1
1767376635.514347,2,right_wrist,0.9672,-0.2011,0.0961,13.09,-5.32,7.07,0.16579933572801125,0.6200849509485531,-0.2669765870446674,0.7188384629729143,-63.60677915514714,-78.52480003154014,-152.21766597038553,1
1767376635.577965,1,left_wrist,0.9941,0.1503,0.0439,1.96,-3.71,-1.54,0.5712545173773346,0.49711550030691803,-0.4826917149251566,0.439946774136602,74.48315446758043,-81.4507199346915,8.797356492126854,1
1767376635.577965,2,right_wrist,0.9887,-0.1771,0.1059,3.85,-0.07,2.38,0.16489663127423906,0.6178811780120476,-0.2650086093096829,0.721666396505061,-61.761077462902314,-78.2953134682546,-153.82523935686405,1
1767376635.630045,1,left_wrist,1.0311,0.163,0.0693,-3.99,-4.83,0.98,0.5734262742786876,0.4959302404633627,-0.4823669327476742,0.4388139090234211,73.61770380167626,-81.28184991607252,9.422296753390237,1
1767376635.630045,2,right_wrist,1.0458,-0.1918,0.0551,8.89,-2.59,1.89,0.16103498099708102,0.6215098621978279,-0.2639955591404978,0.7197913384031533,-63.91427969929322,-78.44700160406543,-151.25037828070487,1
1767376635.71266,1,left_wrist,0.9799,0.1479,0.0405,-3.5,-2.8,0.77,0.5739956638694643,0.4985318498760561,-0.48285099122340397,0.43456862840383054,76.50189566805477,-80.96819631367347,6.381316780207367,1
1767376635.71266,2,right_wrist,0.9809,-0.2538,0.0991,9.45,1.05,2.59,0.15416785566326982,0.6216042164317,-0.2596650306185387,0.7227824999738128,-63.306692966262055,-78.1345919046916,-150.91242475797202,1
1767376635.776927,1,left_wrist,0.9043,0.1635,0.0508,16.24,-7.07,2.31,0.5723675856158339,0.506406604428171,-0.4781003228247639,0.43285999958726573,79.76229439423622,-80.30037780696307,3.840124105284123,1
1767376635.776927,2,right_wrist,0.9794,-0.1527,0.0849,1.12,-1.26,3.36,0.15565149565639258,0.6237912811330155,-0.25736270554858603,0.7214024447387678,-63.246436268993634,-78.55825118084597,-150.88962885490028,1
1767376635.8629498,1,left_wrist,1.0048,0.1591,0.02,-4.27,5.11,2.03,0.5711869225153939,0.504137541938152,-0.4809677285482372,0.43389040373244114,79.62328013650067,-80.72489377317241,3.8126739222037207,1
1767376635.8629498,2,right_wrist,0.9804,-0.1376,0.1005,9.38,-1.19,2.24,0.1478587463699159,0.6243031312427795,-0.2511266474189943,0.7247887957180864,-62.257569194175126,-78.3043975034495,-150.69292902430993,1
1767376635.927886,1,left_wrist,0.9862,0.1078,0.039,6.09,-0.35,2.45,0.5698218239852565,0.5063691272579495,-0.4790431072376257,0.4352138523510695,80.00532328575045,-80.64359661102999,3.824345770261429,1
1767376635.927886,2,right_wrist,0.9736,-0.2172,0.0986,17.64,-0.14,3.92,0.13860420020122427,0.623299227705925,-0.2498516178778097,0.7279155977664011,-62.798717535414845,-77.6019076016341,-149.2797243021496,1
1767376635.9791832,1,left_wrist,1.0292,0.1728,0.0634,-10.43,-0.14,0.98,0.5740934241290949,0.5020479477044039,-0.4792444396745554,0.43438389198789196,77.14111152195578,-80.54860023426154,6.13395913587216,1
1767376635.9791832,2,right_wrist,0.9897,-0.1669,0.1327,1.54,-5.81,5.11,0.1378899716016507,0.6232234247637878,-0.2486071117146946,0.7285419840765999,-62.387788237222566,-77.59398133182897,-149.52482128787838,1
1767376636.030614,1,left_wrist,0.9989,0.141,0.0264,3.5,-2.38,0.91,0.5698033805342656,0.5022137262777789,-0.48251594363306277,0.43621536516932313,78.81875556004142,-81.12419891221838,4.632627436774666,1
1767376636.030614,2,right_wrist,0.9828,-0.2455,0.08,2.31,-3.99,4.62,0.13225194423793152,0.6241125689721024,-0.25286188371907004,0.7273608404762888,-65.34013724377415,-77.10817479078402,-146.47056767604877,1
1767376636.107429,1,left_wrist,1.0141,0.1391,0.0322,-8.12,-3.36,-2.24,0.5694636205878585,0.4985863937286737,-0.486722431002612,0.4361468422154529,78.54863955754858,-81.59328207963367,4.469539626526622,1
1767376636.107429,2,right_wrist,1.0028,-0.1796,0.0859,7.49,-1.26,1.26,0.13102372180132033,0.6260521417703347,-0.24747802328268373,0.7277679081288224,-64.48471720850172,-77.44618834950414,-146.7551990831708,1
1767376636.157435,1,left_wrist,1.1273,0.1493,0.0913,-5.11,-1.19,-0.7,0.5720183202412519,0.49549973004520576,-0.4865282383430915,0.43653789311842417,75.9572572746022,-81.57752255865076,6.769809732994487,1
1767376636.157435,2,right_wrist,1.0014,-0.1835,0.1069,1.96,-0.63,0.7,0.13293334735498621,0.6256609699662562,-0.24388629547683163,0.728969512874489,-62.588381259357206,-77.69226018730608,-148.5017257135932,1
1767376636.21122,1,left_wrist,1.2273,0.0512,0.1459,-19.95,-6.3,-18.9,0.5786921375568652,0.4927655035634671,-0.48809698311319116,0.42902086604675754,75.96051023939454,-81.01495523679098,5.698475995979117,1
1767376636.21122,2,right_wrist,1.0126,-0.1942,0.0752,2.94,-1.89,-1.26,0.132071560859705,0.6290749510023403,-0.24349792347932214,0.7263129973329286,-64.37760674246856,-77.99485531805074,-146.59782996805336,1
1767376636.2616,1,left_wrist,1.2405,0.0639,0.1532,-20.93,-19.88,-36.75,0.5859605541687107,0.4960391890767236,-0.4893137647675656,0.4137238106120981,80.65522018095703,-79.69953172688086,-0.18775164280979423,1
1767376636.2616,2,right_wrist,0.9736,-0.1742,0.1186,-0.21,1.61,-0.42,0.13378483683142542,0.6266396652696034,-0.241473731337514,0.728776223829185,-61.99099725125407,-77.95149153285199,-148.95941847939383,1
1767376636.3120809,1,left_wrist,1.3747,0.2396,0.1679,-33.39,2.66,-55.44,0.6054755671462573,0.4967968037874106,-0.4807847692166445,0.3942566157020438,78.7942066345205,-76.89033354393646,-0.07052285996708438,1
1767376636.3120809,2,right_wrist,0.9565,-0.1908,0.101,1.33,1.05,0.0,0.13102169986122408,0.6239068002633452,-0.24333643337722904,0.7309999992762509,-61.808657589099,-77.39991737560719,-149.08208862869284,1
1767376636.3792078,1,left_wrist,1.1405,0.3689,0.0478,-7.21,-15.19,-32.34,0.6131918285922963,0.5178808586807404,-0.46796218213234725,0.3698737536696363,84.93269478628301,-73.13722414676599,-6.1526527583425,1
1767376636.3792078,2,right_wrist,0.9667,-0.182,0.1113,7.77,-0.56,1.96,0.13032272987283572,0.6229569050310662,-0.23876105035121276,0.7334397326214287,-59.68691573997943,-77.4310077718351,-150.757056512829,1
1767376636.463215,1,left_wrist,1.0756,0.184,0.0454,-50.12,-6.23,-17.01,0.6244692653878783,0.5061344366400758,-0.4760433595976826,0.35671948140788184,83.2883865551876,-72.87116661189644,-7.092139812244342,1
1767376636.463215,2,right_wrist,0.978,-0.2216,0.1283,2.31,1.89,3.29,0.12053646553690708,0.6198975796857642,-0.24180162954069104,0.7367020585875053,-61.02763256459363,-76.32478335274776,-148.88079414765537,1
1767376636.5278468,1,left_wrist,0.8418,0.5402,0.0688,-37.94,-30.45,16.24,0.6069901814381023,0.5183570160668739,-0.49849084617368367,0.33819491393726026,96.71165626808707,-72.89542075771836,-21.172973195191705,1
1767376636.5278468,2,right_wrist,0.9506,-0.2669,0.0971,7.0,-0.91,3.5,0.11419081942153833,0.6197453840409456,-0.2441575841924349,0.7370638980448658,-62.72266556897076,-75.77658193785891,-146.86659187778855,1
1767376636.582774,1,left_wrist,0.7784,0.4538,0.062,-17.78,-34.09,16.03,0.6036803444212216,0.5161589831068468,-0.5108560992864155,0.3289011884129472,100.80226122471201,-73.00263046910217,-26.462235726366696,1
1767376636.582774,2,right_wrist,0.9892,-0.2738,0.0722,3.36,-4.27,-0.28,0.1105466654520737,0.6223707944759344,-0.2461766245678834,0.734731990903612,-65.08772356340454,-75.6915922755337,-144.3670994282087,1
1767376636.6607418,1,left_wrist,0.7979,0.3938,-0.0229,-18.06,-15.26,23.66,0.603086798264251,0.5101859475942484,-0.5200458945475201,0.3248828715106462,102.49259904833002,-73.48936049976209,-29.2297019181943,1
1767376636.6607418,2,right_wrist,0.9906,-0.1981,0.1371,-3.15,-3.78,-1.19,0.11314888334856191,0.619843644414755,-0.244203107466005,0.7371268744114239,-62.92756941106584,-75.71246265183544,-146.57965393232956,1
1767376636.731904,1,left_wrist,0.6427,0.2572,-0.1767,-24.29,-13.44,14.63,0.6025474885014342,0.49764580342507486,-0.5417780949857335,0.3094538321424624,107.29966797744046,-73.92309616117174,-36.908579284176604,1
1767376636.731904,2,right_wrist,0.9667,-0.1786,0.1132,4.55,-3.08,-0.42,0.11503049315470043,0.6222667410199855,-0.23924283889374084,0.7364203641284075,-62.03065977801821,-76.29785276599632,-147.19791766245598,1
1767376636.8137758,1,left_wrist,0.6242,0.0727,-0.1684,4.2,-21.0,16.31,0.5914008208460108,0.49782873858810683,-0.5530160315903209,0.3107810884570234,113.6469642312216,-74.4805725559275,-43.15925495927923,1
1767376636.8137758,2,right_wrist,1.0136,-0.2137,0.0981,-0.91,1.68,-0.14,0.11429451358910903,0.6254500371523657,-0.24092591075562136,0.7332828381437191,-64.23519464735521,-76.49181860332153,-145.0672180364099,1
1767376636.880033,1,left_wrist,0.8701,0.264,-0.1147,15.54,-3.08,2.17,0.5854378244841147,0.5070770589836835,-0.5517834827564037,0.3093063175445638,116.01621620586553,-73.68955673959236,-44.66893224548043,1
1767376636.880033,2,right_wrist,0.9726,-0.2142,0.1269,1.75,1.61,-0.07,0.11402698603796464,0.6224476021895456,-0.23968168755280775,0.7362808687148006,-62.41746534340249,-76.22851747906968,-146.76566548613266,1
1767376636.9337091,1,left_wrist,0.8228,0.2718,-0.0639,12.74,11.48,-10.92,0.5896901363630535,0.5118006178541894,-0.5419265832468732,0.310871756534046,112.6449108047607,-73.20530120891684,-40.611467311039455,1
1767376636.9337091,2,right_wrist,0.9706,-0.2147,0.1318,0.28,2.24,-1.4,0.11458827204819598,0.6192713081060757,-0.23858336210403067,0.7392229394389325,-60.5223600265884,-75.9860565821479,-148.62315920682892,1
1767376637.005715,1,left_wrist,0.7266,0.1161,-0.0468,7.91,23.94,-2.73,0.5936121107840897,0.5083411424453268,-0.5350944092083436,0.3207614659865041,108.97358395337173,-74.02659677470456,-36.3745571301323,1
1767376637.005715,2,right_wrist,0.9823,-0.2142,0.1098,2.59,-4.55,0.98,0.11374732161812219,0.6243246326496745,-0.24050660407190688,0.7344636636957281,-63.62564761803574,-76.36118439610563,-145.59931386036027,1
1767376637.059979,1,left_wrist,0.6798,0.1776,-0.1283,35.7,1.89,-9.03,0.584868770182788,0.5208274816518184,-0.5294803933865239,0.32606405665198646,111.35926860966153,-73.5362705580168,-36.89050187283107,1
1767376637.059979,2,right_wrist,0.9379,-0.2059,0.1157,7.49,-3.92,1.12,0.11096990324375622,0.623258295532739,-0.23798654876455216,0.7366119604179896,-62.64540887743423,-76.17202970282776,-146.13886769002178,1
1767376637.12533,1,left_wrist,0.4651,0.0927,0.0054,6.16,41.23,-41.02,0.604709802543167,0.5328661328633636,-0.4939319895030241,0.3262068805237446,99.83017914517022,-70.91249159346498,-23.783562750636587,1
1767376637.12533,2,right_wrist,1.0263,-0.2298,0.1025,-4.06,2.38,0.28,0.11100814923924543,0.624290769047456,-0.24108097918278168,0.7347232049968782,-64.19325289003919,-76.1404257913874,-144.856075772944,1
1767376637.1767612,1,left_wrist,0.7837,0.5729,-0.0888,95.34,69.93,-3.36,0.5986016324797583,0.5506987101488676,-0.4583123198267542,0.3582692196211679,94.60256850763552,-70.61158491050672,-13.210139602282403,1
1767376637.1767612,2,right_wrist,0.9433,-0.1967,0.1405,0.0,-10.36,2.31,0.11024035295523427,0.6252899208216164,-0.240535739833028,0.7341676493568619,-64.5853701681377,-76.2082827327835,-144.35113478267232,1
1767376637.232625,1,left_wrist,0.69,1.0399,-0.0508,30.73,54.95,-31.5,0.6084749211254591,0.5583532311495827,-0.42882053387499647,0.3662142669986384,88.63465269231122,-68.56095033262714,-5.211811417505147,1
1767376637.232625,2,right_wrist,0.974,-0.2347,0.0747,5.81,-15.54,1.89,0.10471184834274123,0.6319793609179061,-0.24224371127443928,0.728666933885728,-69.19722263671389,-76.34540467164193,-139.41314994875182,1
1767376637.3141382,1,left_wrist,1.0292,0.3865,-0.0815,-25.97,1.47,-13.51,0.6147793857777839,0.5554631482338174,-0.4311621836478088,0.35722005706415727,88.30123474717067,-67.96951363892049,-6.085669577040307,1
1767376637.3141382,2,right_wrist,0.9399,-0.2401,0.1191,3.15,-5.04,0.56,0.09808199731097393,0.6306885303085229,-0.2451978994524216,0.7297190484322618,-70.21582675651835,-75.59233153706204,-138.10846815092714,1
1767376637.379931,1,left_wrist,1.2073,0.2157,0.1401,34.51,23.87,32.27,0.5982856741030124,0.5546494194267986,-0.425935517437081,0.39114857621909543,86.211020661773,-70.65877491904057,-0.7703131779865026,1
1767376637.379931,2,right_wrist,0.9487,-0.2518,0.0761,3.99,-7.77,0.42,0.09281765675257327,0.6330292834426944,-0.24789724123395943,0.7274653027379262,-72.72026876029254,-75.2468996691044,-135.39908382644157,1
1767376637.4638069,1,left_wrist,1.0663,0.6207,0.059,91.7,-14.42,29.61,0.5700853296648694,0.5768033715784339,-0.41782597102625274,0.40953882034871564,92.64315932177065,-71.59340225339702,-2.734235053614177,1
1767376637.4638069,2,right_wrist,0.9858,-0.2547,0.0991,3.99,-7.56,1.26,0.08937765711463186,0.6380366599694136,-0.24298960899170494,0.725173706684014,-74.13781584842151,-75.65247105989634,-133.2663417730404,1
1767376637.525502,1,left_wrist,1.0819,0.1576,0.1342,-62.37,39.48,25.97,0.6043436822649569,0.5193821198196704,-0.4360289239787892,0.4181981644770307,73.0376346258147,-74.03542818079512,11.01250410755315,1
1767376637.525502,2,right_wrist,0.9799,-0.1635,0.063,0.07,-11.34,1.4,0.09106910378128655,0.6429529766481915,-0.24045904178592378,0.7214550141062841,-75.93602394349644,-76.2929755854161,-131.37844862198438,1
1767376637.580998,1,left_wrist,0.9755,-0.3104,-0.0005,17.92,-39.41,20.72,0.5865886032160871,0.5252369307040556,-0.4507792554077752,0.42052115297044784,79.98913743664382,-76.0699670439138,4.721108099150098,1
1767376637.580998,2,right_wrist,1.0087,-0.2123,0.0688,-1.19,-11.06,1.75,0.09284770154384361,0.6462296780861639,-0.2383306945376348,0.7190027729570219,-77.06042980203948,-76.78993534152205,-130.21044152029265,1
1767376637.6580858,1,left_wrist,1.2527,0.1688,0.1171,36.68,-35.0,21.35,0.5666367482009955,0.5337381485943653,-0.4590770687776668,0.4281292202662255,87.63582708867953,-77.76258012685415,-1.3155505468137099,1
1767376637.6580858,2,right_wrist,0.9306,-0.1957,0.0527,5.81,-7.49,2.38,0.09162780838268343,0.65002409336857,-0.23251221158528063,0.717642734398584,-77.69415067839893,-77.31167061329221,-128.97228016181668,1
1767376637.73514,1,left_wrist,1.0497,0.1747,0.0678,-17.01,-2.31,6.79,0.5722842162268376,0.5161348452021584,-0.4762888054219218,0.4233728513444587,85.87854217015295,-79.16728341757027,-2.158694809720276,1
1767376637.73514,2,right_wrist,0.9931,-0.245,0.0439,-0.98,-8.19,-0.91,0.08794378826409957,0.6519519622809261,-0.23639882219987435,0.7150805030528531,-80.31023830866805,-76.89998052489135,-126.38420236156301,1
1767376637.81564,1,left_wrist,0.916,0.1035,0.0459,5.32,-8.05,8.47,0.5672155677244357,0.5141800984982495,-0.4804092356977814,0.427892851419196,86.79152977083025,-80.07000081594002,-2.864826199118819,1
1767376637.81564,2,right_wrist,0.9731,-0.2772,0.0473,-3.15,-4.76,1.33,0.08403492900415482,0.6518030471911983,-0.23967078473357073,0.7145969726529281,-81.35544475503632,-76.36918699589802,-125.30034019290615,1
1767376637.8792162,1,left_wrist,1.0253,0.1142,-0.0137,-10.57,4.13,6.65,0.5737683357295772,0.5052849173174603,-0.48663898718157217,0.42268137574358794,84.66189836649508,-80.25984097069836,-2.283322922158852,1
1767376637.8792162,2,right_wrist,0.9862,-0.1762,0.0444,1.26,-4.41,-0.84,0.08689428395569417,0.6540105712854868,-0.2357238101943588,0.7135501673814619,-81.46983294176555,-76.9833894663276,-125.07781952555086,1
1767376637.9317398,1,left_wrist,0.9965,0.2606,0.0127,-1.61,-5.18,-13.72,0.5774865458530094,0.5112875344004283,-0.48270843018137544,0.4148336027340642,86.64054925384869,-79.02602380901037,-4.363620573517762,1
1767376637.9317398,2,right_wrist,0.9887,-0.2806,0.0381,-1.47,0.35,-2.1,0.08460550492907551,0.6526064383370942,-0.23883938522312534,0.7140745712059128,-81.5857125135835,-76.51563291797628,-125.04407915576566,1
1767376638.015759,1,left_wrist,1.0668,0.1186,0.0307,-31.64,1.19,-12.46,0.585647435676544,0.5028187891110082,-0.487258812200003,0.4083738438439344,84.16881350087756,-78.9319389937447,-3.487978059199101,1
1767376638.015759,2,right_wrist,0.997,-0.3021,0.0039,2.94,-1.12,-1.96,0.08403462679471792,0.6523519896636827,-0.23825466366342032,0.7145696455377444,-81.2959174986945,-76.4939202196471,-125.23759643717099,1
1767376638.07949,1,left_wrist,1.2703,-0.325,0.0639,-48.3,15.19,-20.09,0.6112151363743896,0.5046247393902072,-0.4746756583996779,0.3826917150723726,81.0189857382784,-75.12525128534055,-2.5122488123757827,1
1767376638.07949,2,right_wrist,0.9853,-0.2357,0.0542,7.77,1.12,-1.05,0.08231760623718622,0.6499218650910881,-0.23483103013011167,0.7181084655314486,-78.96349004281456,-76.43152765617664,-127.14097995430605,1
1767376638.169353,1,left_wrist,1.4128,0.5295,0.1469,-28.84,-14.56,-86.87,0.6311638996615102,0.5176445805299837,-0.46069684526226257,0.3484747290370012,83.20440104960072,-70.44532857453282,-6.357932200945231,1
1767376638.169353,2,right_wrist,1.016,-0.1908,0.1083,10.78,-2.38,5.95,0.07731053856543563,0.6504905191990142,-0.23444074605187118,0.7182775937265211,-79.49513049569035,-76.09964912513387,-126.16654334713722,1
1767376638.229013,1,left_wrist,1.1126,0.5012,0.101,51.87,-28.84,-35.98,0.6276631129614543,0.5503226281169937,-0.44547935213227396,0.3236234979629126,90.37205451951327,-66.26495659688327,-12.054666455450038,1
1767376638.229013,2,right_wrist,0.9692,-0.2196,0.0454,5.39,-3.43,4.48,0.0774564054086474,0.6521021131904524,-0.230643861216551,0.7180297685450361,-79.38753191748937,-76.45521398152697,-125.95895291853127,1
1767376638.279696,1,left_wrist,0.9931,0.4812,0.0937,-24.64,8.47,-9.59,0.6390838751408834,0.5429610408678778,-0.44203834098827827,0.31838218186781947,87.28103811451145,-65.60745356708274,-10.191520824230244,1
1767376638.279696,2,right_wrist,0.9804,-0.3152,0.0063,9.03,-0.7,-0.7,0.07199163409265204,0.6530199298024953,-0.23099004263603073,0.7176529635585842,-80.34276927954666,-76.05846433671954,-124.58636521559967,1
1767376638.332704,1,left_wrist,0.8652,0.4114,0.0673,-6.65,4.41,17.57,0.6415536231276204,0.5357445008828513,-0.44367402382663895,0.32332667537196297,85.39463291230157,-66.30851685021754,-8.664035784539141,1
1767376638.332704,2,right_wrist,0.9687,-0.2391,0.0708,0.35,-4.34,-1.33,0.07195623034596031,0.6520797475078658,-0.22994494676267274,0.7188460372449643,-79.51027892583475,-76.06792063787498,-125.32827652811812,1
1767376638.410861,1,left_wrist,0.9394,0.6315,0.0508,-51.73,2.8,19.46,0.6530464064278888,0.5190079897505618,-0.4517350031403944,0.31638044276542954,82.28169655694715,-66.69557004815427,-8.091672796022815,1
1767376638.410861,2,right_wrist,0.9672,-0.2806,0.0586,7.7,-2.66,-2.87,0.06423556901034255,0.6536512050518091,-0.23211828677792729,0.7174503430562391,-81.38855921693695,-75.40816067425018,-123.00435119742308,1
1767376638.474562,1,left_wrist,0.6925,0.4782,-0.0005,-60.41,-25.06,21.7,0.6665414114377781,0.48513744913683815,-0.4829888853679919,0.29510326818678395,80.1605687875291,-68.46530729637271,-11.82737246297346,1
1767376638.474562,2,right_wrist,0.9667,-0.2259,0.0722,-1.4,-1.75,-3.64,0.06721348577329084,0.6528457545143883,-0.22940206010927083,0.7187833212869962,-80.078207670626,-75.77707102057083,-124.32648871143371,1
1767376638.533449,1,left_wrist,0.5173,0.405,0.1044,-41.3,-32.55,21.56,0.6675784226786656,0.47407667631717876,-0.49927368714113934,0.2834010230652202,81.55610195518885,-69.27930744533761,-15.575785001783077,1
1767376638.533449,2,right_wrist,0.9716,-0.1952,0.081,2.52,1.12,-4.27,0.07030327321568472,0.6519107105865878,-0.22455161353464623,0.7208650692443336,-78.03593485721589,-76.27670465446914,-126.20853439524767,1
1767376638.611611,1,left_wrist,0.6451,0.3396,0.0786,-41.09,-19.18,24.64,0.6709941924551284,0.46023958745031646,-0.5119261293305477,0.275459532315903,81.15536948478652,-70.14474899499578,-17.39754607543392,1
1767376638.611611,2,right_wrist,0.9916,-0.1767,0.0966,6.3,-0.49,-3.71,0.0752722510092627,0.6523215941463495,-0.21368924010313953,0.7232893851720116,-74.7184240665153,-77.37049817957825,-129.00777094917433,1
1767376638.684345,1,left_wrist,0.6822,0.326,-0.1976,-5.39,-10.22,27.65,0.6591936773768203,0.4318772907021245,-0.5466115970683271,0.2831279983198938,83.54608558602106,-74.8399170397683,-22.212822129528696,1
1767376638.684345,2,right_wrist,0.9858,-0.2216,0.0498,2.8,6.37,-2.66,0.0737559784438055,0.6520195881488022,-0.21447031592524907,0.7234866936585544,-74.90917929224116,-77.18515716897925,-128.7601047009254,1
1767376638.7621639,1,left_wrist,0.6734,0.3231,-0.0722,-12.88,-6.16,5.67,0.6588218493061777,0.43082856306337014,-0.550797445715594,0.2774215094737918,85.19760983656603,-74.7521087926585,-24.498395609377702,1
1767376638.7621639,2,right_wrist,0.9706,-0.2181,0.0908,2.31,6.3,-0.07,0.0730029967871019,0.6470633029941358,-0.2153564565233,0.7277370685983706,-72.30500744898214,-76.71205063055896,-131.38671835702937,1
1767376638.835283,1,left_wrist,0.9858,0.3728,0.0288,11.97,-1.89,-14.14,0.654444278854761,0.4575979182877928,-0.5352567342399428,0.2753308182963568,88.45426200491681,-72.28333938698091,-25.183032467217565,1
1767376638.835283,2,right_wrist,0.9799,-0.2713,0.0595,2.03,3.01,-1.12,0.06975789099477078,0.6459447465702048,-0.2178634978504007,0.7283026275709183,-72.74365954166565,-76.235505241586,-130.89837588948436,1
1767376638.9120572,1,left_wrist,0.6564,0.2191,-0.103,20.23,14.21,-17.22,0.6534430071208399,0.46747437978851925,-0.5271533613181584,0.2767476726861139,88.71590655856083,-71.38309286077411,-24.263042810215982,1
1767376638.9120572,2,right_wrist,1.0009,-0.2713,0.0181,1.12,2.31,-0.7,0.07049373159645943,0.648935953587505,-0.21637303034206845,0.7260134115067518,-73.93463342125318,-76.60059769167195,-129.63540847317125,1
1767376638.981049,1,left_wrist,0.5485,0.832,0.0425,-17.92,20.51,-42.77,0.6551323565876119,0.48947848929459886,-0.5043224582134951,0.27725667171654644,88.07772931376884,-68.78328666778852,-21.12524749957335,1
1767376638.981049,2,right_wrist,0.9521,-0.2572,0.0717,-0.7,4.13,-0.77,0.06815060768478134,0.6458491656953885,-0.2193033898533673,0.7281073911461052,-73.26147170764264,-76.0214958859557,-130.37205196537843,1
1767376639.036329,1,left_wrist,0.6232,0.182,-0.1854,66.5,47.95,-32.34,0.6522382452623866,0.510681465176703,-0.47785386751931136,0.29231044086528163,86.7860776873051,-67.20606765567118,-15.994348613608768,1
1767376639.036329,2,right_wrist,0.9467,-0.2142,0.0742,-6.44,-3.5,0.28,0.07230914736458248,0.6460904137568209,-0.21833309213649954,0.727783776500316,-72.71986532764888,-76.41028681329344,-131.16968712775156,1
1767376639.10868,1,left_wrist,0.6373,0.3431,-0.0732,86.87,-8.82,-13.02,0.6309204408708121,0.5416125807429297,-0.4662838925545438,0.3019512232406852,93.06685907189559,-66.27074494971518,-17.958520082078763,1
1767376639.10868,2,right_wrist,1.0063,-0.2225,0.0805,3.22,0.35,1.4,0.06881537402532417,0.6495349526894859,-0.2202573992635333,0.7244690936141351,-75.55462590619302,-76.27608676793217,-128.20741756012802,1
1767376639.15959,1,left_wrist,1.2629,0.8603,0.0698,72.73,3.36,4.06,0.615884073242592,0.5612610805168401,-0.45349709126430704,0.3162486300966306,95.8362826939864,-66.00759521275354,-17.093245166722188,1
1767376639.15959,2,right_wrist,0.9584,-0.2386,0.0273,0.56,-4.48,2.1,0.06646810831399692,0.6528207735682141,-0.22249037359600035,0.7210444243124482,-78.25937129011086,-76.16840262079437,-125.49587655991934,1
1767376639.21184,1,left_wrist,0.9477,0.4665,0.0698,17.92,53.13,14.56,0.6223291140167795,0.5543903510835065,-0.43797373518322735,0.3369522514574564,89.75903690190093,-66.74166374465203,-9.65492431316506,1
1767376639.21184,2,right_wrist,1.0058,-0.263,0.0727,4.41,-10.57,0.91,0.06223271457773249,0.6535275903562215,-0.2228134272580301,0.7206822840288277,-79.02379451831726,-75.86055780057411,-124.41306035506152,1
1767376639.263558,1,left_wrist,1.199,0.3767,0.1,-4.97,7.35,44.94,0.6186076651876387,0.540333594647334,-0.44819800326348463,0.35282107779611804,87.67258302553874,-69.35771269670222,-7.798866747702704,1
1767376639.263558,2,right_wrist,0.9653,-0.1962,0.0542,-5.04,-8.54,0.98,0.06588512981016927,0.6564273785119021,-0.2214007269750764,0.7181531622883777,-80.15618239017293,-76.41068297482833,-123.45348437351532,1
1767376639.326796,1,left_wrist,1.1566,0.1391,0.0649,60.06,-1.19,52.57,0.5820808004410921,0.5380693008828362,-0.4612813067954035,0.3986012107438186,91.01838324743954,-75.00671083986043,-7.187041383788813,1
1767376639.326796,2,right_wrist,0.9823,-0.2074,0.0498,4.34,-7.98,1.54,0.06654296410091519,0.6588143918989402,-0.2173061542274897,0.717156653939955,-80.50062564988701,-76.87239169579446,-122.81145621716071,1
1767376639.382588,1,left_wrist,1.3918,0.2211,0.2196,-25.55,13.72,39.34,0.5848324820091195,0.5185021998964936,-0.47102672162488746,0.408974649831576,85.19894865249364,-77.1748378935932,-2.6061846894073826,1
1767376639.382588,2,right_wrist,0.9955,-0.2123,0.0493,1.82,-8.82,0.63,0.06761878000763039,0.66070025875742,-0.2141629001178082,0.7162660964203791,-80.79983653255493,-77.27467056048074,-122.33076679583425,1
1767376639.456882,1,left_wrist,1.1439,0.1591,0.0405,17.64,12.39,31.29,0.5762866818396216,0.5114569785200902,-0.473772823316698,0.42643256365327403,81.44263219704071,-79.19220774389123,2.0983914965102004,1
1767376639.456882,2,right_wrist,0.9438,-0.1996,0.0683,6.02,-6.51,0.98,0.062453385506620614,0.6647957946792453,-0.21344470528368445,0.7131531979889827,-83.56375634158404,-77.1262009366997,-119.08075935274282,1
1767376639.50788,1,left_wrist,0.9711,-0.0512,0.0483,-3.99,-2.73,5.81,0.5737523367958385,0.5071251731254542,-0.4788246531484244,0.42937077956130654,80.98063325212279,-80.04472058892406,2.3394525772184283,1
1767376639.50788,2,right_wrist,0.9731,-0.2869,0.0098,3.5,-8.96,2.03,0.05659247815160907,0.6672085364353366,-0.21667769461795047,0.7104089223676222,-86.11776382402734,-76.53355015858752,-116.32182027339958,1
1767376639.559179,1,left_wrist,1.0516,-0.1776,0.082,-22.4,-19.53,17.15,0.5697598524975067,0.49880956937677723,-0.49374626555534784,0.4275246767501511,84.2177664681123,-81.54841083063216,-2.1047860640006038,1
1767376639.559179,2,right_wrist,0.9736,-0.2245,0.0332,17.22,-3.64,-0.21,0.052530462452388384,0.6668168655239386,-0.20957225193004284,0.7132147569900237,-84.29408795188529,-76.7015540252107,-117.2135678987665,1
1767376639.611365,1,left_wrist,1.0463,0.0791,0.0444,55.93,-14.84,18.06,0.5498916522632903,0.5083983566262389,-0.4920985861150776,0.4438347252012056,90.59014972694757,-82.97435230281212,-5.744274406815385,1
1767376639.611365,2,right_wrist,1.0155,-0.2567,0.0176,2.66,-2.94,-1.4,0.04874072898433006,0.668066584943735,-0.211785963718981,0.7116586857414962,-85.72437329315109,-76.29198512916064,-115.66158467119972,1
1767376639.6804779,1,left_wrist,0.9994,-0.0551,0.0293,16.66,-3.78,7.28,0.5594413665581623,0.4905808829039849,-0.5064358483025105,0.43575048624964163,86.96272430704029,-83.81757369043949,-4.976292969710888,1
1767376639.6804779,2,right_wrist,0.9731,-0.2103,0.0625,-2.24,-1.26,-1.4,0.05116770865887881,0.6667281957969077,-0.21013815056886964,0.7132302126210692,-84.41720041746116,-76.54819978319505,-117.02769643392239,1
1767376639.756961,1,left_wrist,1.0043,0.2001,0.0185,-23.87,-0.77,0.84,0.5666791976945894,0.48682597324316973,-0.5085614684821773,0.4280658727944899,85.70841903244882,-83.29947485323716,-4.921380310005788,1
1767376639.756961,2,right_wrist,0.9775,-0.2396,0.0332,3.15,-4.41,-3.78,0.049833268655017735,0.6655097735049383,-0.21112067085636413,0.7141718623984854,-83.9213306828252,-76.31676419936964,-117.49954999812647,1
1767376639.807256,1,left_wrist,0.9989,-0.0127,0.0893,15.4,1.54,-10.64,0.5654558483290661,0.48972866963882467,-0.5036346394729582,0.4321778148484563,83.72331710502799,-83.15203433723305,-2.179091469964347,1
1767376639.807256,2,right_wrist,0.9755,-0.2674,0.0283,1.54,1.05,-2.17,0.04673583669021484,0.6640091724457294,-0.21325735365303095,0.7151425603260577,-83.60588770955614,-75.84927561536004,-117.74595510423109,1
1767376639.879179,1,left_wrist,1.364,0.0556,0.2352,16.45,10.85,-92.61,0.6020893465051125,0.502919829454807,-0.475059516790071,0.39859568421318686,79.32230783413999,-76.65053329462404,0.532722462867809,1
1767376639.879179,2,right_wrist,0.9662,-0.2147,0.0342,1.47,-4.48,-0.63,0.04938558575591031,0.6656423936239659,-0.20924923825259112,0.7146299909889126,-83.57616321104226,-76.42019679381696,-117.6498137204432,1
1767376639.9590971,1,left_wrist,1.5074,-0.1737,0.1659,-70.91,-10.71,-81.41,0.6278064418251572,0.49976223324232066,-0.4738218188450276,0.36275289911160413,79.72041961233144,-73.23923142580846,-3.6023875966314014,1
1767376639.9590971,2,right_wrist,0.9609,-0.2591,-0.0059,-1.47,3.29,-1.47,0.04531741406553938,0.6691317473071609,-0.21427455435436898,0.7101376289736481,-87.01702431507782,-75.87649717773222,-114.30084720732576,1
1767376640.0094788,1,left_wrist,1.3064,0.0488,0.0815,-37.17,-4.9,-37.52,0.6391667460108333,0.4954221256609878,-0.47523765991663924,0.34665826803413763,79.29928625279351,-71.9888883794243,-5.147513362886693,1
1767376640.0094788,2,right_wrist,0.9867,-0.2303,0.0488,0.0,-2.87,-0.49,0.04646081688126609,0.6681547010510845,-0.2123902202115626,0.7115483696253861,-85.97024198878238,-76.06853808124171,-115.28164195909207,1
1767376640.075086,1,left_wrist,1.1463,0.5036,0.042,-61.81,-4.2,-2.38,0.6593133241963129,0.4840216637309196,-0.48573543332744773,0.30836675953571335,80.02448573370057,-69.88696941242561,-10.6570235414973,1
1767376640.075086,2,right_wrist,0.998,-0.2206,0.0483,1.96,-0.63,2.52,0.04693426376567786,0.6666309950666761,-0.2101712905755584,0.7136023541994457,-84.49879855110136,-76.20314327187116,-116.60508234510178,1
1767376640.1659892,1,left_wrist,1.0385,0.5344,0.1249,-43.75,-27.72,22.89,0.6616883132100498,0.47157874422131446,-0.5012741638845016,0.29750004501139293,80.81638562540553,-70.72826881419114,-13.862255192871489,1
1767376640.1659892,2,right_wrist,0.9653,-0.2406,0.0688,-6.44,6.93,-3.92,0.05285702309183821,0.6623754098842929,-0.21277780625640783,0.716373196494114,-82.24777118265605,-76.29043829502504,-119.56262262243212,1
1767376640.23,1,left_wrist,0.6378,0.4519,0.1459,-40.67,-35.07,26.6,0.6589055479962547,0.4499843915906076,-0.5338208637729502,0.27998716317947037,85.12164276990448,-72.83421228229595,-22.186771291818772,1
1767376640.23,2,right_wrist,0.9653,-0.2669,0.0181,-2.31,1.05,-4.34,0.05189793500801005,0.662702524318034,-0.21556419178300523,0.715306960559835,-83.16607024496173,-76.03566544331642,-118.80221408250065,1
1767376640.3090749,1,left_wrist,0.6227,0.426,0.06,-29.19,-47.04,17.92,0.6531309320294254,0.44518134388173336,-0.5516741611069974,0.2662502143715918,91.00772443037985,-73.2736373424797,-29.88443539702341,1
1767376640.3090749,2,right_wrist,0.9897,-0.2216,0.042,-2.94,2.52,-3.99,0.060041750957561424,0.6616071331552072,-0.20856463473972747,0.7177546813751772,-80.31085254742655,-77.10698555825843,-121.72801850951609,1
1767376640.3590999,1,left_wrist,0.5641,0.2713,0.0547,-38.5,-18.83,18.55,0.6562318640718712,0.43287631201978677,-0.5622096965719436,0.25670624485857085,91.41899737469097,-73.76517602241252,-32.403219014468505,1
1767376640.3590999,2,right_wrist,0.996,-0.1752,0.0844,-3.01,3.99,-3.36,0.06451941738364925,0.6592700299861579,-0.20580659535856585,0.7203082101777271,-77.72147423433101,-77.504306863206,-124.4516117185659,1
1767376640.4161348,1,left_wrist,0.6949,0.2928,-0.0024,-37.66,-3.43,22.12,0.6613222152885823,0.41969306865934464,-0.5692781721265856,0.2498660009391401,90.09311905481101,-74.29892330936316,-32.992657264854785,1
1767376640.4161348,2,right_wrist,0.9921,-0.244,0.0454,-3.08,0.56,-1.54,0.062491359205443055,0.6582622214432764,-0.20981722547279938,0.7202516294602295,-78.35461889364261,-77.02098832060476,-123.9938218307726,1
1767376640.481823,1,left_wrist,0.6568,0.2298,-0.1737,-8.05,5.11,16.59,0.6640688467241664,0.40228088614232155,-0.57644802945602,0.2547357940911627,87.20280625631375,-76.06107124181257,-31.388608151327585,1
1767376640.481823,2,right_wrist,0.9906,-0.2352,0.0464,6.09,-7.98,0.0,0.05657485253071858,0.6597648704293386,-0.2115401072862823,0.7188604766001492,-80.13127689535949,-76.53035920778271,-121.87972289161203,1
1767376640.562633,1,left_wrist,0.7115,0.2562,-0.183,17.08,10.64,5.88,0.6610646642974876,0.40687331221995626,-0.5740070146563713,0.2606982250528233,87.61496751556594,-76.18068425571953,-30.831425662592537,1
1767376640.562633,2,right_wrist,1.0082,-0.2147,0.0166,0.0,-4.97,-0.14,0.05993335868891366,0.6651492993797348,-0.20746036316903604,0.714803889024595,-82.36412240888902,-77.36156410064868,-119.56849527390685,1
1767376640.628392,1,left_wrist,0.5144,0.1244,-0.0561,31.64,29.33,-21.49,0.6560221989166168,0.4333529218074686,-0.5561007769543034,0.2694291104545993,88.74009470056133,-74.39619238775195,-28.530265191670644,1
1767376640.628392,2,right_wrist,0.977,-0.1889,0.0981,1.33,-4.83,0.49,0.06007737101867586,0.6646385124743628,-0.20568111458206628,0.7157804386343829,-81.54392764819592,-77.47039812246527,-120.2506049060622,1
1767376640.7112489,1,left_wrist,0.3914,0.2045,0.0312,58.17,30.94,-23.73,0.6570558566575415,0.45379157910326584,-0.5328917580110132,0.27995924383902854,86.12172675643511,-72.62401709667687,-22.80372742486469,1
1767376640.7112489,2,right_wrist,1.0638,-0.1781,0.0917,3.64,5.18,1.54,0.06326515358844631,0.6638993184319557,-0.19985295830176789,0.7178398222340739,-79.23170308729814,-78.07923634296651,-122.33126686788752,1
1767376640.7825,1,left_wrist,0.408,0.5558,0.1527,38.71,49.77,-48.3,0.6482904768735107,0.5141593924721146,-0.4666720583126036,0.3123728008615667,84.5610298932518,-67.86473933439125,-11.461255197714745,1
1767376640.7825,2,right_wrist,0.9287,-0.2108,0.0478,1.82,1.12,2.87,0.05947947013015341,0.6609523629995787,-0.2021899939783566,0.7202245294443542,-78.17312176186249,-77.4536288979941,-123.28241752190524,1
1767376640.857715,1,left_wrist,0.6456,0.3104,0.1474,0.98,-2.8,-35.0,0.654619736629869,0.5207416554548401,-0.45714648256736334,0.3021890503725784,84.40949291314364,-65.9568769163082,-11.391713231519544,1
1767376640.857715,2,right_wrist,1.0219,-0.1723,0.0439,4.55,6.37,0.07,0.05785985584235139,0.6619231384688089,-0.19466274772358483,0.7215375322810369,-76.79824521848506,-77.88575557394465,-123.89035809532041,1
1767376640.91404,1,left_wrist,1.14,0.4875,0.4168,172.2,26.25,16.38,0.6186965418091777,0.5598830824802773,-0.42784442129307865,0.34741139053597286,88.99183903700632,-66.69780802524642,-7.1447975334883616,1
1767376640.91404,2,right_wrist,0.9345,-0.2606,0.019,3.29,-5.32,0.7,0.053167982878890394,0.6640098788005869,-0.19733682942764919,0.7192511537726324,-79.29949097943937,-77.46503582059714,-121.23022619958824,1
1767376640.9799192,1,left_wrist,1.0804,-0.0561,0.1415,3.85,-0.7,12.53,0.61068447063329,0.5643473435736246,-0.41989555982077675,0.3636815529711787,88.44811337516798,-67.41828804399837,-4.4425581792467925,1
1767376640.9799192,2,right_wrist,1.0092,-0.2523,0.0571,2.24,-17.71,0.98,0.04794871802569905,0.6673038153146066,-0.19974788578806627,0.7158961660949577,-82.40227193881702,-77.05762002333395,-117.90299369828452,1
1767376641.05641,1,left_wrist,1.4625,0.1747,0.1708,9.94,-33.18,38.78,0.5952665946178279,0.5622911367081866,-0.43829273606217684,0.37065595425763886,92.7492475567732,-69.8235989864871,-8.606980418967698,1
1767376641.05641,2,right_wrist,0.9941,-0.264,0.0229,0.0,-6.72,0.0,0.0446294864291331,0.6683255850153283,-0.201733916964844,0.7145995718589624,-83.68912032039282,-76.69951266920278,-116.51304122492017,1
1767376641.10899,1,left_wrist,1.2371,0.1371,0.1152,22.54,-7.35,49.42,0.5796787773065097,0.5569402499659024,-0.44996791966567384,0.3889973578060573,94.892986580599,-72.74040643996315,-9.745536066077976,1
1767376641.10899,2,right_wrist,0.9726,-0.2269,0.0532,3.01,2.31,-1.05,0.04457320225679551,0.665373494428636,-0.19957146814400542,0.7179572213267633,-81.26939107021963,-76.70787662990418,-118.74877657134677,1
1767376641.1758468,1,left_wrist,1.2673,-0.0264,0.1308,52.71,-16.17,45.92,0.5569440244666872,0.5389197393742466,-0.4781229390713182,0.4132521303725473,100.51465620811207,-77.95798841837077,-15.291925074269509,1
1767376641.1758468,2,right_wrist,0.9633,-0.2538,0.0298,3.71,-0.21,-0.56,0.040248485514193154,0.6651400680457455,-0.2017740126952622,0.7178133441882836,-81.86538880205619,-76.20018018483361,-117.98755654465823,1
1767376641.229677,1,left_wrist,1.1522,0.344,0.0376,1.82,-0.91,28.21,0.5540807034104055,0.5336950377044529,-0.48179241157571856,0.41957151117053487,100.27089449602228,-79.0370077497585,-15.027010503413,1
1767376641.229677,2,right_wrist,0.9653,-0.2386,0.0293,7.42,-2.52,-0.42,0.036058942151020026,0.6675925700873392,-0.20182125894013203,0.7157430352402673,-83.5597588895441,-75.97838394701739,-115.9546973213496,1
1767376641.306886,1,left_wrist,1.0541,0.0434,0.0854,-21.84,-10.08,6.79,0.5558130166886729,0.5259849198804484,-0.49028895513857357,0.41716722666925904,100.98336534378092,-79.69367929490058,-16.908533655070045,1
1767376641.306886,2,right_wrist,0.978,-0.2401,0.0508,-3.15,0.56,-1.4,0.03619666870055934,0.6685048659174253,-0.20410223401822106,0.7142361818673697,-84.62294842125416,-75.86343974437185,-115.09436285934991,1
1767376641.3619041,1,left_wrist,1.0048,0.1171,0.0639,-13.93,-7.21,8.75,0.5568179170965872,0.5194794962731573,-0.49608913826768736,0.41712159743272514,100.973727564205,-80.34478807768237,-17.665094947291333,1
1767376641.3619041,2,right_wrist,0.9662,-0.2694,0.0102,-3.43,-1.68,-1.33,0.03449990188617683,0.6695912196211462,-0.20805472512063503,0.712159102119103,-86.17542863677774,-75.48148925251344,-113.73727258976504,1
1767376641.428148,1,left_wrist,1.0214,0.0303,0.0317,-9.17,-0.7,0.49,0.5602515149650122,0.5151715633810148,-0.4966717782385351,0.4171733991571623,98.44161851310744,-80.52376575133412,-15.608578666473399,1
1767376641.428148,2,right_wrist,0.9877,-0.2484,0.0273,2.94,-3.92,-1.75,0.0353837709741951,0.6692567788053732,-0.20459378548858762,0.7134316615585206,-85.21471743947569,-75.79327501503002,-114.47747722212917,1
1767376641.479212,1,left_wrist,0.9682,0.1732,-0.0107,20.65,1.05,-7.14,0.5599824394509499,0.5215211581355891,-0.488155572362018,0.4196897500480417,96.72606266722164,-79.88957822781012,-12.87941467322363,1
1767376641.479212,2,right_wrist,0.9687,-0.2352,0.0278,-1.96,-1.89,-2.52,0.03893583256911899,0.6688739755907793,-0.20171640031747096,0.7144243133898067,-84.23593275940864,-76.27064572122205,-115.50200248688627,1
1767376641.5314,1,left_wrist,0.9853,0.081,0.0142,-14.42,-4.9,-10.43,0.5631914760097919,0.5181902505106624,-0.4910580951816286,0.41612038256038325,96.29934192723987,-79.85935122466775,-13.202507363926163,1
1767376641.5314,2,right_wrist,0.9902,-0.243,0.0142,3.71,-5.18,-0.91,0.037013302011967515,0.6728460233245451,-0.20163351735383442,0.7108109235584646,-86.79927620242549,-76.2781792209993,-112.77239635444299,1
1767376641.605799,1,left_wrist,1.1004,0.124,0.0288,2.31,12.39,-6.44,0.5664286588171346,0.5149427592455597,-0.4866855487301241,0.4208678008929285,91.33825062721557,-79.99445355416087,-8.08886015166301,1
1767376641.605799,2,right_wrist,0.9906,-0.2162,0.0581,2.8,-7.35,0.56,0.038248130604768726,0.6726665451038384,-0.1982196941844124,0.7118748151471187,-85.92066365689038,-76.62373826775433,-113.46356136307217,1
1767376641.658855,1,left_wrist,1.3454,0.1035,0.2377,-25.34,-0.77,-66.57,0.5850533536683739,0.5203114661674264,-0.4756722424522723,0.4009045638260039,88.48274225011669,-76.84998950275909,-6.535599701505427,1
1767376641.658855,2,right_wrist,0.9418,-0.1981,0.0556,2.87,16.94,2.52,0.039598041779431936,0.6653824794213605,-0.19576596866265822,0.7192870335824831,-80.60368521081787,-76.58270449470214,-118.6900079702071,1
1767376641.7250051,1,left_wrist,1.3708,0.3719,0.0229,-73.78,-14.0,-74.2,0.6215097354160332,0.5252833086962587,-0.46288585197683607,0.3514822647415971,86.57062868825852,-70.84452688779733,-8.65752190097362,1
1767376641.7250051,2,right_wrist,0.9623,-0.2635,0.0039,5.81,-4.06,0.77,0.035120435204870744,0.668029060137401,-0.19691134109663422,0.7167493659505295,-82.7533551550376,-76.2760498312086,-116.27073997858143,1
1767376641.812435,1,left_wrist,1.2659,0.3709,0.0766,-20.23,-17.15,-58.24,0.6318979322109868,0.5310987079080797,-0.45767392231408055,0.3304145071867946,87.37017286963835,-68.33710804840005,-10.70405671433857,1
1767376641.812435,2,right_wrist,0.9487,-0.2557,0.0366,1.61,-3.36,-0.98,0.03200926576044315,0.6665909244429578,-0.19731336547996176,0.7181221220368659,-82.08929465921355,-75.93463222101941,-116.71754155131164,1
1767376641.865521,1,left_wrist,0.9897,0.4485,-0.0078,-10.64,-3.85,-16.59,0.6359754010826788,0.5350169188172692,-0.45514018631493053,0.31959286068091664,88.05822457454568,-67.05670432615594,-11.919002404420812,1
1767376641.865521,2,right_wrist,0.9989,-0.2484,0.0288,-4.34,-3.01,-4.34,0.03403703347039803,0.6701955003769757,-0.19838363719604798,0.7143692351437434,-84.48452494708299,-76.17710235073646,-114.5737582734065,1
1767376641.928461,1,left_wrist,0.7823,0.5275,0.0747,-34.65,-34.72,17.5,0.6373150570560837,0.5276055656044467,-0.473162196941419,0.30262091893717863,90.66773950014561,-67.2848099884453,-17.10192967444853,1
1767376641.928461,2,right_wrist,0.998,-0.2625,0.0229,-5.32,1.19,-4.06,0.03346881288061597,0.6692343239186505,-0.20230362331598095,0.7141978033057333,-84.75907201488224,-75.8064811683458,-114.58443054066704,1
1767376641.983176,1,left_wrist,0.5578,0.4958,0.1098,-12.81,-33.74,26.6,0.6320217059758889,0.523800530145459,-0.48744462984695897,0.2976227488415905,93.68237736251778,-68.11610833339616,-21.14267060936849,1
1767376641.983176,2,right_wrist,0.9482,-0.2625,0.0351,-1.61,-1.26,-6.3,0.033155380680252415,0.667844651939003,-0.20318242251418936,0.7152629899482321,-84.11363782030057,-75.65982622952703,-115.27983240728,1
1767376642.059924,1,left_wrist,0.7515,0.4924,0.1454,-29.82,-36.47,28.56,0.6297828168551627,0.514075327591228,-0.5051418943577753,0.28970990269679486,96.25385809299358,-69.08720667356673,-25.63948452093575,1
1767376642.059924,2,right_wrist,0.9409,-0.1898,0.0644,-0.49,1.89,-5.11,0.04078222712693001,0.6652364290781729,-0.1946324436362741,0.7196634736194836,-80.1652381591635,-76.74713782985688,-119.12937977299976,1
1767376642.110564,1,left_wrist,0.8589,0.4494,-0.0771,-5.04,-22.54,23.59,0.6232673115697684,0.5133006856188412,-0.5157108785095453,0.28653543281544386,99.7027373248089,-69.55519703534397,-29.546601280765547,1
1767376642.110564,2,right_wrist,0.9916,-0.2235,0.0278,-0.14,-7.42,-3.15,0.04227559425822382,0.6704518929416543,-0.19333539652865273,0.7150723444730436,-83.19470534642191,-77.21050326890128,-116.10716241167563,1
1767376642.176983,1,left_wrist,0.5348,0.3455,-0.0727,-27.79,-15.33,21.63,0.6244726163245232,0.49056378363994885,-0.545113646772715,0.268760558385738,103.30593055286121,-70.82250700666238,-37.320669457493395,1
1767376642.176983,2,right_wrist,0.9838,-0.161,0.101,-2.38,-1.33,-1.05,0.044982976026697596,0.6693012227567906,-0.19154627227112103,0.716465233394534,-81.84801946011584,-77.4996688864806,-117.5243289053125,1
1767376642.263097,1,left_wrist,0.6154,0.4046,-0.0273,-20.09,12.11,4.9,0.632891091679159,0.48456239303283855,-0.5426685322929796,0.26487547525287136,100.19083721681304,-70.66477022077018,-35.154526271453314,1
1767376642.263097,2,right_wrist,0.9609,-0.1942,0.0761,4.76,-2.38,-0.42,0.043508397055541825,0.670603553558345,-0.19131975032310042,0.7153982432721538,-82.75661978768687,-77.46015140949098,-116.4758105718632,1
1767376642.332871,1,left_wrist,0.6798,0.2674,-0.1679,42.42,-0.56,-1.47,0.6201190179161065,0.4988225957395502,-0.5376382018099687,0.2785203503390095,103.3524341318221,-70.85014579725579,-35.595922812048734,1
1767376642.332871,2,right_wrist,0.9609,-0.1942,0.0761,4.76,-2.38,-0.42,0.043022566786516614,0.6693637556928188,-0.18825319738224244,0.7173994389371005,-81.16642937379882,-77.5808991259008,-117.77015932967194,1
1767376642.407702,1,left_wrist,0.6071,0.4333,-0.082,34.3,27.3,-9.73,0.6211719250678079,0.5097243799643427,-0.521875213553482,0.2863088497689649,100.8911802827302,-70.08948831362055,-31.18344759314472,1
1767376642.407702,2,right_wrist,0.9575,-0.2259,0.062,-0.42,-2.87,0.21,0.03892878334269556,0.6681069134273185,-0.18689528626429144,0.7191577393244597,-80.2104632804197,-77.29092932790206,-118.28098075973551,1
1767376642.486173,1,left_wrist,0.3758,0.3026,0.0098,72.73,-6.09,-32.06,0.6154910590917819,0.552927292896956,-0.48140491873535385,0.2892947790146374,100.55954172039935,-65.85578593201166,-25.523768083503487,1
1767376642.486173,2,right_wrist,1.1195,-0.2616,0.0395,2.52,-7.35,2.87,0.03343005829205814,0.6702098517569146,-0.19053592887078652,0.7165174426487543,-82.75134501146952,-76.69862518827061,-115.59753377688511,1
1767376642.5628312,1,left_wrist,0.9745,0.8125,0.1928,63.35,37.87,-20.51,0.6129248388634093,0.5692750775033016,-0.4553103504468741,0.3048631050386684,98.49457358578907,-64.85616338261684,-19.907562888630512,1
1767376642.5628312,2,right_wrist,0.9008,-0.2372,0.0322,1.82,-6.65,0.63,0.030853798566655804,0.6679530230875874,-0.19317708122255076,0.7180316269862332,-82.03628850984677,-76.20216327211233,-116.32748339858557,1
1767376642.613993,1,left_wrist,0.8843,0.7125,-0.0015,-1.33,74.48,-33.39,0.6342695775022679,0.5665639126504911,-0.42399383776220273,0.31134652957266173,90.19290663613828,-62.95481281690941,-10.836301861592794,1
1767376642.613993,2,right_wrist,0.9989,-0.2621,0.0566,0.0,-10.43,2.52,0.027519911581740716,0.6684103607202007,-0.19518587386675004,0.7171978240285574,-82.90698629281457,-75.8146190174869,-115.35487873810176,1
1767376642.6747751,1,left_wrist,1.1209,0.4548,0.1298,116.62,-13.79,35.56,0.5982138595428032,0.5919896894645807,-0.41077446889367064,0.3506461485937863,95.2180838023096,-65.04233013221348,-9.112536362609083,1
1767376642.6747751,2,right_wrist,1.0258,-0.2069,0.0312,2.24,-6.37,3.92,0.028574571489396697,0.6711273951373142,-0.19226737506648411,0.7154053185750331,-83.91389478901445,-76.22641116842904,-114.18580181271741,1
1767376642.728493,1,left_wrist,1.4708,0.5046,0.4177,2.66,45.85,36.05,0.6015775757451536,0.5766918675033885,-0.4068888007087121,0.3741288737505624,89.45029763320436,-67.08220616768817,-2.8208083089417384,1
1767376642.728493,2,right_wrist,0.956,-0.2625,0.0337,2.31,-4.97,3.22,0.023313354208895003,0.6705667665814603,-0.1954293656309414,0.7152650292871193,-84.4116569927954,-75.55284157136002,-113.52772076470744,1
1767376642.779605,1,left_wrist,1.1141,0.2474,0.0298,-0.21,-2.38,13.86,0.5974586264074132,0.572195293928104,-0.41357955474432306,0.380246876693794,89.52063489982613,-68.33283176064243,-2.9393683305335703,1
1767376642.779605,2,right_wrist,0.9531,-0.2123,0.0361,3.92,-12.39,5.6,0.022424117195905625,0.6736758265513976,-0.19264099227862072,0.713125155763127,-85.76675057574194,-75.80575062494165,-111.86366859482997,1
1767376642.855794,1,left_wrist,1.2205,0.3279,0.144,17.43,-10.15,38.15,0.5853340679839056,0.568648899119789,-0.4232982821230579,0.39349844058005173,90.87617327923333,-70.57311972258593,-3.5785566629386536,1
1767376642.855794,2,right_wrist,0.9487,-0.1942,-0.0166,11.13,-1.68,2.73,0.019919710206133163,0.6780995703725968,-0.1852753617923314,0.7109551449413133,-87.16502403325289,-76.30699315590441,-109.64121817982041,1
1767376642.908906,1,left_wrist,1.2581,0.3406,0.2645,-28.35,17.43,49.07,0.5883845058709738,0.5467276375236442,-0.43504839372716403,0.4069710784984593,85.32726567690867,-73.12811987517303,0.6327211838508381,1
1767376642.908906,2,right_wrist,0.9828,-0.2279,0.0478,10.08,-10.57,3.01,0.015934076100344228,0.6790616422547234,-0.1817594445805359,0.7110449321547277,-87.1772470038238,-76.28305083672167,-109.01079951013568,1
1767376642.9637399,1,left_wrist,1.1092,-0.1142,0.0059,-63.35,-2.59,28.07,0.5956252193797035,0.5232177430274793,-0.45629050021758555,0.40407025482123327,81.93123627484393,-75.1030380331629,0.8626058827395773,1
1767376642.9637399,2,right_wrist,1.0014,-0.2591,0.0195,2.1,-2.73,1.54,0.011800192036464938,0.6776289747609555,-0.18398357345590607,0.7119197797018384,-86.75677970137116,-75.73746268179129,-109.28328295977873,1
1767376643.028577,1,left_wrist,1.0399,0.2884,0.0966,-77.0,-12.95,-5.39,0.590438454724423,0.5243730569914786,-0.4631700645060936,0.40235409731910043,85.12769196175563,-75.67645082315559,-2.4596242790406646,1
1767376643.028577,2,right_wrist,0.9809,-0.2689,0.0283,-2.59,-6.72,3.08,0.008661446124883633,0.6770643090796574,-0.1876470228961723,0.7115458492041923,-87.14217894840962,-75.18919230326719,-108.951038027272,1
1767376643.084291,1,left_wrist,0.9365,0.163,0.1205,49.42,-14.28,9.59,0.5752638486080344,0.5349001592479482,-0.4599871348282111,0.41396275184335757,88.87971095991287,-76.43035049205244,-3.8658640029131885,1
1767376643.084291,2,right_wrist,1.0043,-0.2962,0.0078,-8.82,4.34,-0.77,0.00844721450324204,0.6754283640681245,-0.19362851553751093,0.7115006447995205,-87.26681132396622,-74.66730287416424,-109.31253166388703,1
1767376643.156238,1,left_wrist,1.0102,0.2157,0.0205,-85.12,-22.19,-14.42,0.5925676031493733,0.5170389216546456,-0.4782941947698293,0.390856818338236,88.12716217501166,-76.17249633818027,-7.5434162631162485,1
1767376643.156238,2,right_wrist,0.9633,-0.2484,0.0127,2.38,-7.35,3.15,0.0070331720689741604,0.6799576636357154,-0.18863060469438556,0.7085383582603967,-89.077054252203,-75.06204145150625,-106.96530163447599,1
1767376643.213582,1,left_wrist,1.0394,-0.0049,0.0576,62.51,-15.12,9.59,0.5721292334412036,0.5308430284135516,-0.47549559893286786,0.4059282631477925,94.0772182512362,-77.176458297826,-10.471955134508118,1
1767376643.213582,2,right_wrist,0.9711,-0.182,0.042,-4.41,-7.98,3.15,0.009547202960304797,0.681519806939785,-0.18783977493862683,0.7072169558313764,-89.88799454593216,-75.364184962871,-106.29101479136119,1
1767376643.276878,1,left_wrist,0.9853,0.0595,0.0473,-22.12,-11.62,-11.34,0.5806710222713523,0.5267623055979089,-0.48205544454967914,0.3911076395003416,94.80128965601988,-76.3785202741984,-13.167371605372349,1
1767376643.276878,2,right_wrist,1.0092,-0.2713,0.0146,0.84,-2.8,4.34,0.006509427616683957,0.6794409345419656,-0.18946360818777375,0.7088167499384543,-88.91328151035886,-74.9423303817952,-107.15682200855105,1
1767376643.3279512,1,left_wrist,0.9672,0.2718,0.0683,22.54,-5.74,-3.08,0.5772863186768032,0.5330502569720907,-0.47663094903900366,0.3942345345460634,95.39690964263474,-76.0719342235254,-12.711307531294175,1
1767376643.3279512,2,right_wrist,0.9482,-0.2699,-0.0161,4.2,-10.57,7.63,0.0004828942414565517,0.6838157719802419,-0.19254460325541964,0.7037913984707616,-91.98171574407974,-74.3045588601003,-103.85726141521587,1
1767376643.379663,1,left_wrist,0.9218,0.1825,0.0132,-3.78,-7.91,-2.87,0.5772136142542046,0.5311599280118026,-0.47911959335828536,0.3938756017504593,95.66175803086252,-76.2955147646264,-13.244213730723951,1
1767376643.379663,2,right_wrist,0.9272,-0.1586,0.0171,9.8,-13.44,7.49,-0.002593344696380185,0.6873613616186374,-0.18840135695837024,0.7014503274026631,-93.4014506561692,-74.4341169079969,-101.83915962505131,1
1767376643.460547,1,left_wrist,1.0565,0.3665,0.0795,13.79,-6.93,-7.14,0.5765554439823571,0.5371954481445234,-0.47404498163774544,0.39279285366612937,96.1444618246039,-75.61298470599108,-13.114149171572697,1
1767376643.460547,2,right_wrist,0.9936,-0.2542,0.0956,-6.51,-1.26,3.36,-0.008709709712505872,0.6879601699112579,-0.19334428598803596,0.6994661769150625,-94.32101399438227,-73.54485646351885,-100.83941448664683,1
1767376643.511702,1,left_wrist,1.0092,0.1625,0.0283,0.7,5.25,3.99,0.576604781449982,0.5327317770140764,-0.4744409418071281,0.39828328172998706,94.30424775031939,-76.2847751040444,-11.235278264768889,1
1767376643.511702,2,right_wrist,1.0224,-0.3953,-0.1576,-6.58,-3.78,2.94,-0.009510969773493983,0.6906737556380362,-0.19832818520287818,0.6953741695525876,-96.4619232993292,-73.09353802209779,-99.05304217051481,1
1767376643.5819662,1,left_wrist,0.9682,0.1352,-0.019,7.56,2.87,10.64,0.5780420735231168,0.52773259314623,-0.47637539659446343,0.40053982684337264,92.72381029760619,-76.77668151121429,-10.004676998800273,1
1767376643.5819662,2,right_wrist,0.8945,-0.3084,-0.0127,-11.48,3.36,-2.03,-0.008073187240610069,0.687729485685176,-0.20354173401827497,0.6968025119643407,-95.58085912703191,-72.77259341615726,-100.49098474594628,1
1767376643.6557472,1,left_wrist,0.9311,0.3538,-0.0122,0.35,0.91,7.91,0.578756495944287,0.528398523479914,-0.47532554259776116,0.3998769152385285,92.54246547932303,-76.60206601126794,-9.805064127999152,1
1767376643.6557472,2,right_wrist,0.9179,-0.2528,-0.0034,7.84,0.07,-0.98,-0.005258820594076783,0.6870571957376271,-0.19577977085131074,0.6997106801503858,-94.2211248845198,-73.62221517077559,-101.42408190998059,1
1767376643.707834,1,left_wrist,0.9775,0.0937,0.0303,19.39,-8.26,7.91,0.5701036193354863,0.5302375055961089,-0.4775493792376365,0.4071567772609752,94.87836187567397,-77.49704602986648,-11.236773929233385,1
1767376643.707834,2,right_wrist,1.0077,-0.3211,-0.0429,15.54,0.0,-1.89,-0.011612789282518765,0.6883841248169872,-0.19316586722883236,0.6990560689692662,-94.4718199991651,-73.32580333897421,-100.43830803533936,1
1767376643.758985,1,left_wrist,1.016,0.4011,0.0254,-3.22,-4.9,1.33,0.5721875870809854,0.5315491400323197,-0.47669268867668585,0.4035107897981583,94.99979509058257,-77.02979320663597,-11.566812198118466,1
1767376643.758985,2,right_wrist,0.996,-0.3143,-0.0005,6.72,-4.76,-4.55,-0.014279074058553595,0.6876434417311899,-0.1906184513607352,0.7004335879217595,-93.66810232541418,-73.30616641111187,-100.81188597475125,1
1767376643.8091688,1,left_wrist,1.0516,0.1732,0.0224,2.31,7.77,5.53,0.5721600114613047,0.5266569271027123,-0.4763964905047428,0.41025819462150015,92.3368943967823,-77.76339473619839,-8.773502402815186,1
1767376643.8091688,2,right_wrist,1.0697,-0.3514,-0.0229,-4.41,-2.03,-5.46,-0.015001436951255241,0.6880577872071912,-0.19374242966828611,0.6991532802606095,-94.29944561159391,-72.99963397683563,-100.38467571246042,1
1767376643.863613,1,left_wrist,0.9994,0.1391,0.0293,-20.09,-0.49,2.31,0.5757386220028399,0.5182555654359999,-0.48177439940530103,0.4096701552548643,90.39444188367017,-78.344477081301,-7.863107463521709,1
1767376643.863613,2,right_wrist,0.936,-0.3631,-0.0083,-6.37,-3.5,-6.79,-0.01475987542852933,0.6882339399991484,-0.19669307452113205,0.6981604574494371,-94.78832933323147,-72.7827159306399,-100.16380705105126,1
1767376643.9267242,1,left_wrist,0.9936,0.0176,0.0556,-3.85,4.97,20.72,0.5706849548431365,0.5110409739216568,-0.48565210726245833,0.42106749577760727,88.04217577683951,-79.95602551143747,-5.19201716069948,1
1767376643.9267242,2,right_wrist,1.0077,-0.2801,0.0171,-7.0,-14.7,-5.95,-0.010587844964643517,0.6915753302116341,-0.1948755931498159,0.6954386841240437,-96.49115090434623,-73.28950655553734,-98.64557598758974,1
1767376643.980999,1,left_wrist,0.9697,0.243,-0.061,10.43,-3.5,17.22,0.5640818040748996,0.513589629835364,-0.4882762022765291,0.4238204345328225,91.51430367723192,-80.4686001653619,-8.126853263003229,1
1767376643.980999,2,right_wrist,0.9726,-0.324,-0.0415,-7.77,-2.03,-5.81,-0.010037315275233147,0.6926171551234896,-0.19885409818764493,0.6932804456817515,-97.57636633118543,-73.01160157203334,-97.94022639825381,1
1767376644.057738,1,left_wrist,1.0126,0.1376,-0.0005,-7.0,-2.24,20.65,0.5595486687685828,0.5051224800354083,-0.4969206652279551,0.42991443324409573,91.72553350630575,-82.06340829392421,-8.704132466340953,1
1767376644.057738,2,right_wrist,1.0946,-0.3084,-0.0229,-3.78,-3.99,-3.78,-0.003290367871024935,0.6944802436794201,-0.1944689770832424,0.6927251847381065,-98.3552959238009,-73.92253723396614,-97.33835454698915,1
1767376644.110354,1,left_wrist,0.9823,0.1059,0.0508,31.71,-1.75,23.59,0.5486648766617009,0.5054718495132786,-0.4958209425986564,0.44455219642692767,91.34888260149341,-83.461877497897,-6.771989103067706,1
1767376644.110354,2,right_wrist,0.9321,-0.2957,0.019,-11.06,-2.52,-5.39,0.0003098281011502858,0.6932119652459633,-0.19664737860358655,0.6933879748991287,-98.03303537438045,-74.03950875302623,-98.13576261685283,1
1767376644.162498,1,left_wrist,0.9653,0.2074,0.0166,9.31,4.13,18.06,0.5466364688870258,0.5048576182264833,-0.4941284754953011,0.4496047218458628,88.98237418876289,-83.82075888916592,-3.9358896789826354,1
1767376644.162498,2,right_wrist,0.8974,-0.2318,0.0395,7.07,10.29,-3.85,0.0009218803096833582,0.688305375709583,-0.19202869695467195,0.6995425930219511,-94.54985865747526,-74.44039217490001,-101.28017456852335,1
1767376644.227801,1,left_wrist,0.9965,0.1362,-0.0586,10.22,-8.4,0.42,0.5436366730616073,0.5122927303867034,-0.4956930973236875,0.44306171055632076,97.88608286142413,-83.17245928805386,-12.70749008089595,1
1767376644.227801,2,right_wrist,1.0019,-0.2933,-0.0395,10.85,3.29,-1.47,-0.0034492551789501273,0.6889874908425873,-0.19059127254403893,0.6992562526936672,-94.64816018103772,-74.20522635281858,-100.7067747606539,1
1767376644.308286,1,left_wrist,0.9667,0.1932,-0.0024,-9.24,-9.59,-13.51,0.5488402116301855,0.5167694808490045,-0.4938584385613554,0.4333907802694046,98.93963267587768,-81.90054458899097,-14.256871390104923,1
1767376644.308286,2,right_wrist,0.9604,-0.1698,0.0454,2.59,4.97,-2.38,-0.00016523757082610884,0.6832367630563686,-0.18214203565246315,0.7071151088423848,-89.99475328091088,-75.05945583776631,-104.91883587154105,1
1767376644.360039,1,left_wrist,0.9174,-0.0264,-0.0151,19.39,-10.57,-1.82,0.540386252285341,0.5213026089423856,-0.4947220033143706,0.4375801957212893,104.20165751299461,-82.26677391601326,-18.580083426753593,1
1767376644.360039,2,right_wrist,0.9819,-0.204,0.0776,5.95,-10.85,0.0,-0.001234174876146954,0.6848859984213173,-0.17821256626959228,0.7065195872744199,-90.37451278789746,-75.31425453708759,-104.12299456594978,1
1767376644.424941,1,left_wrist,0.9389,0.0024,0.0459,13.09,-7.28,-4.34,0.5418808006670489,0.5296154359740204,-0.4911220276875517,0.4297346178358849,105.94349183979548,-80.91216667894618,-20.177754130226308,1
1767376644.424941,2,right_wrist,0.9775,-0.184,0.101,-3.01,-4.34,0.7,0.0006014846125569318,0.6844294871202994,-0.17735757175076672,0.7071776347702015,-89.95390691053045,-75.52110610750236,-104.62098353307462,1
1767376644.484062,1,left_wrist,0.9418,0.2733,0.0132,-5.04,-2.03,-7.14,0.5468247931683432,0.5313537325950287,-0.48792527440361494,0.4249409171071743,103.77893769582624,-80.13265648247337,-18.291985466703178,1
1767376644.484062,2,right_wrist,1.0121,-0.2298,0.0224,-6.37,-2.45,-0.07,0.004794257548990514,0.684075075327002,-0.17648472533735385,0.7077227198087604,-89.57864486642517,-75.92145517050845,-105.26313330905415,1
1767376644.556809,1,left_wrist,1.0019,0.1659,0.0117,-13.37,-4.9,-12.39,0.553071129967416,0.529806286331296,-0.48715908113173784,0.41963514370377414,101.49660223234815,-79.58301734581181,-16.721794315348358,1
1767376644.556809,2,right_wrist,0.9682,-0.2079,0.04,-7.91,-0.28,0.0,0.01170823847583577,0.6807897949567722,-0.17637968438599502,0.7108293600931279,-87.35902799714519,-76.40485924108656,-108.03560499151152,1
1767376644.610029,1,left_wrist,1.0702,0.0595,0.1186,53.06,4.41,-1.19,0.5423853759093017,0.5393190854491617,-0.4758144911135205,0.4342275879264084,101.36321749872725,-79.90683546073977,-13.931828491102342,1
1767376644.610029,2,right_wrist,0.9799,-0.2162,0.0795,-5.88,0.91,0.07,0.01424701057574048,0.6782917662009559,-0.176932450713,0.7130303012343406,-85.77047266845479,-76.48939179162144,-109.87738827772301,1
1767376644.676512,1,left_wrist,1.0458,-0.2435,0.1401,-9.38,10.85,23.38,0.5460434261482376,0.5168738239682783,-0.48572416374371796,0.4458139338470358,92.69000268934478,-82.44193712893785,-6.657402853264665,1
1767376644.676512,2,right_wrist,0.9906,-0.1713,0.0878,-4.34,-1.33,-0.7,0.01755350763501057,0.6771953749444306,-0.1757279919960686,0.7142954370235116,-84.70772937404561,-76.80640352810069,-111.10812195752781,1
1767376644.727916,1,left_wrist,1.0185,-0.1313,0.0864,-22.19,16.52,52.57,0.5429749082441787,0.4941270597400954,-0.499232253861135,0.46019979851643245,80.27720161306883,-85.51330120429522,4.682140481153823,1
1767376644.727916,2,right_wrist,0.9594,-0.2806,-0.0278,8.61,0.98,0.77,0.01258966513555539,0.6782572572083394,-0.1759603214883793,0.7133348152429556,-85.59806732124655,-76.42892708292143,-109.83422635509353,1
1767376644.778687,1,left_wrist,0.9955,0.2357,0.0005,-48.93,13.72,46.06,0.5491152152018978,0.4723025971551461,-0.5132643156797329,0.4603938307624171,59.65610386659425,-86.93861912414363,22.90572712649856,1
1767376644.778687,2,right_wrist,0.9765,-0.3099,0.0132,1.61,-4.76,-2.59,0.00905823273295191,0.6792924761080106,-0.17822230609918308,0.7118402137639407,-86.77650373925935,-76.0067359635148,-108.55813041598917,1
1767376644.828749,1,left_wrist,0.9711,0.1806,-0.0015,-23.73,8.68,47.46,0.5479588078407764,0.4572159788385927,-0.5238011790069942,0.46510968434904204,22.619102608530262,-87.94058346645693,58.809568087454075,1
1767376644.828749,2,right_wrist,0.9706,-0.2728,-0.0234,2.66,-10.22,-0.07,0.0056996118435520245,0.6841202235237686,-0.1797097113298646,0.7068602788701304,-90.1470708462486,-75.74359234218893,-105.03778474656998,1
1767376644.880262,1,left_wrist,1.0658,0.1532,0.0093,-37.87,10.85,43.33,0.5507731730709768,0.4390383832831957,-0.535594643470985,0.46586756456593326,-20.708016640445134,-87.50208373268504,100.29421855381347,1
1767376644.880262,2,right_wrist,0.9706,-0.2728,-0.0234,2.66,-10.22,-0.07,0.001913568012569788,0.6886040060354551,-0.1815187446610035,0.7020482935426007,-93.2332789622128,-75.36641105704611,-101.79502581303943,1
1767376644.9568799,1,left_wrist,1.017,0.0981,0.0605,22.33,7.77,38.08,0.5430737825523315,0.4361855258916342,-0.5337598629952164,0.479492922119054,-37.48658280473862,-86.41004400772442,118.23850120381317,1
1767376644.9568799,2,right_wrist,0.9438,-0.2489,0.0727,-0.98,-6.65,-0.63,-0.0003784754076376048,0.6869212628037721,-0.17920027684132991,0.7042913432979477,-91.79959547583955,-75.34114978177557,-102.84929678719358,1
1767376645.009046,1,left_wrist,0.9331,0.0298,0.0551,-32.76,8.19,26.18,0.5482413216892568,0.42298876729233675,-0.5409834826362141,0.4773351311727635,-42.81706264758651,-85.55618801362738,121.96950093995109,1
1767376645.009046,2,right_wrist,1.0097,-0.2747,-0.0059,4.27,-5.25,-0.21,-0.005377735154435643,0.6869442007988381,-0.18085974103808017,0.7038241961065936,-92.01240332518975,-74.80309767445951,-102.37033002504316,1
1767376645.079034,1,left_wrist,0.9838,0.0756,0.0224,-17.64,2.94,11.41,0.5501893388152168,0.41278604559662246,-0.5476041332231643,0.47647569223590475,-48.6665842263197,-84.83332547421237,126.68461932578565,1
1767376645.079034,2,right_wrist,0.9853,-0.225,0.0425,-0.91,-7.91,0.63,-0.004228593692865101,0.687690603972022,-0.17912390338515316,0.7035469987428291,-92.22251796526575,-75.04536239421054,-102.10784555865716,1
1767376645.1329432,1,left_wrist,1.0014,-0.0747,0.0322,5.18,-2.38,16.52,0.5430510995393104,0.41160570654662143,-0.5524464984908171,0.48008240119029366,-58.66841886005338,-84.39722275596131,136.95664438699205,1
1767376645.1329432,2,right_wrist,0.9784,-0.285,0.0264,-2.52,-3.08,-1.05,-0.004837302685414759,0.686183255240371,-0.18038455739262066,0.7046918136211927,-91.48704731598822,-74.87311680299135,-102.89988597593704,1
1767376645.212898,1,left_wrist,1.0082,0.0644,0.0439,0.28,-6.3,-11.9,0.5461032607923961,0.4188401534518731,-0.5496845045410038,0.4734882256992616,-54.592575119049535,-85.56134248536918,132.9062135824558,1
1767376645.212898,2,right_wrist,0.9609,-0.3001,0.04,-0.98,-3.57,-0.21,-0.010191390861181447,0.6863400088690695,-0.1837876620495076,0.7036018924479214,-92.03380745707021,-74.16976021373623,-102.20433566213008,1
1767376645.283842,1,left_wrist,0.9906,-0.0551,0.0508,30.66,-5.53,-3.71,0.5412873362850141,0.42557812451725435,-0.5455694074531946,0.4777502497759898,-54.96081064321303,-85.75738837938154,134.42335393266674,1
1767376645.283842,2,right_wrist,0.998,-0.2577,0.0107,-0.07,-9.73,0.63,-0.008922614249826502,0.6880131427149194,-0.18130527440469452,0.7026284223396654,-92.67286150428184,-74.49341731954394,-101.45971153177896,1
1767376645.3600352,1,left_wrist,1.0297,-0.1728,0.0966,-0.7,-4.97,-4.76,0.5403672201486375,0.4244079417456851,-0.5467089868736982,0.47852946622288545,-56.96984455449351,-85.58351874522485,136.39663169081058,1
1767376645.3600352,2,right_wrist,0.9697,-0.242,0.041,7.35,-3.5,-0.42,-0.012064011189851492,0.6864316455954811,-0.17562103295717957,0.7055659489673125,-90.88028065442161,-74.66763360529609,-102.52255215118419,1
1767376645.4309099,1,left_wrist,0.9916,-0.0429,0.0932,-18.9,-3.15,-8.68,0.5420960396614228,0.427303864178842,-0.5431953890125711,0.47799797154037404,-51.40895691036998,-85.890487539281,131.0756792765015,1
1767376645.4309099,2,right_wrist,0.9511,-0.225,0.06,5.11,-2.45,-1.26,-0.012195997357532604,0.6853337745664287,-0.17188138551513324,0.7075490544127557,-89.65862319210623,-74.93288712660141,-103.42148385878279,1
1767376645.506442,1,left_wrist,0.9697,-0.2713,0.0805,20.93,0.98,5.6,0.5354536990609478,0.42763323107364587,-0.5412749240258673,0.48727878310496275,-55.21919909673209,-85.14259479825296,135.92928190490733,1
1767376645.506442,2,right_wrist,1.0102,-0.2289,0.0747,-0.84,-6.44,-0.84,-0.010728332421045114,0.6866726266682294,-0.1653964301977973,0.7078203356402267,-89.48214917899425,-75.58841160822857,-103.1758656270817,1
1767376645.560842,1,left_wrist,0.9902,-0.019,0.1,6.09,-0.63,-4.83,0.5379436840270907,0.430608269616581,-0.5363253277461235,0.48738922205070223,-47.85245624229535,-85.39601947083418,128.88236821769348,1
1767376645.560842,2,right_wrist,1.0033,-0.2001,0.0605,0.91,-16.38,-0.14,-0.010222150489333058,0.6902197964159592,-0.16261310272457527,0.7050171055351581,-91.33981583035055,-75.90870456409925,-101.12671876625564,1
1767376645.624671,1,left_wrist,1.0604,-0.2391,0.1479,2.66,4.13,2.24,0.5408140115915361,0.4218893282315718,-0.53753692705205,0.49049327380303803,-47.03091787486599,-84.4325988346885,127.49941141181684,1
1767376645.624671,2,right_wrist,1.0209,-0.2416,0.04,1.4,-0.7,0.0,-0.009981902893128444,0.6882440825864796,-0.16089831600011875,0.707341626307722,-89.79498640106445,-76.03307887699526,-102.5487954799893,1
1767376645.676963,1,left_wrist,1.2302,-0.2118,0.1279,24.85,3.08,-25.9,0.5412671381535399,0.42991490237154445,-0.5277075806955092,0.4936879289089768,-37.16912330875688,-84.7151821749096,118.82368676516259,1
1767376645.676963,2,right_wrist,0.9853,-0.2313,0.0454,7.07,2.8,-1.19,-0.010853592081957634,0.6852186877271346,-0.15709794094507026,0.7111102491732496,-87.21528939169269,-76.19702896294723,-104.74284688179091,1
1767376645.7297559,1,left_wrist,1.2542,-0.551,0.1576,-19.53,2.52,-43.12,0.5528729569964118,0.43164329704998694,-0.524997828598184,0.4820714029073415,-20.77945581363926,-85.32988054558292,101.35556955295982,1
1767376645.7297559,2,right_wrist,0.955,-0.266,0.0,-2.73,2.45,0.77,-0.013209749740845692,0.6848549683149893,-0.16152154749090616,0.7104294226608314,-87.74053265244827,-75.65349254028622,-104.39441479636271,1
1767376645.806357,1,left_wrist,1.5084,0.1893,0.1396,26.53,0.98,-93.94,0.5696887354316168,0.4613941938501578,-0.49832831892619756,0.46285962144032194,39.69622576398436,-84.21409754870314,42.04909926276553,1
1767376645.806357,2,right_wrist,1.0077,-0.2586,0.0054,8.4,0.63,-0.07,-0.019027472797006287,0.6845362214514745,-0.1550536847222355,0.7120438691920284,-86.58361534735185,-75.68223014364901,-104.54245145651262,1
1767376645.874845,1,left_wrist,1.3444,0.2928,0.1869,50.82,3.64,-39.34,0.601083693085506,0.47190394388562024,-0.485843374363433,0.42421843104589374,61.983420206489434,-79.88125723131662,17.024667119763432,1
1767376645.874845,2,right_wrist,1.0326,-0.2494,0.0317,-6.16,1.12,-0.98,-0.015090429980496395,0.68257563167498,-0.1544581011059734,0.7141466802900106,-85.15017628373444,-75.99072809511566,-106.24626977349652,1
1767376645.9320698,1,left_wrist,1.22,0.2879,0.1869,-1.75,6.3,-34.09,0.6117055019195566,0.4776743147485122,-0.4743798707912681,0.4154604266821842,63.80431978030444,-77.76080527469196,15.059544081681732,1
1767376645.9320698,2,right_wrist,0.9653,-0.2157,0.0371,1.96,0.28,0.28,-0.01333066562528425,0.6812562134465019,-0.15109475573233885,0.7161582505177929,-83.64620290144005,-76.34774183829167,-107.61441814032378,1
1767376645.982602,1,left_wrist,1.0917,0.2103,0.1371,-25.27,-34.02,-6.72,0.612938809683274,0.476451312715009,-0.48490107858924786,0.40270473821297414,68.62881430508847,-78.00556281853575,8.747051921258688,1
1767376645.982602,2,right_wrist,0.9682,-0.2577,0.0229,2.94,4.69,-3.01,-0.016370660168664675,0.6796878847671353,-0.15284789850838706,0.7172125910132848,-83.07691017756403,-75.9199957475272,-108.08327106200915,1
1767376646.063972,1,left_wrist,0.9199,0.4826,0.2269,-36.33,-34.44,0.42,0.615534738941919,0.4735790402016345,-0.4975250219776636,0.3864048787781121,74.1441712010081,-78.09038632856942,1.2373659780162511,1
1767376646.063972,2,right_wrist,0.9945,-0.2518,0.0517,3.5,0.84,-3.64,-0.017622970360352406,0.6778166285041899,-0.15214195195455046,0.7191014361648504,-81.83212618621167,-75.80702878869971,-109.16877362182096,1
1767376646.129895,1,left_wrist,0.6295,0.1152,0.1161,-53.48,-27.09,13.93,0.6190498112409233,0.45596184460236827,-0.5350203516448767,0.35018473809573086,86.47158174492425,-79.03701681947486,-16.60107646542171,1
1767376646.129895,2,right_wrist,0.974,-0.2982,0.0049,6.3,6.65,-6.93,-0.019545153701344534,0.6771151781348261,-0.15127159106313587,0.7198957759588959,-81.3262226711497,-75.69437094031343,-109.44694957313705,1
1767376646.205757,1,left_wrist,0.4363,-0.0634,-0.1108,-0.28,-28.98,38.15,0.6033313239481962,0.45064516912159097,-0.5534932141556799,0.3557464082375311,97.1721577160821,-81.30625268052557,-27.41350563553298,1
1767376646.205757,2,right_wrist,1.0077,-0.2723,0.0551,5.18,4.13,-5.95,-0.022847317072377096,0.6774766421849131,-0.1468756524291231,0.7203686154462651,-80.8877801531672,-75.77877081300274,-109.2531694647012,1
1767376646.258452,1,left_wrist,0.6173,0.366,-0.0961,-35.28,-30.38,19.67,0.6005572275443053,0.44445836075801093,-0.5693936299838767,0.3428974717468524,106.88139716036522,-81.38385912889247,-39.00171183039079,1
1767376646.258452,2,right_wrist,0.9384,-0.2904,-0.0342,-0.77,2.45,-4.83,-0.022525976008121323,0.6789051715064024,-0.1478771904427217,0.7188272984893597,-81.9392068259734,-75.78217453301448,-108.31015532267932,1
1767376646.31126,1,left_wrist,0.3992,0.0717,-0.0708,-13.58,14.49,-7.14,0.6058972064365988,0.44253947317211406,-0.5678032571726475,0.33859540909617414,103.51789253810328,-81.02058594377999,-36.22784335525842,1
1767376646.31126,2,right_wrist,0.9872,-0.2494,0.041,-3.78,-7.0,-5.46,-0.02090344729991893,0.6789053456996759,-0.14754198539407093,0.7189450187721999,-81.80546376090493,-75.93554474702631,-108.54771901392108,1
1767376646.3850071,1,left_wrist,0.6403,0.1074,-0.0059,17.5,26.46,-22.82,0.60797398619017,0.462851010870952,-0.5453044996062513,0.3446441303155312,97.0675980803086,-79.14279259599432,-27.07020823627831,1
1767376646.3850071,2,right_wrist,0.9955,-0.2259,0.0405,8.82,-0.35,-2.38,-0.019550537009678,0.6789556898001865,-0.14057110769291803,0.7203309735618567,-80.45479462264205,-76.56870316731049,-109.43132302181984,1
1767376646.456765,1,left_wrist,0.6744,-0.0278,-0.0698,38.85,19.95,-16.52,0.6046080179060791,0.47227833559026555,-0.5337082232619735,0.35574970251332383,94.7150101557395,-78.9302873813252,-22.649618703631955,1
1767376646.456765,2,right_wrist,1.0746,-0.124,0.0952,-0.7,0.49,0.21,-0.01689737270467821,0.6802832050448988,-0.14154004046717394,0.7189545581426341,-81.37386793924777,-76.75571430372281,-108.80695908993953,1
1767376646.5090182,1,left_wrist,0.3509,0.2015,0.0742,38.5,12.46,-27.09,0.6061707772336355,0.4875471774949209,-0.51594312520369,0.3586884861544287,92.02161182625133,-77.22719700346067,-17.978492605448388,1
1767376646.5090182,2,right_wrist,0.9238,-0.2562,0.0068,-2.94,3.22,-4.34,-0.017007073516224987,0.6807168096408246,-0.14416289711216576,0.7180198072609544,-82.16263114487646,-76.56465401215512,-108.22606004657422,1
1767376646.575548,1,left_wrist,0.2367,0.4943,-0.0361,-17.43,63.77,-68.88,0.651765434843779,0.4932255304599803,-0.4505669674105861,0.359054037609659,71.40756066848287,-70.30792929888196,4.011977834692319,1
1767376646.575548,2,right_wrist,0.9994,-0.2167,0.0146,3.08,-16.03,-7.91,-0.01428485916093656,0.6885833850744375,-0.13900575194392936,0.7115660654673492,-86.56351525859614,-77.41498598109224,-103.61706921926901,1
1767376646.625854,1,left_wrist,0.71,0.1454,0.1405,72.31,-24.08,-9.87,0.6329340833702091,0.516240819872461,-0.4444290794585048,0.3679302316165232,77.5697640576687,-70.47055734931389,1.1803601151653622,1
1767376646.625854,2,right_wrist,1.0385,-0.2445,0.0366,7.91,0.63,-7.0,-0.01579159840540925,0.6862076466465342,-0.13525857341226552,0.7145451766138416,-84.24944793237984,-77.52247414735768,-105.50020767786475,1
1767376646.679059,1,left_wrist,1.6411,0.1952,0.2816,129.64,-63.63,58.17,0.5803126973037982,0.5468312526603127,-0.45458676248486957,0.39694285462200746,92.37335480028636,-74.09689412973994,-7.6470003934350546,1
1767376646.679059,2,right_wrist,0.9906,-0.1928,0.0029,1.19,-5.81,-12.81,-0.010084045482555587,0.6910240924027272,-0.12898952551234444,0.7111580120154684,-86.60952704397862,-78.59478127049678,-103.08468000052484,1
1767376646.7628539,1,left_wrist,1.7387,0.326,0.4743,-106.47,13.09,54.04,0.5996014892571133,0.5037850683521535,-0.4811298469048069,0.3939450842483314,82.5502452634209,-76.88072094901369,-3.1195139270115986,1
1767376646.7628539,2,right_wrist,1.0502,-0.1898,0.0044,-13.93,-17.29,-16.31,0.006788616112939336,0.7018683663220114,-0.12628179751407764,0.7009904554730794,-95.83961133521412,-80.30583021661914,-94.99772762544963,1
1767376646.827668,1,left_wrist,1.7436,-0.2494,0.3675,17.01,-0.28,0.56,0.6087725710077393,0.48724246408170524,-0.519673191967539,0.34918549731408427,93.70918762688292,-76.65591417061866,-20.615932256895828,1
1767376646.827668,2,right_wrist,0.9853,-0.1405,0.0415,-4.34,-10.64,-14.56,0.013100651663446433,0.7037971353255082,-0.12171409150171568,0.6997739957754312,-97.607816695985,-81.18449117703966,-93.3651818605232,1
1767376646.909128,1,left_wrist,1.2327,-0.1449,0.1308,-101.01,-15.96,-44.94,0.6322393367925594,0.4696196867543331,-0.5304427794447086,0.31362593731998417,90.83915378873387,-74.86282621024382,-22.906470242039166,1
1767376646.909128,2,right_wrist,1.0487,-0.142,-0.0015,-4.48,-7.14,-30.59,0.028473005208957295,0.7123659130059181,-0.11181599493510125,0.6922581001608352,-109.2678783753316,-83.04881499259564,-82.13930143591361,1
1767376646.9790359,1,left_wrist,1.039,-0.3109,0.0927,-40.67,3.01,-1.54,0.6507130146453235,0.44446711315819754,-0.546514297458821,0.2834496085111152,88.39170742548575,-74.41138645849894,-25.79232894092855,1
1767376646.9790359,2,right_wrist,1.0692,-0.2572,-0.0571,-12.39,0.91,-46.34,0.04276097595181399,0.7139143737846193,-0.10458770107578465,0.6910565668764355,-116.27683748081054,-84.65692757641585,-75.69737004221139,1
1767376647.0306501,1,left_wrist,1.0033,-0.0859,0.0947,-85.19,-6.3,32.83,0.6605689308891081,0.40984463520249614,-0.5661331268474143,0.2741702850888899,84.30449253669691,-76.5749218011198,-26.01600037302884,1
1767376647.0306501,2,right_wrist,1.1229,-0.0927,-0.0532,-23.94,15.05,-57.75,0.06859500399805468,0.7137565801137187,-0.09336644578143063,0.690745232754464,-139.46850691150638,-87.26013008293172,-53.6876163565021,1
1767376647.1067321,1,left_wrist,1.1234,0.2123,0.223,-75.39,-10.01,55.86,0.6662303149349319,0.37313343822386213,-0.5860259504300986,0.271075985958624,79.06014823412988,-79.46754914436227,-24.61403746729423,1
1767376647.1067321,2,right_wrist,1.2376,0.0249,0.042,-91.42,23.45,-70.63,0.154829871901276,0.6912388969797657,-0.09172597406772456,0.6998591599390256,72.17066584731162,-84.83755409307021,87.72807009756062,1
1767376647.159662,1,left_wrist,1.1878,0.1967,0.3743,-135.52,-13.37,39.76,0.6809820116288935,0.32293713000869395,-0.6093829707661861,0.24622653155131613,70.77561188662578,-81.489616987086,-23.17227440108582,1
1767376647.159662,2,right_wrist,1.2698,0.0551,0.0815,-91.0,35.28,-47.11,0.19624598397378104,0.673185610499263,-0.10481252034124373,0.7052113039157933,58.375959880889845,-82.1438137577695,96.98282522452888,1
1767376647.216383,1,left_wrist,1.0599,0.3445,0.4089,-135.17,-24.99,14.07,0.6930219786280987,0.2810844196547943,-0.6297457379191808,0.21007710902987334,68.66567863729652,-82.28755734588417,-27.924394860482373,1
1767376647.216383,2,right_wrist,1.0258,-0.0854,0.1264,-42.91,-64.96,11.2,0.19954163194356495,0.6872168473455543,-0.12999889371447723,0.6863063670684892,77.25850559418366,-84.3623014741947,75.75831454041612,1
1767376647.276839,1,left_wrist,0.8911,0.264,0.3235,-110.67,-10.64,-11.13,0.7144817736177373,0.22324633966087512,-0.6497927107938856,0.13208444266910122,69.23882561475877,-80.93303570733255,-40.04166540233392,1
1767376647.276839,2,right_wrist,1.0604,0.0571,-0.101,67.62,-111.51,60.34,0.15314454793705373,0.7236884670583209,-0.1385865987022622,0.658494878297524,155.49394088760317,-84.585345544999,0.6695914586954987,1
1767376647.328971,1,left_wrist,0.914,0.163,0.2913,-54.11,-27.02,-8.54,0.7146368767905124,0.20970193513806856,-0.6579410497552589,0.11150250121588887,73.17092456212298,-80.80221829240773,-46.82876262085248,1
1767376647.328971,2,right_wrist,0.7959,-0.5597,0.1781,165.2,-93.24,145.53,0.05056080348524569,0.7471129160206286,-0.14473857056884926,0.6467740270417216,-144.7900476348746,-78.8317551457501,-51.16168686112213,1
1767376647.379167,1,left_wrist,0.9223,0.2362,0.2738,-45.71,-21.91,-16.66,0.7154754232127696,0.20139610678463366,-0.6628244236908258,0.0905445211452647,76.5529443291339,-80.04366309919658,-52.63457460603147,1
1767376647.379167,2,right_wrist,0.8701,-0.5295,0.1381,-98.49,47.39,113.12,0.05132704218840141,0.7207847682704215,-0.20980542957905282,0.6586475038202863,-122.128974886603,-76.1734304013667,-79.31000669382033,1
1767376647.4602308,1,left_wrist,0.8847,0.06,0.2962,-106.33,-26.6,-45.29,0.7200851926877253,0.18060601335671045,-0.6685147847552655,0.044122168746541575,78.4938587464803,-78.15672435504334,-60.108006884322855,1
1767376647.4602308,2,right_wrist,0.893,-0.2211,0.0444,-136.78,57.19,129.64,0.07308246812361195,0.6436935003392534,-0.36188293624224593,0.6703419805820393,-103.04339220171774,-66.33160145384113,-113.58724014007922,1
1767376647.5360892,1,left_wrist,0.8252,0.1176,0.2216,-83.58,-31.29,-63.98,0.7202876177883812,0.16286402165099717,-0.6731509095481678,-0.03910129264969028,81.93848280027308,-73.13443857322538,-71.7873017605648,1
1767376647.5360892,2,right_wrist,1.0394,-0.02,0.1918,-142.38,54.53,145.39,0.08131908682055443,0.597397840738661,-0.4385261772272633,0.6664816710802324,-101.41195194777401,-60.18444719090539,-123.30368037857303,1
1767376647.586287,1,left_wrist,0.9116,0.0947,0.2908,-75.11,-31.64,-66.15,0.7165958139798407,0.1560710506227205,-0.6747165278150725,-0.08300526270823086,83.07040520118922,-70.23519064289556,-77.05806853256887,1
1767376647.586287,2,right_wrist,0.895,-0.1523,0.1166,-132.44,48.09,127.33,0.09037527893879443,0.5525523965677758,-0.5044304019757437,0.6573188933588722,-101.98071083410507,-54.84350353542755,-130.37926558664952,1
1767376647.6626592,1,left_wrist,0.9662,0.2162,0.2542,-69.02,-28.98,-57.26,0.7123711955097338,0.14841623165004972,-0.6749421085776783,-0.12228267276907488,83.2069058980836,-67.7168340931293,-81.04853900454533,1
1767376647.6626592,2,right_wrist,0.9599,-0.2059,0.0351,-114.73,53.9,39.62,0.14362372494442452,0.4773319844520837,-0.590883009151248,0.6343371908917923,-104.1106704237631,-50.833010427751674,-142.79673987484955,1
1767376647.732613,1,left_wrist,0.9941,0.2367,0.1035,-52.43,-34.23,-46.9,0.6956833373680305,0.1328686446483346,-0.6823446453941187,-0.18104254273448578,85.56469188374557,-64.32707504446793,-89.56901908424764,1
1767376647.732613,2,right_wrist,0.8262,-0.2372,-0.0298,-90.37,20.86,-8.12,0.1733711848591714,0.4692380934673047,-0.6100487544713505,0.6144904889969005,-107.46419497655052,-52.01896000642305,-144.2616201486686,1
1767376647.8149629,1,left_wrist,0.9814,0.3772,-0.0571,-61.74,-33.6,-43.19,0.6838957284876434,0.12274195623412526,-0.6872674260242254,-0.21185969381222966,86.85866916299825,-62.62677779323282,-94.29600237145408,1
1767376647.8149629,2,right_wrist,0.8286,-0.4534,-0.0761,-45.43,39.55,-27.3,0.23146906258993408,0.4569915777825745,-0.6120902925731043,0.6024336018494502,-107.61556330024236,-56.50916479229476,-149.44102423120873,1
1767376647.878149,1,left_wrist,0.9755,0.5553,-0.0586,-18.48,-36.26,-32.41,0.652302428104034,0.12689078876044152,-0.7056493454057169,-0.24588467082316884,93.13625965918558,-59.11424569345875,-103.15204501034025,1
1767376647.878149,2,right_wrist,0.8247,-0.449,-0.1976,-47.95,19.46,-33.67,0.25694724040571526,0.4587090800897655,-0.6155170458204553,0.5871140109003942,-110.13351363016486,-58.75309233802228,-149.53871234371297,1
1767376647.934601,1,left_wrist,0.7364,0.59,-0.1269,-13.86,-26.39,-37.94,0.6380021464331291,0.13446687070544427,-0.7107792865144469,-0.26394076549752415,94.86887912378272,-56.717482400940376,-105.83529202553342,1
1767376647.934601,2,right_wrist,0.7237,-0.4089,-0.1566,-7.98,20.37,-33.74,0.27274591038254353,0.4637361641908088,-0.6095021539758478,0.5822933647999046,-110.75019482190442,-60.75509131153592,-149.5400851716126,1
1767376648.013422,1,left_wrist,0.5822,0.5422,-0.1196,18.97,-10.08,-22.82,0.6283515637657491,0.14858890790225543,-0.7154393761156936,-0.2669122474985737,96.80564048184512,-55.06222698598865,-106.86968872246557,1
1767376648.013422,2,right_wrist,0.9004,-0.4329,-0.2338,-1.96,18.62,-68.11,0.3060313989959604,0.4831859120927468,-0.586598271548088,0.5733922087022736,-112.36880411115993,-65.94365855195,-148.0154985221956,1
1767376648.0809212,1,left_wrist,0.6046,0.4934,-0.0459,22.19,26.74,5.32,0.6333293815780557,0.17249331942539517,-0.7087831950384305,-0.25839181801032407,96.27048075995256,-53.96372749781645,-103.59463198317363,1
1767376648.0809212,2,right_wrist,0.9926,-0.4138,-0.181,26.25,5.6,-71.75,0.3177055331273703,0.5042215879180891,-0.5661346447079095,0.5694869169340618,-114.74037396590624,-69.07093905053671,-144.17971667505492,1
1767376648.158408,1,left_wrist,0.6183,0.466,-0.0586,34.37,35.35,9.52,0.6400071741845279,0.18592162430201073,-0.7043134178519485,-0.2444720352984038,96.00397005509173,-54.15713894173004,-100.99172766393713,1
1767376648.158408,2,right_wrist,0.7657,-0.2996,-0.2015,85.33,-58.31,-43.61,0.2857649659629516,0.5686060488400903,-0.5336332922168848,0.557010821159179,-128.73125910569107,-69.78902165372695,-123.37459543978142,1
1767376648.210609,1,left_wrist,0.732,0.4714,-0.0244,2.73,45.29,-0.07,0.6561292203175515,0.18868294948959702,-0.690813722301648,-0.2380537584184082,92.54752016042666,-54.755084391295526,-96.74587644861404,1
1767376648.210609,2,right_wrist,1.0126,-0.1571,-0.1327,21.42,-59.57,-48.37,0.28138240235405565,0.5970958079444171,-0.5209033308820512,0.5412580342652185,-138.29788345290058,-69.96974191588195,-112.05272676421787,1
1767376648.2836459,1,left_wrist,1.0536,0.7052,0.0566,47.25,45.08,11.13,0.6798013942023268,0.2145169711418617,-0.6724572425377213,-0.19913259525064883,89.6346620009758,-55.97977191167602,-88.3310330080636,1
1767376648.2836459,2,right_wrist,0.9789,-0.486,-0.202,64.89,-35.35,-51.94,0.26593193751358735,0.6224327132626596,-0.49742771992381807,0.5426079482666513,-142.2589813616351,-70.05789021253094,-104.20837399181664,1
1767376648.3606222,1,left_wrist,1.0453,0.5368,0.019,44.73,20.79,-1.12,0.6827821080377822,0.22645271883338422,-0.6706150270633418,-0.1811166600655059,90.20864424685254,-56.48477864351764,-86.3714942701181,1
1767376648.3606222,2,right_wrist,0.8935,-0.2528,-0.12,32.48,-32.69,-22.75,0.24405665418123276,0.6508364241155347,-0.4635303863818516,0.5495342386922377,-145.29479962517686,-70.31676636469133,-95.74167048485337,1
1767376648.4289,1,left_wrist,0.9316,0.3621,0.0776,44.8,7.77,-19.46,0.6785653989719579,0.26396425763207937,-0.6679396619543783,-0.15404050765640792,93.21091564869269,-55.60462594807487,-83.87677878712358,1
1767376648.4289,2,right_wrist,1.0882,-0.2957,-0.122,49.91,-6.09,-3.15,0.22946452879352738,0.6560614058109043,-0.4506089438000521,0.5602508738042143,-142.63536039597196,-70.37576681465926,-95.78613934258289,1
1767376648.50769,1,left_wrist,0.8106,0.3904,0.0395,35.7,16.24,-19.32,0.6797948146391153,0.27819037083122145,-0.6629222334707081,-0.1449939306894132,93.38195704936042,-55.1479453705432,-82.05163574114073,1
1767376648.50769,2,right_wrist,0.9506,-0.1879,-0.0576,25.13,14.0,15.82,0.19143987964569129,0.6523031517100747,-0.4425888873071716,0.5847789732732754,-132.18475956863978,-68.80647480942118,-102.08729339148105,1
1767376648.566704,1,left_wrist,0.8374,0.3406,0.0273,43.12,15.96,2.17,0.680744289509398,0.28810978554060257,-0.6614140107432569,-0.12693096615330618,94.18122569371953,-55.829260176283746,-80.48559385363345,1
1767376648.566704,2,right_wrist,1.017,-0.1786,-0.1684,36.12,-20.37,1.47,0.17984895064057638,0.6599801088611073,-0.4328672527378711,0.5871171538699347,-132.23060722118475,-68.53992502259378,-100.10044758975285,1
1767376648.62866,1,left_wrist,0.9565,0.4324,0.0493,12.74,13.16,30.94,0.6910370098145189,0.279098257698674,-0.6603871506914458,-0.09198274195634094,93.16124910041967,-59.469569367825315,-77.39536587759383,1
1767376648.62866,2,right_wrist,0.8418,-0.2948,-0.2801,-5.46,-21.07,-13.72,0.178125002232124,0.6680971888138283,-0.4343984450492856,0.5772483181592031,-135.70967967526468,-67.83032042676528,-96.67087201219401,1
1767376648.7185018,1,left_wrist,0.9487,0.5266,-0.0156,11.62,5.46,24.15,0.6939689443689327,0.27269392396536346,-0.66178254406654,-0.07803199633906462,92.92742311028441,-61.15824511514746,-76.58579084733395,1
1767376648.7185018,2,right_wrist,0.8023,-0.3899,-0.3192,-51.66,-4.62,-12.25,0.18576947435060215,0.6708802012943808,-0.44921630213708774,0.5600126532543641,-140.11108188274534,-66.67940684687345,-94.46499455077216,1
1767376648.7795,1,left_wrist,0.6871,0.3943,-0.08,27.86,-3.64,25.06,0.6823835894630332,0.2818843762984844,-0.6724496874355073,-0.052012047625999695,97.92544627155151,-62.67468436758044,-78.66629430972976,1
1767376648.7795,2,right_wrist,0.7803,-0.1498,-0.3845,-25.06,33.11,-22.12,0.20537545009849745,0.6673165094766862,-0.4463868378145009,0.5596859759746191,-142.04097720243183,-68.48618626165512,-93.91194191202214,1
1767376648.858965,1,left_wrist,0.8301,0.5036,-0.0547,5.95,-5.88,29.47,0.680638845174721,0.27785198411642975,-0.6763352516970639,-0.04582209809311091,98.94143832683548,-63.53626078221344,-79.53503397881519,1
1767376648.858965,2,right_wrist,0.9521,-0.1742,-0.2835,46.48,15.47,-4.06,0.23570399956988466,0.6425468568636549,-0.4209503093105831,0.5952965634141708,-132.25434679494924,-74.46161766099492,-103.63599196305657,1
1767376648.915633,1,left_wrist,0.8369,0.306,0.0215,-2.87,-13.58,15.82,0.679338508294455,0.26941470800384193,-0.681315802392638,-0.04151726953383528,99.87262720452598,-64.59760945301183,-80.85607931486571,1
1767376648.915633,2,right_wrist,0.9692,0.0664,-0.0303,57.82,47.46,-1.68,0.23170671458010553,0.6363294816612878,-0.39760691255111763,0.6191167355828286,-122.54654218840703,-76.4536723627768,-110.69964167741105,1
1767376648.982893,1,left_wrist,0.955,0.2699,0.0078,-28.0,-16.87,30.03,0.6845600708058145,0.22779492855534025,-0.6919042096705952,-0.02748717197011647,99.92762753632334,-69.19216576948315,-83.36811572916162,1
1767376648.982893,2,right_wrist,1.0726,-0.385,0.0825,32.55,-4.69,-2.31,0.2216814948203556,0.6388208417355264,-0.3887475248994187,0.6258119596996384,-120.21871396957708,-76.389942743161,-111.31381478887515,1
1767376649.0588548,1,left_wrist,1.1341,0.203,0.0249,-17.78,-0.07,34.58,0.688033046876834,0.20893173082451802,-0.6946747341286353,-0.019623252109713406,99.46049289854612,-71.39103796768237,-83.86854050520073,1
1767376649.0588548,2,right_wrist,1.0531,-0.0683,0.0503,27.16,3.99,-4.69,0.2181040624612264,0.6389682477982905,-0.36714400173595396,0.6398089388503428,-114.26859676457593,-77.90086184561082,-114.91496764391383,1
1767376649.1099148,1,left_wrist,1.0292,0.3992,0.0234,-18.83,-0.49,16.31,0.6919339379129862,0.1990476955071529,-0.6936284275081984,-0.022069096719698672,97.71807203225048,-72.00889761439059,-83.16006300936334,1
1767376649.1099148,2,right_wrist,0.9087,-0.0698,-0.0547,4.13,25.76,1.33,0.22422314148187192,0.6328652045088263,-0.3607649003184384,0.6473440371581631,-108.50489720506134,-78.85664719088479,-120.6108999489734,1
1767376649.1626408,1,left_wrist,1.0956,0.2796,0.0005,-27.72,-1.47,-6.65,0.6956060219608567,0.18982038784056646,-0.6922381592501625,-0.030113343384549962,95.6871668655902,-72.10436401398844,-82.55822061918731,1
1767376649.1626408,2,right_wrist,1.0326,-0.3445,0.1674,30.17,6.44,-3.36,0.2171985682497439,0.6320050569614662,-0.3507344522075307,0.6560333329641708,-103.5934836742015,-78.9890830917417,-123.99462922680326,1
1767376649.212926,1,left_wrist,1.0414,0.2469,-0.0332,29.96,-3.22,10.08,0.6923174941806433,0.19245378957091833,-0.6953002705034946,-0.01468196066589086,98.12557256934838,-73.15375179764477,-83.52444374113821,1
1767376649.212926,2,right_wrist,1.18,-0.1854,-0.041,9.1,5.18,-4.41,0.22016349090602225,0.6326187547471689,-0.3431778216776808,0.6584455415011763,-101.71650263761802,-79.8015672473124,-125.43050901745168,1
1767376649.2780402,1,left_wrist,1.0131,0.1898,0.0166,-15.82,-3.78,3.99,0.6949167797726663,0.17399517342196424,-0.6974639644645643,-0.018983337157130322,97.1087234876054,-74.31293375068427,-84.40371908897598,1
1767376649.2780402,2,right_wrist,1.0643,-0.2274,0.0229,1.47,14.84,1.82,0.22079870687082853,0.6255674265381612,-0.34198856008058814,0.6655502615675228,-95.29327482485313,-79.64546078729447,-131.81068399636908,1
1767376649.360456,1,left_wrist,1.2063,0.2201,0.1357,29.75,8.05,-5.81,0.6972589324686886,0.18302382791763336,-0.6929921604620212,-0.009701806284469733,95.83810546358755,-74.33112943720333,-81.62535496588703,1
1767376649.360456,2,right_wrist,0.9955,-0.2162,0.001,10.64,6.23,-3.78,0.21616482738397416,0.6225020716288954,-0.33880104367860214,0.6715488001791681,-91.41424315954332,-79.28211020309868,-135.0108128041001,1
1767376649.4106722,1,left_wrist,1.2293,-0.0063,0.2186,-30.17,13.72,-32.69,0.7052933797077264,0.18119180479291744,-0.6848955925790633,-0.025471664298037662,90.75440284433394,-73.11193949507052,-77.971867459657,1
1767376649.4106722,2,right_wrist,0.9828,-0.2128,0.1347,3.36,5.67,-4.83,0.21780988982804358,0.6195361863235986,-0.33520589311053095,0.6755522000206039,-87.61462415105564,-79.44527012384467,-138.6313162014559,1
1767376649.478919,1,left_wrist,1.442,0.1991,0.1322,-37.66,7.63,-76.44,0.7156522102959949,0.20859837730000805,-0.6625540301244228,-0.07314908100684502,84.94017757357602,-66.60639584350078,-73.71423732142783,1
1767376649.478919,2,right_wrist,1.0058,-0.1176,0.0376,-10.08,-2.87,-1.75,0.22384982526531574,0.6199418988756585,-0.33472820513486296,0.6734391779769897,-87.60161014322148,-80.0119754897987,-139.11493822637578,1
1767376649.5374,1,left_wrist,1.1224,0.3816,0.0834,-1.82,22.12,-50.82,0.7220203569234827,0.2201434235259354,-0.6504105217568333,-0.08479168859252101,82.41674201747259,-64.40717242781037,-71.15193255023785,1
1767376649.5374,2,right_wrist,0.9789,-0.1786,0.1366,4.27,1.12,-2.8,0.22433014711002758,0.6182331445773963,-0.33154108313969144,0.6764201905872547,-84.74650898214018,-80.10358534432187,-141.72690779914913,1
1767376649.6077409,1,left_wrist,1.1619,0.2577,0.0351,2.66,22.47,-18.2,0.7274350820389606,0.22368313431676481,-0.6432096173102865,-0.08417508562961978,80.51084712058031,-63.913262655497476,-68.88742618047155,1
1767376649.6077409,2,right_wrist,0.9755,-0.1981,0.0869,-7.28,2.24,4.41,0.2224885595626427,0.6131956690850402,-0.33205668315389203,0.6813429910492409,-81.3088939207146,-79.53018215640046,-145.06906336338454,1
1767376649.682199,1,left_wrist,0.8018,0.3753,0.0547,10.85,23.87,42.77,0.7357793093277153,0.21880942172992085,-0.6384313883859666,-0.0561836920379452,77.25503202082483,-66.19183766680565,-63.75690902055891,1
1767376649.682199,2,right_wrist,1.0155,-0.2284,0.1093,-2.03,-5.11,-1.05,0.22217946913960362,0.6120388335144382,-0.3328394276440588,0.6821016531050962,-80.87369455330462,-79.37207415587316,-145.5524528717952,1
1767376649.757867,1,left_wrist,0.7867,0.6715,0.0927,-82.6,5.6,37.31,0.7454154352629878,0.1853133782172723,-0.6364893907584147,-0.06997168125302436,71.66400921266958,-67.36341647535832,-62.12165893327949,1
1767376649.757867,2,right_wrist,1.0155,-0.2508,0.1137,-2.87,5.81,-4.27,0.2248172242484629,0.6057621768366848,-0.33095754521138265,0.6877328726060381,-75.57328852426434,-79.11707953320447,-150.9301096444253,1
1767376649.835358,1,left_wrist,0.6173,0.5573,0.1118,-21.21,-21.7,34.72,0.7441103772462532,0.1482968069127108,-0.6475167658437295,-0.07092137537590405,69.40278783331996,-70.4951210532122,-63.037971316884175,1
1767376649.835358,2,right_wrist,0.9687,-0.2377,0.0468,-0.21,7.56,-3.15,0.2236255323787237,0.6021914341312143,-0.3326192418452357,0.6904502428717253,-74.28380916533753,-78.61728345120325,-152.28218557739626,1
1767376649.908473,1,left_wrist,0.6964,0.3875,0.0386,-11.41,-17.5,27.93,0.7393401869301317,0.13975922472250285,-0.6550311726159348,-0.06912025749717848,70.9198870299329,-71.67007480127948,-65.11962789043616,1
1767376649.908473,2,right_wrist,0.9223,-0.1552,0.0849,-2.38,-7.84,-1.82,0.22707574219969973,0.6008745636923873,-0.3266126633243078,0.6933329172685666,-70.27367872573933,-78.97500608528769,-156.05077861977153,1
1767376649.9621089,1,left_wrist,0.6486,0.2874,0.1425,-37.87,-12.95,24.08,0.7401228308158612,0.12202333584969792,-0.6570197023085659,-0.07519050200385462,69.0699897976341,-72.59238436118338,-65.23026790329277,1
1767376649.9621089,2,right_wrist,0.9736,-0.2411,0.0864,10.57,-1.68,-2.03,0.2221145247792377,0.6001629607193144,-0.3253429607301793,0.6961476254114792,-69.97775826998053,-78.55939027877004,-155.81282388442918,1
1767376650.028297,1,left_wrist,0.609,0.2245,-0.0659,7.84,-5.6,13.23,0.7337554443331916,0.10806709903140975,-0.6673021079769492,-0.068061345181067,70.9640651461469,-74.70115232162479,-67.6929101568672,1
1767376650.028297,2,right_wrist,0.9682,-0.1581,0.1308,-4.41,-8.05,-2.1,0.2243379469596813,0.6007926597748567,-0.3248826262646666,0.6951057075480978,-69.79965582715135,-78.8120006796656,-156.13621847120663,1
1767376650.082409,1,left_wrist,0.6344,0.3172,0.1913,-8.47,14.28,-12.95,0.7394514296987427,0.11138923524777819,-0.6595473626189016,-0.07616625138374436,68.36683866845033,-73.42322082511606,-65.48234432430625,1
1767376650.082409,2,right_wrist,1.0346,-0.2025,0.121,-1.47,-7.49,0.07,0.22390334576536206,0.6004368853762025,-0.32533475911495413,0.6953417382456029,-69.87440729058031,-78.72636991161482,-156.0665858339461,1
1767376650.158294,1,left_wrist,0.6856,0.1176,0.0,41.93,29.54,-11.62,0.743532350328264,0.12742755660325938,-0.6532895523800991,-0.06430103097509716,67.38218092350607,-72.76477568341296,-62.20696979525247,1
1767376650.158294,2,right_wrist,1.0009,-0.2172,0.1083,6.02,-4.34,1.82,0.2170630749245984,0.5984032626244989,-0.32581316093042295,0.6990300000351627,-69.92740038749945,-77.97249474515303,-155.48373504303814,1
1767376650.2107599,1,left_wrist,0.9379,0.2869,0.1327,-16.38,26.46,-12.6,0.7533706780561606,0.12792233783547466,-0.640830777473011,-0.07351470309566466,63.04334193817731,-71.21932281176407,-58.57376284483293,1
1767376650.2107599,2,right_wrist,0.9267,-0.2084,0.0844,-0.42,-12.6,2.87,0.21273679915007807,0.5989570980903427,-0.3292432028934977,0.6982781410605706,-72.22758636274459,-77.57050017590625,-153.12239074470727,1
1767376650.283923,1,left_wrist,0.3514,0.3528,-0.0151,-0.49,3.5,-34.58,0.758049029358704,0.1591486795874519,-0.6280134576279001,-0.0750497429185947,64.43150384552219,-68.1623891947702,-57.48720773652859,1
1767376650.283923,2,right_wrist,1.0209,-0.1815,0.1513,-0.98,-14.7,1.82,0.2118357088033268,0.6014034783542969,-0.3293754862474595,0.6963844324497745,-73.6965908976105,-77.7316274670801,-151.57821188969692,1
1767376650.3618119,1,left_wrist,0.6178,0.2664,0.0112,106.54,3.64,-36.54,0.747153182249437,0.20585118850243295,-0.6292675822400599,-0.05839281110226801,72.07207602121713,-66.38789034459296,-59.84232622851062,1
1767376650.3618119,2,right_wrist,0.915,-0.1645,0.1366,-0.21,-0.84,0.84,0.20993656748285805,0.5972482313039882,-0.3259512269175031,0.7021231982414109,-70.29930862481488,-77.30190164746233,-154.52522942707637,1
1767376650.4322271,1,left_wrist,0.4514,0.5158,0.3758,2.17,13.58,-21.63,0.7511205003513752,0.24420675504046027,-0.6113363263513338,-0.049486875308145224,72.68130836963147,-63.406424287416506,-56.41424681481767,1
1767376650.4322271,2,right_wrist,1.0199,-0.243,0.1,2.59,-12.74,-2.45,0.2066381391028792,0.5988835452772266,-0.32678913324385295,0.701318787041963,-71.85722509242387,-77.17969013355894,-152.75600960616043,1
1767376650.485703,1,left_wrist,0.9174,0.0508,0.0122,96.95,-3.85,39.76,0.7390809546379149,0.2620276981436351,-0.6205157060253863,-0.007815783573840772,76.87066914280209,-65.94108974355458,-55.68937326764368,1
1767376650.485703,2,right_wrist,0.8916,-0.2294,0.1093,1.33,14.56,1.12,0.2070338183429181,0.591539534423557,-0.32581419227722175,0.7078580997537957,-67.89715798175261,-76.49786333818453,-156.69727091840778,1
1767376650.55675,1,left_wrist,1.3459,0.6559,0.2098,11.83,-56.42,56.84,0.7241958439813917,0.2510983488122537,-0.6422305710607621,0.005467392322393033,82.1807877179628,-68.89898021699354,-60.91224963305128,1
1767376650.55675,2,right_wrist,0.9667,-0.2572,0.0996,5.53,3.36,-1.96,0.1991297588763049,0.5912773725819988,-0.3266084479926428,0.7099755837366732,-69.04264274383328,-75.8502031304033,-154.95719722177313,1
1767376650.608893,1,left_wrist,1.5074,0.2499,0.1942,9.24,-14.0,61.04,0.7198773307487037,0.23351686988212672,-0.6530080924416104,0.028756414246992077,82.72971642894557,-72.47804625752693,-61.09900255012407,1
1767376650.608893,2,right_wrist,0.8847,-0.2308,0.0956,-1.89,0.98,-0.35,0.19800967112221465,0.587986985285761,-0.3284226203898557,0.7121811972334677,-68.44196691514675,-75.36800519598899,-155.64364363476724,1
1767376650.676807,1,left_wrist,1.3532,0.0864,0.1893,-25.48,-33.32,58.38,0.7099947142851645,0.16525134743172,-0.6840235555515629,0.026669707717308682,87.22439703576279,-78.55644252782824,-71.54659614784218,1
1767376650.676807,2,right_wrist,0.9623,-0.1972,0.0913,-3.71,-10.85,0.91,0.2003581758349294,0.5927156816628831,-0.32752302146687046,0.708006633087724,-69.8928639968127,-76.05728045908927,-154.28540137322574,1
1767376650.73767,1,left_wrist,1.3254,0.1742,0.1049,7.35,-25.06,48.58,0.7030805194747782,0.15081077020201633,-0.6935273435043198,0.04420088842989197,92.82842460964483,-81.3186498135052,-76.93052395975867,1
1767376650.73767,2,right_wrist,0.9853,-0.2059,0.1132,6.51,0.56,-1.26,0.20128267476273787,0.592164074555985,-0.32246894643591834,0.7105214790772484,-67.57945170606547,-76.2411662560908,-156.22625702315864,1
1767376650.812487,1,left_wrist,1.0287,0.185,0.0488,-13.16,-2.17,18.34,0.70531573848429,0.14184924474674807,-0.6931162237724179,0.044703480341038056,90.440767818775,-82.06025087350636,-75.24382207405412,1
1767376650.812487,2,right_wrist,0.974,-0.2284,0.063,3.99,-0.14,1.05,0.19741058152673865,0.5918411188407046,-0.32405818151527005,0.7111536031995297,-68.51986718576082,-75.86544533742287,-155.1034864948506,1
1767376650.884812,1,left_wrist,0.998,-0.1747,0.0649,10.29,-1.82,-2.38,0.7013857770052805,0.13854696482564072,-0.6980990976119985,0.03899205387787428,95.3390767374533,-81.92213476761628,-80.87920147141544,1
1767376650.884812,2,right_wrist,0.9794,-0.245,0.0966,-0.35,-0.7,-0.14,0.1949150177677838,0.5893802915922288,-0.3264045823382814,0.7128106735731556,-68.6289967828129,-75.34696581044572,-155.00744101172802,1
1767376650.956736,1,left_wrist,0.9906,0.1674,0.0551,3.57,3.43,-15.26,0.704882231478682,0.14470354939502525,-0.6935356733332912,0.0347878190212281,91.4203593302098,-81.03723250841198,-76.79215077532322,1
1767376650.956736,2,right_wrist,0.9755,-0.2147,0.1088,5.88,-3.5,1.54,0.19626790639999375,0.5912973359181941,-0.31817342481247907,0.7145712289173889,-66.18197702078527,-75.91660848412914,-156.82151909432454,1
1767376651.010419,1,left_wrist,1.1673,0.0776,0.0698,-51.31,9.66,-51.73,0.713126025637757,0.14162005613464707,-0.6865522239790577,0.006408978696022316,84.91817201715898,-78.81672080919054,-72.84392889242635,1
1767376651.010419,2,right_wrist,1.0063,-0.2074,0.0947,3.15,-8.12,2.45,0.1963213558517741,0.5962509400711057,-0.3159649644891568,0.7114132996481087,-67.48645031718853,-76.5130430920783,-155.29974702558636,1
1767376651.063488,1,left_wrist,1.3752,0.1796,0.1269,-2.66,13.23,-91.35,0.7190451822091876,0.16586564407525822,-0.6745757173211093,-0.02025378132515138,82.5271434687533,-74.44682632876032,-70.59738197937423,1
1767376651.063488,2,right_wrist,1.0082,-0.2225,0.1098,7.63,-6.37,1.4,0.1937603035223235,0.5964450634967361,-0.3131602114369388,0.7131906568247254,-66.80390563562463,-76.43736217333576,-155.51593175263457,1
1767376651.13045,1,left_wrist,1.5826,0.3626,0.1469,9.24,15.05,-108.22,0.7271814889813458,0.2069421292511146,-0.6468050654333535,-0.10012614320767166,79.77700510635664,-64.05948812367143,-70.88635011227855,1
1767376651.13045,2,right_wrist,1.0028,-0.2186,0.0815,0.91,-9.31,1.47,0.1917883204937008,0.6017897341823054,-0.3146187285357489,0.7085770329396406,-70.12631735050861,-76.78251303707498,-152.1329348682774,1
1767376651.206867,1,left_wrist,1.2839,0.3709,0.001,-16.17,-13.44,-87.64,0.7196437599838906,0.22322504531422682,-0.6444016533276129,-0.13049883926437297,81.88027341456137,-60.367897343419315,-74.10243978345575,1
1767376651.206867,2,right_wrist,0.9975,-0.2264,0.1078,-2.31,2.24,-1.89,0.19305627210028012,0.5975235306366226,-0.31589206543416615,0.7112714735837677,-68.44927124566227,-76.40286890339044,-154.04964848696008,1
1767376651.2647839,1,left_wrist,1.0302,0.6159,0.1503,51.87,8.75,-26.32,0.717339429362244,0.2476981673350241,-0.6391523645267205,-0.12471574038998744,83.32354109818701,-58.78124710436516,-72.9627522837127,1
1767376651.2647839,2,right_wrist,0.9609,-0.2274,0.081,-6.3,3.99,-2.8,0.19298116869570903,0.5958225891746558,-0.3202028146437975,0.7107910158775483,-69.33917333256879,-76.0715109787951,-153.54653582608907,1
1767376651.3265002,1,left_wrist,0.5754,0.5134,0.1879,-36.61,13.02,55.09,0.7341977040090651,0.22065615826839116,-0.632363308351074,-0.1112710092402165,77.5205541528229,-61.57658315945161,-68.36769007466346,1
1767376651.3265002,2,right_wrist,0.9965,-0.2079,0.1444,-4.13,1.54,-3.22,0.19674465964455765,0.5937145656996257,-0.31847048329261307,0.7122998698924642,-67.2776781077638,-76.19665430759045,-155.7802171353997,1
1767376651.407743,1,left_wrist,0.5148,0.5344,0.0947,-31.5,4.27,70.77,0.7413447213456593,0.1944170479407971,-0.6345033434477136,-0.10007758368678386,73.98197794143675,-64.40335578606755,-66.13691716489511,1
1767376651.407743,2,right_wrist,0.9833,-0.2489,0.0991,1.54,0.28,-5.39,0.19450139260416036,0.5905386922754349,-0.3222236359998348,0.7138663667688144,-67.6132703541185,-75.57563383508759,-155.60757730192978,1
1767376651.477131,1,left_wrist,0.5251,0.364,0.0473,-32.55,-18.48,45.5,0.7365773319238993,0.15034836211101432,-0.6529008140548954,-0.09257284219931897,73.37427331797741,-69.06518403305174,-68.61221548939825,1
1767376651.477131,2,right_wrist,0.9701,-0.2064,0.1196,3.71,7.7,-3.92,0.19816457803981927,0.5880625930905077,-0.3165466207127008,0.7174339157952723,-63.97783652435115,-75.75415384180005,-159.05729873593427,1
1767376651.532207,1,left_wrist,0.5412,0.2821,-0.0205,-20.16,2.73,35.49,0.73775579187379,0.13650926911262148,-0.6551826126319543,-0.08841580801972869,71.81854361428812,-70.49122896532053,-67.863654922935,1
1767376651.532207,2,right_wrist,0.9701,-0.2064,0.1196,3.71,7.7,-3.92,0.20208823698262404,0.5858997008811296,-0.3106024272437502,0.7206996719653399,-60.25844310025909,-75.94277947775647,-162.59020304524526,1
1767376651.6087291,1,left_wrist,0.5602,0.2894,-0.1254,32.06,-5.53,22.68,0.7325001213847245,0.14195602515010666,-0.6617623968338796,-0.0732297018403411,74.62477495279795,-71.56649693982777,-68.98086835979512,1
1767376651.6087291,2,right_wrist,1.0082,-0.1864,0.1332,4.62,2.8,0.28,0.2050425044075871,0.5892719800610325,-0.30410935419507773,0.7198844390541216,-58.43141921968786,-76.68687403099688,-164.07228888806517,1
1767376651.6609979,1,left_wrist,0.649,0.3211,-0.0278,-15.68,-3.5,2.52,0.730422443920477,0.138984944393871,-0.6639917505605951,-0.07925398309578305,75.52286379621165,-71.43421884263293,-70.61723234635026,1
1767376651.6609979,2,right_wrist,0.9731,-0.2137,0.1342,4.06,-2.59,1.33,0.20153719473718545,0.5873754620216339,-0.30476894128710147,0.7221417576757885,-58.590601940489364,-76.21128724544091,-163.68596288112903,1
1767376651.7275698,1,left_wrist,0.6446,0.2098,-0.063,35.49,21.7,-18.62,0.7373315071511524,0.16448922413244174,-0.6508754309499248,-0.0751446411413833,73.8438252687536,-69.24446145948812,-66.47890454405352,1
1767376651.7275698,2,right_wrist,0.975,-0.2152,0.1225,3.15,-1.75,2.94,0.19634242823874382,0.5868834425791839,-0.30822065034565743,0.7225077898543514,-60.59340439713754,-75.71707547977093,-161.5541068266406,1
1767376651.8094232,1,left_wrist,0.5314,0.4187,-0.0717,93.03,47.81,-2.94,0.7413880092786522,0.19985807039382794,-0.6387706696642477,-0.04870937253734216,73.81731783291363,-68.07660955115678,-61.31758533152099,1
1767376651.8094232,2,right_wrist,0.9892,-0.222,0.1,-0.07,-6.58,0.0,0.1946616654164931,0.5888233801522627,-0.3070933044407699,0.721863952120474,-61.14866985312399,-75.85006584751895,-160.7468413538268,1
1767376651.878322,1,left_wrist,0.5856,0.3509,0.2006,103.88,-0.49,-16.66,0.7414436547735117,0.2521279527621163,-0.6200286969379423,-0.04751018001985421,76.48904942951577,-63.56955852547282,-59.394847026143445,1
1767376651.878322,2,right_wrist,0.9989,-0.1996,0.1659,7.56,6.79,0.98,0.1948756329425946,0.5854843686636777,-0.30219165559865546,0.726575353987638,-58.00613283073661,-75.59848964061145,-163.4917536489684,1
1767376651.958803,1,left_wrist,0.9794,0.7959,0.2172,49.21,13.58,6.44,0.7403589444337226,0.269231764271392,-0.6150228095488215,-0.033613006990920236,77.3788758264526,-63.198739350654414,-57.65545268995751,1
1767376651.958803,2,right_wrist,0.9531,-0.2123,0.1205,1.19,-9.38,1.47,0.18991117160009743,0.5913121391455497,-0.3066569946169592,0.7212802427996255,-62.65443230707772,-75.80779271830986,-158.7899335156912,1
1767376652.033602,1,left_wrist,1.0687,0.6095,-0.041,10.57,-14.0,13.3,0.7438677220827736,0.260842825735828,-0.6140383046534508,-0.0397340247627934,75.88717940293378,-63.22696043495066,-57.39048735780185,1
1767376652.033602,2,right_wrist,1.0033,-0.2372,0.103,1.54,-6.65,-0.07,0.18648100647826735,0.594664675619579,-0.30944014417609794,0.7182238891636709,-65.5537291407451,-75.83948490550232,-155.8326677698369,1
1767376652.1101499,1,left_wrist,1.3874,0.0224,0.224,16.45,-17.92,43.96,0.7383168812855684,0.25058402207440644,-0.6258573182700818,-0.019961158722549163,77.02395101355283,-66.08645494080886,-57.83292864782891,1
1767376652.1101499,2,right_wrist,0.9433,-0.2118,0.0981,4.06,-4.83,-0.98,0.18444007112176938,0.5985064715614316,-0.3051870042607124,0.7173790881354529,-65.85786217482689,-76.23732839788613,-154.96153932770753,1
1767376652.179847,1,left_wrist,1.3235,0.1523,0.225,32.34,-34.79,78.96,0.7443818485046533,0.19659902421148137,-0.6378473483024446,0.01988083397216185,67.81749531955701,-73.22014907974582,-50.0151857094701,1
1767376652.179847,2,right_wrist,0.9945,-0.1972,0.1049,-1.96,-4.83,-3.22,0.18858365715019393,0.6011356048382538,-0.3018401135557423,0.7155171099982595,-65.14607112101302,-76.92881893860087,-155.712409179062,1
1767376652.230025,1,left_wrist,1.4079,0.0473,0.2596,-5.32,-33.81,66.5,0.735230616419275,0.1730649288716468,-0.6541250251489172,0.040061484599464674,67.34629168058987,-77.35155481003758,-49.903973661911714,1
1767376652.230025,2,right_wrist,0.9745,-0.1664,0.1303,-4.34,-3.36,-3.64,0.19284118895644647,0.6014379045840037,-0.29960991391474223,0.7150654671115558,-63.72631027813108,-77.34037348038228,-157.29130365880653,1
1767376652.2845938,1,left_wrist,1.1326,-0.059,0.2269,3.29,-12.39,29.82,0.7319078367339696,0.1625972548516921,-0.6596411609000858,0.05240792009306945,65.52468927823467,-79.30711283504445,-47.9583060467861,1
1767376652.2845938,2,right_wrist,0.9575,-0.2011,0.1122,-1.05,1.33,0.14,0.19278422337109857,0.5981544525697051,-0.29982549502090333,0.71773962314039,-62.35544935473269,-76.96730805528522,-158.69169005802394,1
1767376652.358825,1,left_wrist,1.018,0.1147,0.0834,41.09,-8.19,18.27,0.7260551174338423,0.1670103123519256,-0.6630557536535574,0.07286006837187707,66.0092424876587,-80.81095330601663,-46.414908206402096,1
1767376652.358825,2,right_wrist,0.9789,-0.2025,0.0961,1.4,-1.54,-0.07,0.19407050230943307,0.5977469782062957,-0.2990847249673428,0.7180414455098088,-61.6661011210588,-77.03345668529147,-159.42572158705497,1
1767376652.4137018,1,left_wrist,1.038,0.2567,0.0615,-49.56,-15.05,-12.04,0.7255598705897741,0.158818278745899,-0.6676985193394405,0.050182823733415524,70.49063115409957,-80.01408196830984,-53.42810701790664,1
1767376652.4137018,2,right_wrist,0.9975,-0.2128,0.1088,-1.19,-2.17,-1.05,0.1911677278611811,0.5969321585325336,-0.30275292356962136,0.7179606989272675,-63.263227477724,-76.63092888441027,-157.91271084024206,1
