timestamp,node_id,node_name,ax,ay,az,gx,gy,gz,qw,qx,qy,qz,roll,pitch,yaw,rep_number
1767373884.5141592,1,left_wrist,0.976,0.4763,-0.1557,-40.39,5.67,48.44,0.6696543186066224,0.1323844305487079,-0.730680016614112,-0.01200705794919764,117.82414663581471,-77.27199269086152,-107.99763453111882,1
1767373884.5141592,2,right_wrist,0.8682,-0.5856,-0.0927,-31.92,-0.35,10.71,0.3810731920752875,0.26945289955929036,-0.6916208073598674,0.5512159431906222,-100.36427844853198,-55.50440837836444,175.200159614845,1
1767373884.566904,1,left_wrist,0.9936,0.4158,-0.1586,-30.45,0.07,24.99,0.6705973967516918,0.11883891216371976,-0.7320198268015184,-0.017983814808668855,118.28902639806809,-77.82467871958941,-110.06348476749912,1
1767373884.566904,2,right_wrist,0.8442,-0.5646,-0.0781,-20.51,-10.57,20.58,0.37719342676080053,0.26190619837287304,-0.6983701883061446,0.5490075975317226,-101.19210665074876,-54.52988273236101,175.2205384790908,1
1767373884.618012,1,left_wrist,1.0058,0.3631,-0.1527,-15.89,-5.81,1.82,0.6684929621370048,0.11684531150043487,-0.7340107827315205,-0.02631546289769671,118.28454450781537,-77.21631682532568,-110.89805117022469,1
1767373884.618012,2,right_wrist,0.8442,-0.5646,-0.0781,-20.51,-10.57,20.58,0.37386412978041256,0.25514607543833967,-0.7048981780904617,0.5461177997252019,-102.08166286401378,-53.6829343696463,175.28880204019214,1
1767373884.7022731,1,left_wrist,1.0077,0.2879,-0.1391,-10.43,-9.38,-12.53,0.6645454127267045,0.12087470947790235,-0.7364719141340611,-0.0371189806465486,117.89855233315373,-75.89824958633044,-111.05617423698301,1
1767373884.7022731,2,right_wrist,0.8447,-0.509,-0.0166,-6.16,-12.18,16.31,0.3636255011809322,0.24686786905321,-0.7128248794205937,0.5465468336739855,-102.97152365969782,-52.022486020838606,175.75683497319727,1
1767373884.7670631,1,left_wrist,0.9916,0.2118,-0.1,5.46,-10.22,-19.67,0.6581859818813418,0.13543982845535654,-0.7389828990632726,-0.04849269032460994,117.27565125563707,-73.6664308285292,-110.15369461981768,1
1767373884.7670631,2,right_wrist,0.8208,-0.508,-0.0122,3.99,-9.45,8.68,0.36086016255252157,0.247836417475459,-0.7119565105845992,0.5490673731808322,-102.76581858119172,-51.81245138847915,175.9768199743435,1
1767373884.820148,1,left_wrist,0.9916,0.2118,-0.1,5.46,-10.22,-19.67,0.6561693702357773,0.14056785229590502,-0.7396846740839328,-0.050487814278755025,117.3037706263513,-73.042806921243,-109.91895984466535,1
1767373884.820148,2,right_wrist,0.8057,-0.5148,-0.022,3.36,-3.64,2.24,0.3615069387585384,0.24930663947903564,-0.7095979494343894,0.5510260274248491,-102.31461720871411,-51.980210232377615,175.84900073464294,1
1767373884.8962991,1,left_wrist,0.9496,0.1752,-0.0908,23.38,-3.64,-10.85,0.6550008121514147,0.14783840966714198,-0.7397564837477163,-0.043336883382311814,118.19448258556423,-72.99289315681098,-109.62477652765077,1
1767373884.8962991,2,right_wrist,0.8179,-0.5187,-0.0556,14.28,0.21,-10.08,0.36861832302458286,0.2591137213606708,-0.6983893879160941,0.5560871102438468,-100.61550554021568,-53.42310581759514,175.3756312849627,1
1767373884.96519,1,left_wrist,0.9643,0.1869,-0.0698,14.7,0.91,-1.12,0.6566378463930544,0.15432297299310557,-0.7376442116569102,-0.029869310335462553,118.84023359288535,-73.64006494643567,-108.63882266682806,1
1767373884.96519,2,right_wrist,0.8252,-0.5436,-0.0669,15.96,1.4,-17.71,0.3745447464350591,0.2680224639695842,-0.6897799819563757,0.5586445813017721,-99.4896875574607,-54.70277051478521,175.16306687195845,1
1767373885.0490649,1,left_wrist,0.9618,0.1835,-0.0654,11.06,2.1,-0.14,0.6588402721726306,0.1554718610073973,-0.7356409000531327,-0.024299431421483206,118.50654013000921,-74.10891941144597,-107.75906377942356,1
1767373885.0490649,2,right_wrist,0.815,-0.5749,-0.0981,13.79,3.36,-27.44,0.3846615828360426,0.28507429170111537,-0.6754558607214236,0.5608275092381423,-97.933274941014,-57.07669410781391,175.10825961104572,1
1767373885.121116,1,left_wrist,0.9648,0.1972,-0.0898,9.52,5.46,2.52,0.6650311656768859,0.15614799779878202,-0.7302229314738448,-0.011217032210819839,117.21211894275866,-75.40677738272974,-105.35154322127536,1
1767373885.121116,2,right_wrist,0.8335,-0.5832,-0.1078,15.12,1.12,-29.12,0.38703778682741363,0.29441690447157964,-0.6704739919646763,0.5603437016939347,-97.87777297930596,-58.097307753927154,175.7732762424131,1
1767373885.201142,1,left_wrist,0.9662,0.2196,-0.103,9.66,4.69,2.03,0.6684545817556024,0.15709261011302383,-0.7269453646368231,-0.0063891165943736165,115.85034843778513,-75.89542347819426,-103.52221925604051,1
1767373885.201142,2,right_wrist,0.834,-0.6105,-0.12,14.91,-6.65,-22.33,0.38634255232983605,0.3124019100833124,-0.663282200515164,0.5596438164719839,-98.52228467190544,-59.561774456756545,177.96301865870728,1
1767373885.264739,1,left_wrist,0.9809,0.263,-0.102,13.86,5.81,-1.47,0.670489139229199,0.17030033096772315,-0.7220861120962176,-0.005810177771842603,113.06609297836258,-75.08814177151214,-99.59303490229581,1
1767373885.264739,2,right_wrist,0.835,-0.6193,-0.1152,12.32,-9.1,-13.16,0.38182715052792665,0.3180799183045959,-0.6622530635352322,0.5607620462631768,-99.03831479759774,-59.594681426013295,179.21550009408296,1
1767373885.314861,1,left_wrist,0.9448,0.246,-0.1249,18.41,5.88,-2.17,0.6684628687147738,0.17805183804463026,-0.7221167060928293,-0.0015488383344555592,113.8667069007642,-74.76689935974086,-99.39923180444765,1
1767373885.314861,2,right_wrist,0.8364,-0.5963,-0.0991,12.32,-14.49,-2.59,0.37322194622116783,0.3216832619564592,-0.6632354100671534,0.5633329820532351,-99.70416936635483,-59.03676441147648,-179.30874314683237,1
1767373885.399071,1,left_wrist,0.9418,0.2347,-0.1186,21.84,6.79,-0.42,0.6662291976532627,0.18511891469354788,-0.7223830533622252,0.005689273419448373,115.2018774859379,-74.72049560973227,-99.55392918053764,1
1767373885.399071,2,right_wrist,0.8472,-0.551,-0.0473,22.75,-18.34,12.53,0.3492822863379151,0.3259144204304391,-0.6606835093140132,0.5790327931357342,-99.03361751175203,-57.0304993071551,-177.24457872699253,1
1767373885.450101,1,left_wrist,0.9555,0.2333,-0.0883,18.2,8.89,0.63,0.6701533378597307,0.18933317483991957,-0.7175557356383354,0.012697200991767845,113.30531253017064,-75.13941669765133,-96.73882720542467,1
1767373885.450101,2,right_wrist,0.8403,-0.5568,-0.0351,21.7,-14.7,13.65,0.33908478526219343,0.3273227375222279,-0.6575495177452098,0.5878009574827937,-98.16104000466215,-56.17393477714439,-176.72178194973245,1
1767373885.513317,1,left_wrist,0.9521,0.2362,-0.0766,35.14,14.56,0.07,0.6780399341933772,0.20484404921974525,-0.7051959789844068,0.03161319918204252,108.60996317490468,-75.75528753877492,-89.20864281799783,1
1767373885.513317,2,right_wrist,0.7945,-0.5407,-0.0288,16.24,-7.0,12.39,0.33226935179340333,0.3263963185890097,-0.6542984912538986,0.5957818438096324,-97.01874951122244,-55.459809055764325,-176.8454193732655,1
1767373885.56345,1,left_wrist,0.9867,0.1527,-0.0771,31.78,9.87,-2.66,0.6780786993945216,0.21163788698413055,-0.7024103017051282,0.04514920020152332,108.85192277895831,-76.33399970595316,-87.77741251092556,1
1767373885.56345,2,right_wrist,0.8481,-0.53,-0.0498,-3.99,-2.87,3.01,0.33455985607732613,0.3276113265259116,-0.6537261534949578,0.5944599546396195,-97.08680068026379,-55.78411264555521,-176.88345799157838,1
1767373885.624757,1,left_wrist,1.0009,0.1537,-0.0654,12.11,0.84,-7.77,0.6776876853234877,0.21428099887179453,-0.7016411258308367,0.0502273354482929,109.16263711040655,-76.53507027084956,-87.4514513950416,1
1767373885.624757,2,right_wrist,0.855,-0.5148,-0.0429,10.08,-8.33,1.75,0.3335665802484873,0.3325647804593236,-0.6500831047709804,0.5962599770491842,-96.84380460636932,-56.12773079745199,-176.440293550165,1
1767373885.710689,1,left_wrist,0.9941,0.1669,-0.042,-3.15,-4.34,-10.08,0.678355643538583,0.2136642793132393,-0.7012907237123854,0.04870849474031729,108.68311501821637,-76.47392285683753,-87.14794479093288,1
1767373885.710689,2,right_wrist,0.8237,-0.5568,-0.0366,7.77,-1.68,-3.99,0.3308464433923576,0.33873020228402906,-0.6405939902343317,0.6045178414496178,-95.21140112727227,-56.450988977213505,-176.47575399442465,1
1767373885.764251,1,left_wrist,0.974,0.1645,-0.0498,3.71,-1.89,-3.85,0.6792353613416995,0.21255100885029307,-0.700538790211689,0.05202687717398364,108.41460319394929,-76.85009096910693,-86.70468710240642,1
1767373885.764251,2,right_wrist,0.8296,-0.5485,-0.063,-4.27,4.76,-7.77,0.3335148806076552,0.34007340879172193,-0.6420808172538864,0.6007080198903798,-95.8541771205326,-56.80966441347637,-176.22734563291453,1
1767373885.8152351,1,left_wrist,0.9955,0.1703,-0.0634,-0.77,-2.66,-1.82,0.6789212057087278,0.20962168432970066,-0.7015319872566835,0.05456754304048394,109.13086631154535,-77.27719574182645,-87.46249682891113,1
1767373885.8152351,2,right_wrist,0.832,-0.5563,-0.0869,-4.41,4.69,-9.31,0.33582066801283295,0.34106506786017704,-0.6436900005984127,0.5971283627081891,-96.48303747770187,-57.10297459271677,-175.98547387200486,1
1767373885.871424,1,left_wrist,0.9731,0.2015,-0.0781,-3.78,-4.06,-2.1,0.6757691658060824,0.20797458823786058,-0.7050770964208043,0.05430371346281686,111.55237678914578,-77.29785360274168,-90.0430495742475,1
1767373885.871424,2,right_wrist,0.833,-0.5588,-0.0927,-3.5,0.7,-8.19,0.33619031932209,0.34245528171454565,-0.6459038658710785,0.5937243849402838,-97.3188788180962,-57.23965847984223,-175.42338441309343,1
1767373885.948042,1,left_wrist,0.9682,0.1791,-0.0752,-5.74,-4.06,1.33,0.675401224096843,0.2026535466209816,-0.706833000089538,0.05614121939223339,112.71299244205649,-77.83537482426348,-91.5036482017556,1
1767373885.948042,2,right_wrist,0.8316,-0.5817,-0.0737,2.24,-5.53,-0.98,0.32756478555457863,0.34288520400252537,-0.6491760855234331,0.5947280539248185,-98.10762372832158,-56.4227960647353,-174.2341948087145,1
1767373886.014156,1,left_wrist,0.9745,0.2172,-0.0781,-3.36,-3.57,4.13,0.6757573188319179,0.20365861064316945,-0.7067622020372567,0.04860458957176278,111.64861630947934,-77.16064486093612,-90.96704103163383,1
1767373886.014156,2,right_wrist,0.8364,-0.5744,-0.0654,-5.67,-4.55,1.61,0.3252410589841523,0.33985664764533874,-0.6512223663685541,0.5955041075790158,-98.12667475638433,-55.932740334368894,-174.33657140320713,1
1767373886.0659158,1,left_wrist,0.9755,0.2284,-0.0781,-4.27,-3.22,2.03,0.6760548358952254,0.20478405163223135,-0.7064462489592381,0.04412537128670528,110.91827872032515,-76.72150523547893,-90.50557616899711,1
1767373886.0659158,2,right_wrist,0.8389,-0.5627,-0.0595,-2.1,-5.04,4.97,0.3239606953328358,0.33824901834396437,-0.6511500191617715,0.5971940405047883,-97.83053854915899,-55.679297332755596,-174.5483138921389,1
1767373886.149058,1,left_wrist,0.9628,0.2216,-0.0786,-5.74,-3.57,0.21,0.6766677290891284,0.2058399736927806,-0.7058665575506009,0.038769737827093226,109.94686796403438,-76.22420532262751,-89.88002476215632,1
1767373886.149058,2,right_wrist,0.833,-0.5475,-0.0371,0.7,-4.97,6.86,0.3216841573070227,0.3372491117219972,-0.649671437566124,0.6005908447447067,-97.24465547819185,-55.39385634702239,-174.7667753589198,1
1767373886.201914,1,left_wrist,0.9599,0.2289,-0.0859,-0.35,-2.24,0.63,0.6742747987104839,0.20832654688383784,-0.7075724166606003,0.03598361944649599,110.96139583010716,-75.74029097071711,-90.90886440064271,1
1767373886.201914,2,right_wrist,0.8379,-0.5431,-0.0376,-1.89,-2.8,5.39,0.32230917351227806,0.33659997232892075,-0.6487536732753686,0.6016111091973936,-96.91569641869648,-55.40673239719283,-175.0558192961398,1
1767373886.2671092,1,left_wrist,0.9721,0.2196,-0.0893,-1.26,-3.36,-1.89,0.6712018819579438,0.20351667279458502,-0.7117041605221555,0.03932156464575076,113.81621624281516,-76.26385846894753,-93.89702526296209,1
1767373886.2671092,2,right_wrist,0.8418,-0.5373,-0.042,-1.54,-0.77,4.41,0.32416583230753726,0.33646660110193766,-0.647284745253912,0.6022700374988361,-96.53982428242179,-55.58268255145446,-175.42248328447405,1
1767373886.3239338,1,left_wrist,0.9653,0.2133,-0.0844,-1.54,-1.96,-2.24,0.6733138135146378,0.2026227784035524,-0.7099930432632179,0.038760762637427885,112.51553147081562,-76.36176653554024,-92.71892021791797,1
1767373886.3239338,2,right_wrist,0.8389,-0.5334,-0.0439,1.19,0.0,3.43,0.3262618128230292,0.3371381560861118,-0.644874079815562,0.6033477557647161,-96.0388579565615,-55.854889543068715,-175.79828794454613,1
1767373886.395535,1,left_wrist,0.9648,0.2137,-0.0864,-0.28,-0.84,0.07,0.6752573545998274,0.20038145898567117,-0.7086826778702577,0.04054180608035614,111.68673384496161,-76.73869925063381,-91.9359890521193,1
1767373886.395535,2,right_wrist,0.835,-0.5378,-0.0654,1.33,0.63,-1.61,0.3309500695653086,0.3417593783802986,-0.6419966259387456,0.6012594373705045,-96.05732053539575,-56.71068770522292,-175.73248387249234,1
1767373886.45022,1,left_wrist,0.9609,0.225,-0.0947,1.47,-0.07,0.63,0.6733425621494861,0.2033286744311463,-0.7097761556885551,0.038536384988921674,112.3858451224519,-76.29201279468238,-92.54788188796186,1
1767373886.45022,2,right_wrist,0.8545,-0.5451,-0.0727,5.11,-1.96,-2.38,0.33070574364547695,0.3461285978911273,-0.6416869377171814,0.599221644139262,-96.6673539049546,-57.059384038325454,-174.9484152763329,1
1767373886.517069,1,left_wrist,0.9633,0.2333,-0.0922,3.22,0.14,-0.91,0.6731566858953024,0.20931505850913204,-0.7084026366188864,0.034827962145116985,111.44152531275223,-75.53765366956219,-91.39834365768621,1
1767373886.517069,2,right_wrist,0.8545,-0.5451,-0.0727,5.11,-1.96,-2.38,0.32983729574611986,0.35007950359634116,-0.6417772320889448,0.5973053522854778,-97.32504772630655,-57.30658390573204,-174.12173145275386,1
1767373886.5710511,1,left_wrist,0.9658,0.2196,-0.0961,4.62,-0.21,-0.91,0.671126926923527,0.20856805833742398,-0.71032748196391,0.039024112627333074,113.17968542371891,-75.86386180399727,-92.85769022244199,1
1767373886.5710511,2,right_wrist,0.8413,-0.5514,-0.0752,3.99,-4.41,-4.48,0.32577195862727315,0.35108961421184853,-0.6431831337229078,0.5974313100759833,-97.79565388138744,-56.98899216512279,-173.42547979580712,1
1767373886.6501172,1,left_wrist,0.9667,0.2338,-0.0942,5.32,-0.42,-2.8,0.6714296930939643,0.21394166580895554,-0.7085863374709052,0.03628406278523054,112.09025263559407,-75.25252538148092,-91.53572693772222,1
1767373886.6501172,2,right_wrist,0.8325,-0.5607,-0.0644,4.9,-6.72,-5.32,0.31876160100720113,0.35247887819059387,-0.6411517750478305,0.6025562907362618,-97.34529565202409,-56.46265160200287,-172.94661827555407,1
1767373886.717933,1,left_wrist,0.9711,0.2103,-0.0859,3.92,-1.33,-4.06,0.6719008020340456,0.21250340609464596,-0.7081886090753953,0.043133613343162104,112.58698930892194,-75.92944133114348,-91.59882472214363,1
1767373886.717933,2,right_wrist,0.8257,-0.5729,-0.0561,4.62,-6.09,-4.69,0.31588951467069754,0.3530192030123564,-0.6399486491813132,0.6050264318495882,-97.06320222493834,-56.250868532060025,-172.8046280829773,1
1767373886.795846,1,left_wrist,0.9697,0.2006,-0.0815,3.01,-1.68,-4.34,0.6724619030740965,0.21172658009599155,-0.7077237446097391,0.04575964936916528,112.56244328913142,-76.21857986570281,-91.4273048914881,1
1767373886.795846,2,right_wrist,0.8281,-0.5744,-0.0551,2.73,-5.11,-1.68,0.3103204280601018,0.3520975792768944,-0.6387323806465222,0.609712614687914,-96.50590826450299,-55.66765963022412,-172.72906203713728,1
1767373886.8663611,1,left_wrist,0.9692,0.1898,-0.0834,0.7,-1.12,-1.75,0.6729988054776355,0.208112765895286,-0.7078220190215375,0.05243733293526618,113.29461268715303,-77.04654962393481,-91.92335605138389,1
1767373886.8663611,2,right_wrist,0.8242,-0.571,-0.0532,2.17,-4.69,0.35,0.3078506476828668,0.35096642374467507,-0.637916553912328,0.6124647078564875,-96.08150771774893,-55.35348961929566,-172.858319805427,1
1767373886.9201448,1,left_wrist,0.9736,0.202,-0.083,1.89,-0.35,0.0,0.6749564107245251,0.20669179957303377,-0.7061986876567258,0.05473351042136053,112.33614485479504,-77.40416017911015,-90.89983055085622,1
1767373886.9201448,2,right_wrist,0.8311,-0.5661,-0.0527,1.82,-3.5,2.24,0.3081993833763727,0.35145829641479065,-0.6356750691932004,0.6143349350100942,-95.5871202400494,-55.452420300201375,-173.09767880982807,1
1767373886.972427,1,left_wrist,0.9775,0.1918,-0.0825,-1.12,-2.03,-1.19,0.6742790865904599,0.20349733424344701,-0.7075501311466796,0.05752703935422319,113.53708211043407,-77.846127611915,-92.14308473796878,1
1767373886.972427,2,right_wrist,0.8301,-0.5597,-0.0547,0.63,-2.45,2.52,0.31010814038432893,0.3543387798310642,-0.6343059603170287,0.6131336877724937,-95.70996714570948,-55.88575984403548,-172.90806482646377,1
1767373887.056252,1,left_wrist,0.9819,0.1918,-0.0761,-5.39,-3.99,-1.96,0.6760777326051542,0.20140121736520586,-0.7065734897115742,0.05577053663086455,112.36366366046948,-77.92146912163996,-91.29055778985808,1
1767373887.056252,2,right_wrist,0.8169,-0.5514,-0.0576,-3.85,2.17,0.0,0.31032045194250935,0.3526429928504807,-0.6360493899772717,0.612197117119309,-95.89703217928796,-55.74415346665459,-172.99556937876872,1
1767373887.117305,1,left_wrist,0.9828,0.1742,-0.0678,-14.14,-4.9,0.35,0.6784270772160012,0.18899418326417686,-0.7079760903823877,0.052799195442069694,112.13430788416036,-78.68922189959909,-92.34816124353716,1
1767373887.117305,2,right_wrist,0.8145,-0.5749,-0.0712,-7.0,4.48,-1.61,0.3099283029850825,0.3496380816472436,-0.6397387210628099,0.6102720931221931,-96.37496683284168,-55.41600927295078,-173.01035922072825,1
1767373887.198752,1,left_wrist,0.9687,0.1932,-0.063,-16.03,-5.39,0.14,0.6801315393678229,0.18610796120692674,-0.7076390628197512,0.04507629869610948,110.49456360313152,-78.33695622994738,-91.57882430492549,1
1767373887.198752,2,right_wrist,0.8291,-0.5754,-0.0693,-9.94,5.6,-0.21,0.31274410853647366,0.34159950997984223,-0.6458744295550961,0.6069160721254112,-96.76848485807895,-54.94801651391217,-173.8385530190794,1
1767373887.2643468,1,left_wrist,0.9614,0.1659,-0.042,-30.17,-7.0,3.36,0.6836156333471829,0.16493454858856,-0.7100949651796232,0.03509132302674773,109.69378997905677,-79.2466780984425,-93.35911109513978,1
1767373887.2643468,2,right_wrist,0.8203,-0.5827,-0.0615,-17.22,10.15,-0.21,0.31682268476476355,0.3336845337075033,-0.6485708240790241,0.6063282151906746,-96.34844526577648,-54.64758290025894,-175.1778690524679,1
1767373887.3171022,1,left_wrist,0.9609,0.1713,-0.0259,-34.51,-7.21,5.25,0.6862575656427706,0.15248472397640342,-0.7107354062414692,0.025576255915831198,108.18079343796263,-79.51263669725894,-93.65326626898852,1
1767373887.3171022,2,right_wrist,0.8135,-0.5695,-0.0595,-22.05,17.22,-2.31,0.3281528356261078,0.32722014267002925,-0.6489899568595078,0.6033694809957202,-95.67880100553698,-55.165467195114786,-177.1169483626071,1
1767373887.372601,1,left_wrist,0.9477,0.1537,-0.0156,-50.12,-12.88,2.45,0.6878450307794708,0.13552545154497522,-0.7130121256752489,0.010759844589145268,107.36592145385583,-79.6728371650281,-95.4428473406979,1
1767373887.372601,2,right_wrist,0.7764,-0.5495,-0.0664,-33.39,26.32,-4.48,0.33883616486172113,0.31623761224036595,-0.6558970945408978,0.5958043532562689,-96.0791354838569,-55.21662809463533,-178.88725515895922,1
1767373887.4552388,1,left_wrist,1.0092,0.1484,0.0161,-57.05,-15.33,5.81,0.6886108830379377,0.11527085554012112,-0.7158911516943517,-0.005247909154599004,107.23353693195557,-79.97471146182801,-98.27519720183248,1
1767373887.4552388,2,right_wrist,0.8023,-0.5851,-0.0942,-63.91,45.99,-11.48,0.3771791063887473,0.2805966881099205,-0.6737287169218997,0.5701675510937998,-96.69020994168316,-55.914996177796766,174.6741303431591,1
1767373887.518162,1,left_wrist,1.0053,0.2172,0.0317,-87.78,-22.75,9.94,0.6854690890202453,0.05648425688561832,-0.7236125576684823,-0.057676018467920157,108.42715271548761,-80.23527621505613,-108.52407100653282,1
1767373887.518162,2,right_wrist,0.8237,-0.5978,-0.0874,-76.02,50.75,-8.05,0.3997513213764137,0.2557804537200703,-0.6851834088930104,0.5525386291747573,-97.19793178524415,-56.14633989111278,170.57305399158577,1
1767373887.573343,1,left_wrist,0.9794,0.2089,-0.0161,-75.39,-20.16,17.01,0.6826416304363968,0.030106705304722297,-0.725796386215183,-0.07945814274077394,109.49138201476514,-80.44724326338333,-113.5050093825598,1
1767373887.573343,2,right_wrist,0.8301,-0.5968,-0.0864,-79.45,47.88,-3.29,0.42000278510488714,0.22884616440407016,-0.6972011637647879,0.5339828000850859,-97.92793372079609,-56.10415116999366,166.5786038827401,1
1767373887.645903,1,left_wrist,0.9906,0.2269,-0.0537,-88.2,-21.7,20.37,0.6768019051306022,3.824052489207724e-05,-0.7286178404843726,-0.10514381711322293,111.9493289107876,-80.48828818471601,-120.50323803704534,1
1767373887.645903,2,right_wrist,0.8813,-0.548,-0.0551,-72.52,24.64,12.53,0.45068294748163173,0.1768841565082843,-0.7215862627671394,0.4948839676241032,-100.61276379185739,-55.637948919930885,160.24243974286472,1
1767373887.704248,1,left_wrist,0.9594,0.2967,-0.0942,-79.73,-21.84,18.76,0.6689574519952065,-0.027125962275420527,-0.7316574952251321,-0.1282084992174825,115.48223550409975,-80.35030654576579,-128.13922816126365,1
1767373887.704248,2,right_wrist,0.8603,-0.5383,-0.0176,-50.33,8.19,20.16,0.4550528181254989,0.15905270929600004,-0.7298724256302764,0.48468073067352324,-101.64942007747493,-54.928992630920966,158.67716540710217,1
1767373887.771133,1,left_wrist,0.9331,0.2991,-0.1469,-52.78,-17.78,20.23,0.6533585044295442,-0.06947448776024422,-0.7368637446864408,-0.1591470452340121,123.62172422593441,-80.05888822714884,-142.29909263337544,1
1767373887.771133,2,right_wrist,0.8911,-0.5261,0.0278,-34.37,0.14,24.22,0.45478623193940215,0.14497201155950687,-0.7364135411070726,0.4794243376977148,-102.43685333055642,-53.98155218989616,157.76160288357568,1
1767373887.848165,1,left_wrist,0.9345,0.3109,-0.143,-52.71,-16.66,16.1,0.6455207781382188,-0.08770869499516275,-0.7384444147455984,-0.17409754778601771,126.37501458531871,-79.70548932114426,-147.7992613743496,1
1767373887.848165,2,right_wrist,0.8789,-0.5153,0.0512,-23.1,-1.4,25.83,0.4508684207124617,0.12105390965882046,-0.7451868859413545,0.4761933674271321,-103.11478266932743,-51.929499474526274,156.1850564414056,1
1767373887.916435,1,left_wrist,0.9389,0.3167,-0.1586,-25.06,-8.89,7.14,0.6331174768428517,-0.10737705371423914,-0.7412360443453001,-0.19545218191445923,128.4070198478573,-78.68202782087462,-153.25934916283302,1
1767373887.916435,2,right_wrist,0.8672,-0.4943,0.0239,-18.97,6.65,25.76,0.45144956849140816,0.10874699357126677,-0.7470071871018722,0.4757600665422444,-102.84542939792692,-51.07299606460028,154.84393433489433,1
1767373887.9997199,1,left_wrist,0.9545,0.3001,-0.1728,-10.57,-5.74,3.15,0.6288769318957175,-0.10893029165309351,-0.7432228831917201,-0.20066823861784416,128.54528097867777,-78.10004651574009,-153.97567845953333,1
1767373887.9997199,2,right_wrist,0.8462,-0.4826,-0.0195,3.08,4.27,13.58,0.45314869091372717,0.09909346915691819,-0.743967945752687,0.4809869478334618,-101.43678344371057,-50.31632564828138,153.1431606694691,1
1767373888.052665,1,left_wrist,0.9599,0.326,-0.1884,2.03,-2.52,-4.34,0.6255576128855239,-0.10434407351517631,-0.7457735831235184,-0.20398958306328532,127.67329169473574,-77.32200157008927,-153.0168893056426,1
1767373888.052665,2,right_wrist,0.8628,-0.4782,-0.0434,7.14,-0.21,3.01,0.45528918724359313,0.10204960561962083,-0.7410606197658,0.48283205341430757,-100.83419295668024,-50.65471992184321,152.94114733324986,1
1767373888.114989,1,left_wrist,0.9423,0.3875,-0.1903,49.0,7.63,-10.43,0.6256231294899942,-0.07117802561970851,-0.7529409104350523,-0.19133576223294071,125.87574148911709,-75.77828308399607,-147.43873514971133,1
1767373888.114989,2,right_wrist,0.8608,-0.4738,-0.0478,26.81,-9.03,-3.92,0.4551007766488141,0.11316993437173481,-0.7354710110116272,0.4890380772593055,-99.88932491181097,-51.271167335568734,153.551185292971,1
1767373888.166768,1,left_wrist,0.9267,0.3514,-0.1708,66.5,11.69,-15.12,0.6282460967014508,-0.04393020790668387,-0.7562790439028183,-0.17725401706620328,124.76370678090986,-74.97931548664347,-142.91683789811282,1
1767373888.166768,2,right_wrist,0.8672,-0.5148,-0.0537,34.3,-17.99,-10.57,0.4529694049134094,0.1298383351368093,-0.7295014248503183,0.49577050747563495,-99.19611398356989,-52.15035837549136,154.9599863092195,1
1767373888.217416,1,left_wrist,0.9292,0.3387,-0.1371,84.07,16.31,-18.34,0.6325873371642269,-0.01030962985966696,-0.7580500113050131,-0.15838924443313232,123.35665827493565,-74.22391223724918,-137.19021945953492,1
1767373888.217416,2,right_wrist,0.8896,-0.5119,-0.0517,45.15,-30.24,-14.28,0.44687438846783595,0.15253725067347795,-0.7231103227201855,0.5041300717711484,-98.85183980960036,-53.13737922685093,157.45947608946327,1
1767373888.2992482,1,left_wrist,0.9243,0.3021,-0.0932,95.97,21.77,-20.58,0.6392352438958954,0.026937395757735745,-0.7565323605098356,-0.13531986983648245,121.42332360939422,-73.72219964815022,-130.30363032231162,1
1767373888.2992482,2,right_wrist,0.8901,-0.5129,-0.0195,69.02,-46.69,-12.18,0.4185464406105423,0.21144914476212576,-0.7032659024492083,0.5343455873158419,-97.78833570855939,-54.55501357856275,165.0212393067565,1
1767373888.351694,1,left_wrist,0.9374,0.2679,-0.0595,107.1,27.44,-16.52,0.6475690329439032,0.06472680649252273,-0.7518835702550947,-0.10552670218399568,119.82591505974568,-73.76687313405988,-123.16579216403674,1
1767373888.351694,2,right_wrist,0.8721,-0.5197,0.0356,107.03,-63.98,-15.19,0.3944954475228846,0.2510759039828123,-0.685077194521442,0.558572707773628,-96.51112444112259,-55.185822465146494,170.2488226277804,1
1767373888.4035351,1,left_wrist,0.9394,0.263,-0.0146,111.65,31.29,-15.96,0.6555512994378658,0.10321910865733311,-0.7444689106147286,-0.07324172677804781,117.9699109631464,-73.93641941554056,-115.51663917218256,1
1767373888.4035351,2,right_wrist,0.8438,-0.529,0.0605,96.95,-68.81,-18.83,0.3693879436679825,0.2898749633459403,-0.6678339355985191,0.5775144042886915,-96.15186771305996,-55.91361581241708,175.96079223034033,1
1767373888.4627469,1,left_wrist,0.8965,0.1928,0.0644,141.12,42.28,-10.99,0.6687475983388362,0.18978905149051176,-0.7187859079080001,0.01017763446201928,113.76822449407807,-74.8480218222632,-97.36660205812986,1
1767373888.4627469,2,right_wrist,0.8164,-0.5334,0.0805,103.81,-70.98,-20.93,0.3417463993024383,0.32949798006056663,-0.6471586351862549,0.5965116768376699,-95.71887606514792,-56.66033197353143,-178.04353139802654,1
1767373888.513324,1,left_wrist,0.9267,0.1035,0.1039,137.62,44.1,-5.81,0.6720942598384169,0.2295328158403294,-0.7016999630356436,0.05675521315646941,111.49481182631327,-75.75942830930266,-87.95176673322693,1
1767373888.513324,2,right_wrist,0.7891,-0.5275,0.0976,109.34,-66.64,-26.74,0.3146452001205462,0.36905120876120256,-0.6216647423290607,0.6150874340270165,-94.86570932156174,-57.6939255147086,-172.2809820086219,1
1767373888.566981,1,left_wrist,0.8725,-0.0059,0.1274,100.87,36.96,-3.01,0.6743963224081555,0.25665651000264905,-0.6861067812074018,0.0925987093691584,108.48037894851345,-76.6425967627835,-79.68532599709438,1
1767373888.566981,2,right_wrist,0.7447,-0.5519,0.0991,104.02,-54.67,-32.2,0.2912431655921374,0.4042211017914436,-0.5937909933380301,0.631818783824142,-93.55246603478815,-58.9440672905127,-167.45856531791298,1
1767373888.623441,1,left_wrist,0.8613,0.0117,0.1044,58.03,32.62,1.19,0.6789386267380316,0.26956025357160185,-0.6729448993919408,0.11629605840208032,103.69033919157759,-77.54724887106552,-71.83059287076519,1
1767373888.623441,2,right_wrist,0.6993,-0.5749,0.0776,91.63,-35.42,-38.29,0.2748261164282429,0.4323724200864057,-0.5653878846615356,0.6464218715015365,-91.53495048257723,-60.43037774999922,-164.29120688192296,1
1767373888.703712,1,left_wrist,0.9062,0.0298,0.0917,42.49,31.36,3.92,0.6842209971137597,0.2767570272968062,-0.6608492173794372,0.13610836432590231,97.62900783337277,-78.42751892971539,-63.50157604626178,1
1767373888.703712,2,right_wrist,0.692,-0.6251,0.0181,33.53,-1.12,-39.97,0.2734913330121138,0.4616378723137417,-0.529661241419111,0.6569261259466432,-88.35946684810324,-63.66808306598929,-162.99882409975098,1
1767373888.772109,1,left_wrist,1.0341,0.0747,0.1137,17.85,19.74,3.78,0.6949208717902412,0.27888089912460656,-0.6440141341380683,0.15670424717963558,85.4010670856719,-79.25951804827386,-49.35936337875751,1
1767373888.772109,2,right_wrist,0.7828,-0.6427,-0.0283,13.65,3.01,-31.01,0.2768870317712177,0.4673184128347228,-0.5218853045832706,0.6577102717174084,-87.52349965469324,-64.65234481317917,-163.2261374617647,1
1767373888.853142,1,left_wrist,0.9262,0.1015,0.0669,2.87,17.36,-5.11,0.7009602840754188,0.2770536329386534,-0.6372151121867277,0.16078826270986976,79.38297217342242,-79.24033408100782,-43.1474829385337,1
1767373888.853142,2,right_wrist,0.8228,-0.6002,-0.0151,13.86,-1.47,-2.38,0.26511186300718614,0.47186841731072393,-0.5160140993788322,0.6639166710361959,-87.0863485715398,-64.1798347458587,-161.9494474984555,1
1767373888.913594,1,left_wrist,0.9843,0.0737,0.0898,-24.85,6.93,-6.44,0.7059614445287937,0.2716367813310306,-0.6321062069524207,0.16814767616342555,72.6805717795357,-79.68410891829765,-36.2921496270873,1
1767373888.913594,2,right_wrist,0.8247,-0.569,-0.0512,14.42,-1.61,4.27,0.25725037701598735,0.4717544411951327,-0.516013189011345,0.6670834876566368,-87.12864679193522,-63.494094972935606,-161.22385368394376,1
1767373888.997911,1,left_wrist,0.9921,0.2377,0.0386,7.35,-2.03,3.15,0.7042707580961602,0.27667664308295264,-0.6319692507256943,0.16753387896247368,74.86607939621973,-79.37666493225268,-38.08904126794092,1
1767373888.997911,2,right_wrist,0.9189,-0.5807,-0.0171,2.94,-3.36,19.67,0.23932691097069228,0.464633344342814,-0.5289110262781795,0.6686490942874307,-88.96766224602563,-60.988054847449455,-159.29804262824433,1
1767373889.0667038,1,left_wrist,1.0297,0.2503,0.0742,21.77,1.47,0.49,0.7073091775594373,0.2873012796375623,-0.623301443192555,0.1693133573374817,73.48928503320619,-78.24327138387787,-35.60876776430413,1
1767373889.0667038,2,right_wrist,0.9453,-0.5373,0.0,-4.2,-10.29,21.07,0.22886001882557086,0.46181705666397843,-0.5383664339186108,0.6667155921284108,-90.70436034296897,-59.567033656325236,-157.71484011757832,1
1767373889.124259,1,left_wrist,1.1258,0.1469,0.0966,20.79,5.11,-1.19,0.7066165141851,0.2902918860917713,-0.6201617327716666,0.17839043683960287,71.76610216862414,-78.5227061000903,-32.85472765696245,1
1767373889.124259,2,right_wrist,1.0209,-0.5817,0.0459,0.28,-7.77,23.17,0.2216607807860153,0.4575914702116784,-0.5414280920323048,0.6695761090489316,-90.55612229955454,-58.5187800187585,-157.6396287794053,1
1767373889.208096,1,left_wrist,1.0409,0.1444,0.0727,-4.06,-3.85,-7.42,0.7062666537581201,0.2879125241251677,-0.6218151012473178,0.1778757209457507,71.82123634682254,-78.74253007962727,-33.167396330838194,1
1767373889.208096,2,right_wrist,0.9257,-0.53,0.0771,-1.26,-5.18,30.17,0.20272389915569727,0.45087566919211214,-0.5466102439402293,0.6758930335942803,-90.42688261044277,-56.2128660851095,-156.82325354455918,1
1767373889.265677,1,left_wrist,0.9726,0.1196,0.063,7.35,1.61,-2.94,0.7061300667652809,0.2885370463507982,-0.6199301450944655,0.18388397672546747,70.1315378558145,-78.9970351698236,-30.913729552504698,1
1767373889.265677,2,right_wrist,0.8838,-0.4719,0.0659,-13.65,2.1,22.12,0.2022114485952257,0.4445251194405501,-0.5519270980746311,0.6759322648419007,-90.45040233871207,-55.50237815878589,-157.4356833976644,1
1767373889.346816,1,left_wrist,0.9462,0.1435,0.059,4.27,-0.07,-1.12,0.7044455670135586,0.2870515363411595,-0.6213417460217402,0.1878624317147558,69.75081588536969,-79.50011598342454,-30.334469068804605,1
1767373889.346816,2,right_wrist,0.8223,-0.4729,0.0742,-2.03,7.28,3.57,0.2057962184787906,0.437878958309043,-0.5509921405654475,0.6799394056569478,-89.05974313252732,-55.31031496974236,-159.1380377240253,1
1767373889.4030552,1,left_wrist,0.9711,0.1566,0.0825,5.46,4.69,-2.31,0.7070248617223208,0.28669710532079407,-0.6175845268970369,0.19107581438940366,66.74678639541641,-79.37562262075629,-27.079086203163005,1
1767373889.4030552,2,right_wrist,0.9004,-0.5358,0.061,-3.36,12.95,-6.16,0.21422144954566588,0.4360225627150098,-0.5467130426859128,0.6819811905874681,-87.74798493062514,-55.99140661371904,-160.73190201499753,1
1767373889.454169,1,left_wrist,1.0824,0.1523,0.0869,8.19,4.06,3.08,0.7066342741086044,0.2845606067130994,-0.6168181921492665,0.19806206500940374,63.957415769553336,-79.88299002538629,-23.886681066502028,1
1767373889.454169,2,right_wrist,0.9331,-0.5573,0.0493,-4.48,11.48,-11.06,0.22431460555526936,0.43636023616873154,-0.5419261168786594,0.6823406670206389,-86.65203420629301,-56.99431835035846,-162.16541419357412,1
1767373889.512651,1,left_wrist,1.0024,0.1776,0.0634,4.13,1.68,4.06,0.7042578411336309,0.28340827698251136,-0.620158286665058,0.19774817627543745,65.49262014562346,-80.2613585007025,-25.560753750761286,1
1767373889.512651,2,right_wrist,0.8901,-0.5705,0.0351,-1.05,10.64,-11.69,0.23387322857017517,0.4379058029747303,-0.5361369453330659,0.6827144326350134,-85.48945611396064,-58.07113738784618,-163.4986824038875,1
1767373889.5692182,1,left_wrist,0.9804,0.1732,0.0576,-3.5,-0.98,-0.77,0.7036361192738151,0.2858384332402368,-0.6210745096384293,0.19354341945268166,68.08009229469248,-79.95307677938905,-28.292077359738844,1
1767373889.5692182,2,right_wrist,0.8706,-0.5363,0.0254,0.21,7.77,-12.18,0.23898490562827915,0.4404852702042527,-0.5345503047495143,0.6805254685220314,-85.52558540652612,-58.76214301981908,-163.68838339494658,1
1767373889.6459389,1,left_wrist,0.9199,0.1669,0.0395,1.75,-3.5,0.7,0.7007339075341207,0.2889538236852401,-0.6234767602927739,0.1917143916988725,71.48283000273396,-79.92376257998174,-31.582584465767745,1
1767373889.6459389,2,right_wrist,0.794,-0.5422,0.0195,9.31,3.5,-9.66,0.23714796196523308,0.4419370865068167,-0.5312292505337023,0.6828235050750697,-85.0174099839685,-58.81390224903334,-163.6602549690118,1
1767373889.7175329,1,left_wrist,0.9638,0.1952,0.0708,5.74,-1.05,-1.26,0.7044283174435164,0.29396097195742704,-0.6191167754026191,0.18455923429783794,71.93004145002095,-78.74058241998993,-32.17570366877713,1
1767373889.7175329,2,right_wrist,0.8398,-0.5392,0.0249,-0.84,2.17,-10.15,0.2379442806141293,0.44274859552313917,-0.5323387173610166,0.6811546744196502,-85.42414668402331,-58.92523021115006,-163.42653619681226,1
1767373889.8003252,1,left_wrist,1.0175,0.1713,0.102,3.29,-2.52,-1.54,0.7053217484846491,0.2934178315959263,-0.6178098205490236,0.18638195419429765,70.66264146324872,-78.77931934102975,-30.798881541418293,1
1767373889.8003252,2,right_wrist,0.8398,-0.5451,0.0586,7.91,-3.78,-4.27,0.23049105085945806,0.4442816659889829,-0.5287887394252919,0.6854707475864797,-84.94678321294977,-58.52261330525071,-162.8614391637298,1
1767373889.871436,1,left_wrist,0.9789,0.1059,0.0844,2.87,-0.7,1.54,0.7052353031760894,0.28865104398899816,-0.6177663769131502,0.1941351217935346,67.26545485401864,-79.5507467159868,-27.169656088805553,1
1767373889.871436,2,right_wrist,0.8447,-0.5397,0.0571,-0.56,-1.54,-2.52,0.22883245233308933,0.44206956166373756,-0.529325182064962,0.6870408015842656,-84.69194765873904,-58.17831698619861,-163.0679773107991,1
1767373889.947704,1,left_wrist,1.0155,0.08,0.1103,-0.14,4.13,2.45,0.7065640321004009,0.28423249427873876,-0.6169177042011948,0.19847343394328054,63.76858123033589,-79.9346058559206,-23.692299811877426,1
1767373889.947704,2,right_wrist,0.9135,-0.5388,0.0688,-1.33,-1.89,-1.05,0.23298062689249568,0.4431635672408171,-0.5242731850816513,0.688813260301741,-83.63992666658368,-58.73818477001888,-163.9224131103438,1
1767373890.00276,1,left_wrist,1.1556,0.0756,0.1713,-11.76,3.92,-6.65,0.7106940541510998,0.2790449308853377,-0.6152128818429143,0.1963695443698108,60.61438376327852,-79.75239218493773,-21.162985904777866,1
1767373890.00276,2,right_wrist,0.974,-0.5563,0.0927,2.59,-3.08,-0.77,0.2344569892061189,0.4447087745617599,-0.5207233792973299,0.6900081074113179,-83.05168243196435,-59.07935299542336,-164.23768760372505,1
1767373890.0551198,1,left_wrist,1.4132,0.0029,0.3421,-16.45,3.15,-22.12,0.7167187666706673,0.2769040967603117,-0.6118813872441328,0.18772186511866237,59.66217326421637,-78.82968403540958,-21.111596069413373,1
1767373890.0551198,2,right_wrist,0.9984,-0.5309,0.1196,12.95,-5.95,1.54,0.23268427469106515,0.44784198297172845,-0.514741551512283,0.6930632884132378,-82.22568994864314,-59.35143043119125,-164.2332461775844,1
1767373890.118583,1,left_wrist,1.442,0.2259,0.3382,-58.52,6.16,-59.85,0.741236757400905,0.26422967920968665,-0.6031734574494162,0.13012504113757417,60.51464745047915,-74.35572464383624,-27.818744591872218,1
1767373890.118583,2,right_wrist,0.9423,-0.5319,0.1015,14.63,-1.75,2.59,0.23073036566625096,0.44894855734149264,-0.5081739626262974,0.6978308641276889,-80.90102836017878,-59.4383607158603,-164.68876364085278,1
1767373890.199438,1,left_wrist,1.2132,0.2089,0.1547,10.08,9.45,-39.55,0.7438074622819837,0.27409267834021905,-0.5968205055926243,0.12421331183929071,62.10512047481363,-72.9269098681031,-29.011325670963434,1
1767373890.199438,2,right_wrist,0.8506,-0.4651,0.0717,6.93,2.45,4.2,0.2332509021055156,0.453444006352711,-0.5030924279013006,0.6977682700998524,-80.44513975127714,-60.168397326049764,-164.762797985343,1
1767373890.264333,1,left_wrist,1.0014,0.408,0.1288,-9.8,10.92,-3.71,0.7552447019039462,0.2751650176638932,-0.5849979271579125,0.10801425147171237,60.429647591807566,-70.57483142783788,-28.518873227649777,1
1767373890.264333,2,right_wrist,0.8013,-0.4656,0.0766,9.59,1.61,1.96,0.22787593409768547,0.4507977440680864,-0.5028921170817795,0.7013939486331753,-80.04462736758313,-59.493055852061076,-164.724523350472,1
1767373890.315785,1,left_wrist,0.9941,0.5407,0.1332,32.27,-4.83,9.8,0.7493377415104079,0.28717576579754317,-0.585354247112206,0.11568679299893381,63.07753701267934,-70.68267113991661,-29.485776218739066,1
1767373890.315785,2,right_wrist,0.7832,-0.4865,0.0976,6.65,1.26,-1.54,0.22532612631992785,0.4481934730813377,-0.5010568889391068,0.7051898620453981,-79.21617640587777,-59.08443917240554,-165.18800411832416,1
1767373890.3995662,1,left_wrist,0.7779,0.4358,0.1937,-18.06,4.83,15.33,0.7534157220844016,0.27959831624633674,-0.5841195602609548,0.1139906600945982,60.76626846097723,-70.7194184257262,-27.97171389712772,1
1767373890.3995662,2,right_wrist,0.8281,-0.5441,0.0971,4.34,0.98,-6.44,0.22261630982254355,0.44533497678663747,-0.5019375122316511,0.7072322609059486,-78.99918818532262,-58.58226415777707,-165.31131602492786,1
1767373890.4637,1,left_wrist,0.7247,0.3309,0.1532,-40.74,5.95,20.65,0.7657503635396364,0.24504902032769454,-0.5864930143647852,0.0979964411428277,53.59836408113555,-71.12778742995661,-25.12866514199098,1
1767373890.4637,2,right_wrist,0.8691,-0.5651,0.103,3.15,-2.24,-7.84,0.2207176284398652,0.44531216361753834,-0.5021599462118035,0.7076836820576741,-79.09435995566135,-58.42455388685268,-165.0774385615292,1
1767373890.5176132,1,left_wrist,0.6427,0.2718,0.1635,-38.78,-2.38,22.89,0.7694284975199464,0.22909773335514025,-0.5889835249457275,0.09269532414442795,50.413536837417055,-71.5923747085769,-23.75937072234584,1
1767373890.5176132,2,right_wrist,0.8921,-0.5617,0.1093,6.37,-5.39,-7.98,0.2179095692471169,0.4461796039364027,-0.5009274635035883,0.7088800018124026,-79.0277370450126,-58.30853458789703,-164.7633779809973,1
1767373890.5971808,1,left_wrist,0.7257,0.2547,-0.0551,-49.56,-3.43,21.49,0.7702081520575413,0.20897138103162324,-0.5964448085369216,0.08581348835234626,47.49991540109771,-72.67643914410087,-23.15567027859549,1
1767373890.5971808,2,right_wrist,0.8769,-0.5456,0.1259,9.87,-6.3,-1.82,0.21107403274479067,0.4472970034840952,-0.49369678743426415,0.71528779204743,-77.74688887949601,-58.027821837624266,-164.7024572319097,1
1767373890.6566982,1,left_wrist,0.5876,0.2367,-0.1054,-32.2,-21.77,8.12,0.7648523093779329,0.19896160532894572,-0.60786267110583,0.07692982204748332,49.222813213048674,-73.83470465405615,-26.494733736423814,1
1767373890.6566982,2,right_wrist,0.8355,-0.5002,0.122,-1.47,2.38,1.82,0.2132987792635303,0.4456248163748421,-0.4914339685882148,0.7172271664634668,-76.8983105690851,-58.08929924566538,-165.536618956257,1
1767373890.717553,1,left_wrist,0.7608,0.1625,0.1698,30.24,-8.96,-6.51,0.7545840146016451,0.22095818437482878,-0.61212870343599,0.08413617590084006,56.42838668300374,-73.94283768824113,-31.260500436493544,1
1767373890.717553,2,right_wrist,0.8818,-0.508,0.1,-6.23,4.76,-2.31,0.21755777620755062,0.4471253612839793,-0.4926114820367396,0.7141998691359887,-77.28969860483186,-58.54131047630243,-165.6032290631301,1
1767373890.768422,1,left_wrist,0.8823,0.202,0.1474,28.07,12.67,-11.9,0.757080856750593,0.2298329864863293,-0.6047038783585144,0.09131590312061821,55.541734260113245,-73.25455594710725,-29.00257930182563,1
1767373890.768422,2,right_wrist,0.9116,-0.4919,0.0874,-0.42,-0.91,-1.19,0.21957870763885276,0.4508531281753947,-0.4922116611909596,0.7115084880405493,-77.76851310572674,-59.06266115554414,-165.19523261220857,1
1767373890.819504,1,left_wrist,0.7222,0.1366,0.1166,28.7,2.45,-10.29,0.7544701062393618,0.2385302511011721,-0.6034106842845851,0.09886214741743508,56.70987647842257,-73.27039209398026,-28.8024798944036,1
1767373890.819504,2,right_wrist,0.8911,-0.4758,0.0893,7.7,-12.18,3.71,0.216445126465849,0.45783692042029367,-0.4908528224254141,0.708943134705633,-78.76294873492697,-59.501910721523345,-163.68524247309148,1
1767373890.871541,1,left_wrist,0.2416,0.2142,0.0937,22.12,24.08,-20.58,0.7604771435086802,0.25280261191512676,-0.5900896856152644,0.09777278016015731,56.84949325545934,-71.25066593754347,-27.746523667324258,1
1767373890.871541,2,right_wrist,0.8091,-0.4524,0.1122,7.98,-13.86,3.01,0.2129003153090846,0.4617481236922668,-0.48748623438136246,0.7098022945135094,-78.7783139802544,-59.6632428154125,-162.96607954984893,1
1767373890.952671,1,left_wrist,0.4963,0.4348,-0.0888,139.09,14.84,-14.49,0.7467339425685319,0.3049453752469299,-0.5772066676856139,0.12739387705394212,64.40910448090207,-70.00726295555015,-28.239701946805916,1
1767373890.952671,2,right_wrist,0.8154,-0.5051,0.1064,-2.73,-6.51,-15.12,0.21273370750001241,0.4649525432164506,-0.48586308964455965,0.7088727391929361,-78.9921195806654,-59.986008444019454,-162.52548174379208,1
1767373891.021492,1,left_wrist,1.1814,0.0556,0.3377,-21.0,-30.87,-17.15,0.7455636974233153,0.31251582182184995,-0.579469014869355,0.10336486347801215,68.97080232378373,-68.22819038532833,-34.12036280382678,1
1767373891.021492,2,right_wrist,0.9545,-0.5636,0.1074,1.89,-5.39,-12.46,0.21190322907389367,0.46663360240677526,-0.48565567976065244,0.7081586427695077,-79.27949448440687,-60.0802940146384,-162.121826614998,1
1767373891.1005929,1,left_wrist,1.2415,0.1376,0.4002,78.89,43.82,28.98,0.7452215980573912,0.3256300225145752,-0.5645609316116502,0.14099933589819164,65.2318630153431,-68.95094071449167,-26.013479604255696,1
1767373891.1005929,2,right_wrist,0.9101,-0.5163,0.1127,1.12,-12.46,4.62,0.20531288396784364,0.46961304005941573,-0.4817280039509397,0.7108082318687676,-79.09329529616875,-59.93064819974623,-161.30810434258746,1
1767373891.166829,1,left_wrist,1.1287,0.3416,0.1283,-3.01,7.98,22.96,0.7303760587716183,0.3460158191451556,-0.5591594611805896,0.18483658362666625,65.64545342071693,-70.85753447206514,-20.895274714485467,1
1767373891.166829,2,right_wrist,0.874,-0.4895,0.1142,4.2,-3.71,13.3,0.2009276819608871,0.46717900680124,-0.48104921484236096,0.7141172838725999,-78.60090961757844,-59.378777093274785,-161.39582844530202,1
1767373891.2476318,1,left_wrist,1.282,0.1518,0.2386,47.53,-18.83,32.97,0.7156811017314147,0.35108939552476376,-0.5671160336298655,0.2071622585667897,67.60942200024242,-73.17898064429791,-20.573698044280885,1
1767373891.2476318,2,right_wrist,0.8198,-0.4582,0.103,-15.33,10.64,-1.96,0.2129956599043225,0.4599096956145318,-0.48280357817164365,0.7141544830401392,-77.35379449927564,-59.605617130431064,-163.95169506643742,1
1767373891.2991612,1,left_wrist,1.0643,0.2211,0.162,22.4,9.24,56.42,0.7097722663092766,0.33980529817649063,-0.5707292445684302,0.2345715641413695,61.27891560889767,-75.83450377932763,-12.961087588451065,1
1767373891.2991612,2,right_wrist,0.8921,-0.4729,0.0942,-9.87,7.0,-7.49,0.22087190391161896,0.46163623357344513,-0.4828574809502149,0.7106027321964031,-77.43721005229388,-60.38658312701881,-164.5180443783917,1
1767373891.350125,1,left_wrist,1.1536,0.1225,0.3055,-17.57,-47.18,31.01,0.6985995736561571,0.3286985127723084,-0.5905749531306738,0.23481300671685704,64.60493669526817,-78.38318427887256,-17.3836645025736,1
1767373891.350125,2,right_wrist,0.852,-0.4748,0.0996,3.71,5.25,-4.83,0.22133292751634154,0.4625644835299447,-0.4826610250323972,0.7099888511014782,-77.54580185320526,-60.51549188592138,-164.41490082928607,1
1767373891.42017,1,left_wrist,1.0443,-0.0561,0.1576,-4.41,11.62,28.98,0.7029810884884663,0.29751044415615485,-0.5969761220638748,0.24682916061753377,48.27344210904651,-80.4683760483733,-2.8317565782246645,1
1767373891.42017,2,right_wrist,0.8906,-0.487,0.101,-3.43,3.78,-4.34,0.22468281907646084,0.46465939212939217,-0.48328861515240795,0.7071360509702966,-77.98302482859296,-60.96555739003528,-164.29575733749493,1
1767373891.4955032,1,left_wrist,1.1366,0.0508,0.2996,-14.77,-6.51,6.72,0.7041004953260265,0.28970597503731504,-0.5998495823643897,0.24595409947099903,45.09950965748815,-80.82916492188093,-0.4339895377688231,1
1767373891.4955032,2,right_wrist,0.8872,-0.4797,0.1,2.45,3.22,-2.17,0.22621911598713043,0.46571871924692243,-0.48183924769441494,0.7069384170394813,-77.78406457195473,-61.21959719323256,-164.46366588586898,1
1767373891.5478249,1,left_wrist,1.0751,0.0605,0.1898,-67.41,9.45,0.63,0.7159671926664252,0.2648681260846802,-0.6028866045326561,0.23186978432912078,36.906475209055536,-80.44402571488538,4.370653495555538,1
1767373891.5478249,2,right_wrist,0.9057,-0.4963,0.0991,-4.62,4.41,-3.71,0.22650012544542816,0.464172276121085,-0.48521682673506084,0.7055539825604661,-78.30357342441944,-61.0213784201725,-164.3330567544356,1
1767373891.6031208,1,left_wrist,0.9994,-0.1459,0.1313,13.51,5.11,12.88,0.7133868943281442,0.2617367686182914,-0.6028724212643175,0.2431416184716217,30.536461142710387,-80.90977374842065,11.434230087171816,1
1767373891.6031208,2,right_wrist,0.9013,-0.4982,0.0937,0.0,1.68,-3.57,0.225461945656938,0.46427089568292196,-0.4873772468442207,0.7043315027321387,-78.8758268474421,-60.89988889377784,-163.88996420073678,1
1767373891.653499,1,left_wrist,1.0516,0.1581,0.1249,-24.5,-3.92,-5.25,0.7158142188403221,0.2595214056330772,-0.6055603280617575,0.23142025235918284,34.68089629979804,-80.77071036942422,6.0830541846722275,1
1767373891.653499,2,right_wrist,0.9052,-0.4997,0.0922,-0.14,-0.7,-3.43,0.2240625098840149,0.4652860397829461,-0.4897576399327091,0.7024545159475604,-79.68356149754308,-60.82762685864753,-163.18992409847658,1
1767373891.721557,1,left_wrist,1.035,0.1747,0.12,0.63,-3.29,-10.01,0.7159365247417357,0.25831198209168893,-0.6088211921411784,0.22371090373154187,37.89611600949472,-80.86935398661916,2.0924652597085207,1
1767373891.721557,2,right_wrist,0.8969,-0.5119,0.0991,-0.98,-1.47,-2.17,0.22242221927472133,0.46288660402413,-0.4907187560572094,0.7038888055947338,-79.50121453465968,-60.45107617756452,-163.36589359114922,1
1767373891.80318,1,left_wrist,1.1502,0.1205,0.1791,-15.05,-6.72,-41.65,0.7221355109042598,0.2647846686672472,-0.6049349735188659,0.2060656714340086,46.146371433916116,-79.36292544003759,-7.076561721572098,1
1767373891.80318,2,right_wrist,0.9697,-0.5134,0.1093,9.52,-8.75,3.64,0.22070127168720435,0.4674558018529625,-0.48441485479060203,0.7057749431992145,-78.90176490692491,-60.8866794979698,-163.11028869705618,1
1767373891.853899,1,left_wrist,1.4274,0.0815,0.4094,-38.71,6.09,-92.75,0.7376833194357478,0.27422747893488014,-0.59345003409928,0.16864064471781326,54.60850105027438,-75.47725737211256,-17.80392858604984,1
1767373891.853899,2,right_wrist,0.9575,-0.5031,0.1191,18.06,-14.0,5.95,0.21464757726180583,0.47232617314076863,-0.4783537399657702,0.7085281244965468,-78.55630904825821,-61.00567215475178,-162.25799946732388,1
1767373891.917255,1,left_wrist,1.4879,0.2977,0.265,-32.34,-17.71,-96.53,0.7468658759326554,0.3046935774944558,-0.5804803542101129,0.1113361826949319,66.6902940621169,-69.21664127774257,-31.885210677265537,1
1767373891.917255,2,right_wrist,0.9194,-0.5017,0.1181,17.78,-12.67,7.42,0.20641655049060262,0.4742868614593208,-0.47389962573625544,0.7126453012948759,-78.11538158993967,-60.649554038326684,-161.5248652804343,1
1767373892.000969,1,left_wrist,1.1078,0.1864,0.2499,-60.34,-17.57,-72.94,0.7542827226107172,0.30075439760752065,-0.5790820233308518,0.07258358592511244,68.12326574742248,-66.52626885406295,-36.8391031898776,1
1767373892.000969,2,right_wrist,0.8433,-0.4587,0.1015,4.83,-6.51,10.36,0.1990720504906252,0.4783969935207442,-0.46787798718777696,0.7159586750706255,-77.71061794868234,-60.610973617766284,-160.64896071372797,1
1767373892.064779,1,left_wrist,0.6285,0.4436,0.1108,-5.11,14.91,0.07,0.7629703078302624,0.3027446944452616,-0.5689225782149714,0.050488210028377445,67.28433029059364,-63.9892973852228,-37.57726415757787,1
1767373892.064779,2,right_wrist,0.8203,-0.4236,0.1039,0.84,-4.06,2.45,0.20052115646285137,0.48094254145176074,-0.465331337771658,0.7155084092590115,-77.5627846452643,-61.027751146450036,-160.63110486511036,1
1767373892.116705,1,left_wrist,0.832,0.6066,0.0893,-4.27,33.67,17.29,0.7704906159332726,0.29993416223833014,-0.5596200056522654,0.056649433844617,64.08970538404334,-63.68186242206862,-34.07511441752751,1
1767373892.116705,2,right_wrist,0.8281,-0.4441,0.1088,-1.47,-3.15,-7.98,0.20401373794937094,0.4821334575098311,-0.462011040096919,0.7158711634827207,-76.89603560437895,-61.498434743475336,-161.24727599083997,1
1767373892.202147,1,left_wrist,0.6959,0.4724,0.1513,-13.44,9.94,17.71,0.7741979117081745,0.2943781546461064,-0.5573679199398033,0.05744647418103254,62.33694303990029,-63.74681235556668,-32.73615788038724,1
1767373892.202147,2,right_wrist,0.8389,-0.4782,0.1215,6.86,-6.79,-12.95,0.2028470653571528,0.4856069956406544,-0.4582494488609107,0.716272543435472,-76.72645864535063,-61.831489118622365,-160.89972336722687,1
1767373892.265193,1,left_wrist,0.6705,0.3558,0.1791,-27.09,-22.75,26.11,0.7789842080309144,0.26524836306550686,-0.5661376386861993,0.04811531556929323,58.685064259663704,-65.16888775981879,-32.45726417632168,1
1767373892.265193,2,right_wrist,0.8735,-0.4987,0.1337,9.94,-8.75,-12.39,0.20088322053249805,0.48853809202035603,-0.45410825950089767,0.7174692697298382,-76.39116933454207,-62.06352900451291,-160.62225236540075,1
1767373892.31761,1,left_wrist,0.7003,0.4407,0.1518,-39.27,-26.67,25.9,0.7758300631400575,0.24977611830563745,-0.577940208029341,0.04104533828907473,58.651408082692654,-66.53033570824334,-34.40299733327927,1
1767373892.31761,2,right_wrist,0.8808,-0.507,0.1381,7.98,-4.13,-12.32,0.2000628281271865,0.48980837152453593,-0.4504111480319798,0.719160915035535,-75.7881835519071,-62.21746876082048,-160.77588451134534,1
1767373892.402355,1,left_wrist,0.6915,0.1972,0.0576,-34.16,-0.98,34.58,0.7762970367886313,0.22910576067526142,-0.5855192816856485,0.04517335357179537,55.34083222763201,-68.39941352948551,-32.56599834825125,1
1767373892.402355,2,right_wrist,0.8725,-0.51,0.1293,-6.23,8.4,-7.35,0.20347519579517975,0.4834069356528906,-0.45069479704733456,0.7223501776654155,-74.45684786063639,-61.85887908903899,-162.5062477307979,1
1767373892.45271,1,left_wrist,0.6949,0.3284,0.0093,-17.36,-13.09,30.73,0.7719504175109063,0.21818698580203283,-0.5951064770811337,0.04832466313843147,54.877998732096074,-70.03024137507194,-32.814784934268644,1
1767373892.45271,2,right_wrist,0.8745,-0.489,0.1059,-7.0,7.7,-1.96,0.20425808090981418,0.4801204990472691,-0.4550687162441801,0.7215784131149675,-74.84035743564122,-61.496996812767975,-162.66346845010054,1
1767373892.515423,1,left_wrist,0.8028,0.3333,0.1913,-1.82,1.54,-1.33,0.7659215062905674,0.22540203594985816,-0.5999765619836415,0.050855613864514995,57.881123589515504,-70.38947605540285,-35.01306773239424,1
1767373892.515423,2,right_wrist,0.8784,-0.4577,0.1035,-2.1,3.5,3.01,0.20406257067176908,0.4803740739329836,-0.4576502276293156,0.7198301782328199,-75.51117398806612,-61.44444935041452,-162.22766538082706,1
1767373892.567465,1,left_wrist,0.7452,0.162,0.1401,45.43,7.28,-6.16,0.7632574191155828,0.23836434407628326,-0.5970327496722407,0.06459448472513984,58.827087256272925,-70.41981281836327,-33.715521831833556,1
1767373892.567465,2,right_wrist,0.9057,-0.4699,0.0888,-0.42,-4.06,3.29,0.20210174842892636,0.4832066142123492,-0.46027893295331407,0.7168051026204875,-76.75898681309037,-61.49509823685337,-161.03652105666546,1
1767373892.645618,1,left_wrist,0.9374,0.3128,0.1889,16.8,-2.24,-7.7,0.7627129444766605,0.2482040793284164,-0.5937981657015173,0.06377646699205922,60.465931390788874,-69.62833433545963,-34.56176701831751,1
1767373892.645618,2,right_wrist,0.8672,-0.4294,0.1054,5.74,-9.03,10.92,0.1933016278519964,0.4886212231264465,-0.46037072250787886,0.7155016274179654,-78.14729673350126,-61.30635001243739,-158.8443965431418,1
1767373892.698487,1,left_wrist,0.6944,0.2313,0.0151,37.94,19.88,-4.76,0.7614167290622822,0.2626551809327795,-0.5880575666101122,0.07379104949692453,61.450430113475555,-69.11164193283236,-33.451669326264096,1
1767373892.698487,2,right_wrist,0.8574,-0.4465,0.1147,-2.17,-8.4,7.7,0.1914950680647378,0.48875052173145556,-0.46070014252784613,0.7156870440974418,-78.30478939308253,-61.16692612404715,-158.56573187814212,1
1767373892.7690399,1,left_wrist,0.181,0.5046,-0.0986,60.83,-3.29,-43.26,0.7523088292051584,0.3007565708668613,-0.5832666371261859,0.05811144978298773,70.17653521382314,-65.85988738146422,-40.09636601134633,1
1767373892.7690399,2,right_wrist,0.8262,-0.4597,0.1132,9.1,-9.59,1.75,0.18631720466756482,0.489388353358231,-0.45846061479472994,0.7180520897011737,-78.064319184761,-60.885705273316226,-158.14045619280833,1
1767373892.819349,1,left_wrist,0.2621,0.6964,-0.164,136.57,24.43,-29.4,0.7387698217943411,0.3554889148887019,-0.5665090584181575,0.08315208071589852,76.26049012410424,-63.65767419063031,-39.110484864339114,1
1767373892.819349,2,right_wrist,0.7818,-0.489,0.121,-5.11,-6.51,-6.3,0.1858002858256589,0.4891286188781034,-0.4604063178913741,0.717117473240758,-78.47790634090826,-60.76367572056838,-157.8795204251596,1
1767373892.902943,1,left_wrist,0.9511,0.3192,-0.0454,66.85,49.21,31.57,0.7365497427878338,0.3667311453815741,-0.555774927406651,0.11881487058624658,74.49329644518248,-64.93908849353632,-33.30937163624815,1
1767373892.902943,2,right_wrist,0.9872,-0.5885,0.0703,-33.04,-5.39,-15.47,0.20034176889418268,0.48837372736410034,-0.47363133214172787,0.705001871820563,-81.05333826416394,-61.448163801823185,-157.85887634825906,1
1767373892.95958,1,left_wrist,1.2454,0.4226,0.4763,18.55,-28.91,34.65,0.7265820906182875,0.3635925105410508,-0.568080606920477,0.1310090680528521,76.63468327373698,-67.04070665229088,-34.81784686784055,1
1767373892.95958,2,right_wrist,0.9399,-0.4987,0.1181,7.98,-16.38,20.86,0.18977836449396718,0.48819658091123036,-0.4749768896992098,0.7071387593734656,-81.56665591501749,-60.54312969595908,-156.5923589673721,1
1767373893.0195122,1,left_wrist,1.4186,0.406,0.2889,29.05,21.07,69.3,0.6991193210819094,0.3744127618869703,-0.567104577228484,0.22235030270418665,74.2709447637915,-73.62744668516098,-23.802552604721292,1
1767373893.0195122,2,right_wrist,0.9209,-0.4978,0.1586,11.41,-14.63,38.64,0.17331535084077243,0.48405500843002963,-0.4787556747082334,0.7116498731197864,-81.9144424662396,-58.749438442674474,-155.29675358559453,1
1767373893.094789,1,left_wrist,1.2478,0.2743,0.1684,-22.4,-22.19,40.53,0.6943174576730156,0.3566058077505877,-0.582044519553629,0.227990664516371,73.48970541221973,-76.13258172229504,-24.272462306680715,1
1767373893.094789,2,right_wrist,0.8345,-0.4124,0.1235,-3.85,4.83,20.23,0.16371785203061534,0.47191717373958847,-0.48553930233107234,0.7174553867300573,-81.28700335982053,-56.734932701673046,-155.97166628260794,1
1767373893.149007,1,left_wrist,1.4225,0.2601,0.1322,-39.48,-15.05,18.06,0.6950017462777232,0.33811280227699225,-0.5936432666684847,0.22414276153042614,71.92430404714722,-77.61735798133587,-24.779542560019994,1
1767373893.149007,2,right_wrist,0.8364,-0.4294,0.1171,1.54,3.99,5.04,0.16573974879831976,0.47105107037571997,-0.4826980871054853,0.7194746565869181,-80.48717628893206,-56.91095679900392,-156.66400102524017,1
1767373893.202144,1,left_wrist,1.2332,0.2801,0.2582,5.11,-17.64,33.53,0.688611309414043,0.3316856968397057,-0.6010742581886712,0.23347119565799634,71.95353434440491,-79.32421471509264,-24.6262258857178,1
1767373893.202144,2,right_wrist,0.8106,-0.4656,0.12,-7.14,10.71,-12.74,0.17608228075942678,0.47028854001195064,-0.478415669083882,0.7203764065479988,-79.19991226698366,-57.784672289763,-158.39449711405425,1
1767373893.265693,1,left_wrist,1.0477,0.1049,0.1444,26.39,-7.35,11.69,0.6758699767047621,0.33299614107914693,-0.6094031746893733,0.24686254331918045,76.62647266431125,-81.17560983368473,-28.060870032325347,1
1767373893.265693,2,right_wrist,0.8564,-0.4904,0.1191,-4.13,11.55,-20.16,0.18852890675650866,0.4713448119024276,-0.4714516238361731,0.7211270942019142,-77.52246548789262,-59.04410903253378,-160.40271598986388,1
1767373893.345654,1,left_wrist,0.9921,-0.1757,0.1796,-70.49,-13.3,-17.64,0.6843769889187065,0.31502965876152245,-0.6183008720009531,0.22380456389900658,76.55519187792369,-80.86316669494491,-31.61171259838407,1
1767373893.345654,2,right_wrist,0.9062,-0.5256,0.1005,6.44,5.67,-11.48,0.198649690853104,0.47578908555089966,-0.46558222615572703,0.7193026046682177,-76.6921641335595,-60.394578530737554,-161.4384434280627,1
1767373893.402387,1,left_wrist,1.0224,-0.161,0.1815,7.98,-1.89,3.64,0.6827346855161399,0.31349345435855286,-0.6187064529011177,0.2297771276825363,75.24787926576366,-81.45210573068266,-29.93288718625305,1
1767373893.402387,2,right_wrist,0.8886,-0.5241,0.0971,6.65,3.22,-5.67,0.19699664706324457,0.47603085546565255,-0.46524789691608087,0.7198134064503399,-76.71309804403973,-60.297666470289215,-161.24124265026904,1
1767373893.463935,1,left_wrist,1.0165,0.0229,0.1503,-1.68,4.62,-5.67,0.6895764621532339,0.30518951698223057,-0.6148565061257358,0.23085739850226866,67.19075791883976,-81.45199095857511,-22.51107240410333,1
1767373893.463935,2,right_wrist,0.9077,-0.51,0.1015,1.75,0.56,-5.81,0.19728808581528015,0.47848898153532954,-0.46581236296791445,0.7177357091930663,-77.30077763048565,-60.534927539636534,-160.70085465236951,1
1767373893.522134,1,left_wrist,1.1131,0.1606,0.3733,-2.31,25.69,-39.27,0.7027810276353003,0.31135516539377095,-0.5997328691909506,0.2224348753916055,63.075485847660424,-78.95417441728772,-18.50635414461039,1
1767373893.522134,2,right_wrist,0.9106,-0.5134,0.0898,6.79,-3.99,-5.39,0.1952141489376121,0.4824672689853217,-0.4654457573872576,0.7158750011996586,-78.05022691144858,-60.74996497025991,-159.6866823687749,1
1767373893.5989969,1,left_wrist,1.3396,-0.3192,0.6515,-58.66,40.88,-98.63,0.7312340913559998,0.3122293570046439,-0.5778262952282002,0.18419094659099,60.61698292925396,-73.7545787287351,-19.081645054605872,1
1767373893.5989969,2,right_wrist,1.0082,-0.5158,0.1176,19.25,-15.68,-5.88,0.19095715459206453,0.4969336259983573,-0.45456195367061686,0.7141188743741332,-78.57337969241604,-62.04830452069342,-157.54392425541033,1
1767373893.6529741,1,left_wrist,1.5304,0.0376,0.3396,-72.31,9.17,-70.91,0.748820668068312,0.30260661930329547,-0.5709541347079325,0.1473370865989732,59.945012336491025,-70.77884295456177,-22.293999423378093,1
1767373893.6529741,2,right_wrist,0.9204,-0.5261,0.1254,27.3,-19.81,3.22,0.17805003285041004,0.5015754881195092,-0.4491958347281452,0.7175955111220588,-78.68107112589993,-61.620091653813994,-155.7692605893591,1
1767373893.706175,1,left_wrist,1.5484,0.6134,0.2025,-89.32,4.13,-73.36,0.7644357041274854,0.2945657140442426,-0.5649014284881987,0.09876978514056682,60.941089015517306,-67.19805956389314,-27.975335260757607,1
1767373893.706175,2,right_wrist,0.8677,-0.4953,0.1269,9.52,-12.25,6.37,0.17020822512491807,0.5019201911259921,-0.4486303942841012,0.7196082622957888,-78.84668648566506,-61.055983985264405,-154.88777918566345,1
1767373893.766453,1,left_wrist,1.0555,0.7496,0.1484,-11.69,-12.11,-10.15,0.7638426319881723,0.2962173288299646,-0.5700093374362728,0.0623625119257046,65.39305835130817,-65.19496006080443,-35.29887391360742,1
1767373893.766453,2,right_wrist,0.8008,-0.4602,0.1298,-1.33,-6.72,5.11,0.16694134488563053,0.500259838324999,-0.45000514041804923,0.720670559357155,-78.90135826120736,-60.609360793623274,-154.71435577497454,1
1767373893.8454452,1,left_wrist,0.956,0.7681,0.2079,11.69,-3.36,8.47,0.7614980275906281,0.30148153393924143,-0.5701513032581089,0.06447580990034146,66.45070713582341,-65.123239993125,-35.71790387946945,1
1767373893.8454452,2,right_wrist,0.8272,-0.4465,0.121,-6.16,-2.8,-11.13,0.17645569152399432,0.49891248377476394,-0.4489762826034624,0.7199791803393073,-78.11434379875017,-61.266119680322774,-156.21176356575702,1
1767373893.899167,1,left_wrist,0.6891,0.5553,0.2538,-4.83,-21.98,17.99,0.7574957091554628,0.2980958743313477,-0.5772887602300478,0.06384972693556575,67.60042464872564,-65.87475824874409,-37.25698089459154,1
1767373893.899167,2,right_wrist,0.8296,-0.4773,0.1186,-2.45,-5.81,-14.56,0.17874085000630685,0.5003281358916715,-0.4474852372857049,0.7193611244608263,-77.99651996625128,-61.618367995837346,-156.35820557720075,1
1767373893.9679308,1,left_wrist,0.3645,0.4124,0.1937,-55.86,-30.24,37.8,0.7496978279753409,0.2578217339043725,-0.6070057586185693,0.055001175073758006,67.85622816155909,-69.80162145986479,-41.88804876381783,1
1767373893.9679308,2,right_wrist,0.8545,-0.4792,0.1401,4.41,-7.56,-12.67,0.179592238245376,0.5028068576261124,-0.44332951811758914,0.7199936320911433,-77.52396249915978,-62.039684906841615,-156.46664718211176,1
1767373894.055551,1,left_wrist,0.6017,0.3231,-0.0669,-51.66,-27.44,27.79,0.7452175082127598,0.2368533563878417,-0.6216707367912322,0.04557244823822885,68.81606153648681,-71.4682737390718,-45.467766304887505,1
1767373894.055551,2,right_wrist,0.8628,-0.4997,0.0986,5.81,-6.02,-5.25,0.1750629317352919,0.5068220083785135,-0.44092920358577303,0.7197679203608828,-77.972728766998,-62.12493201266835,-155.35877820491706,1
1767373894.117962,1,left_wrist,0.6764,0.3528,0.161,-25.27,9.52,11.97,0.7400298120353864,0.2179449000191053,-0.6349495802117441,0.04116950866190589,69.9437775030338,-73.277307069828,-48.599357135540025,1
1767373894.117962,2,right_wrist,0.8735,-0.4924,0.1078,5.11,-4.83,3.22,0.1691394860043378,0.5051342737823324,-0.44239292094027693,0.7214705144539961,-78.13001863016783,-61.46568634662435,-154.8677231529715,1
1767373894.20116,1,left_wrist,0.6651,0.2664,0.0376,-19.11,9.8,1.61,0.743399581695681,0.21464260482634717,-0.6325385433636085,0.03435993724516092,68.66919431136952,-72.78637007064121,-48.15367871586665,1
1767373894.20116,2,right_wrist,0.8769,-0.4353,0.1088,-13.86,0.21,10.78,0.1683277190569383,0.4983248637285929,-0.45068743953538426,0.7212620474085734,-78.61772279989228,-60.52517781026389,-155.20345294565402,1
1767373894.265226,1,left_wrist,0.6583,0.2289,0.0224,40.04,-5.95,-14.56,0.7378921590443338,0.25007354023916917,-0.6257302229507643,0.03794830930525421,74.05881250599012,-70.46246117094115,-50.20558902081996,1
1767373894.265226,2,right_wrist,0.9321,-0.4782,0.1137,-1.68,-0.63,11.27,0.16818804384319083,0.4975629604503404,-0.4504876445218371,0.7219451256357791,-78.42042312305513,-60.453942706373596,-155.37837554751127,1
1767373894.345359,1,left_wrist,0.8242,0.4997,0.0459,51.1,23.31,-36.05,0.7384134789405579,0.2794391071994836,-0.6124536682282945,0.039494604190493075,75.58661788648345,-67.90489374744693,-49.0185747942783,1
1767373894.345359,2,right_wrist,0.8633,-0.4592,0.0844,-3.78,-4.13,6.3,0.16800973170417574,0.5024491565751901,-0.4515243445713314,0.7179438288396943,-79.67683343414068,-60.830483170823236,-154.15253890517963,1
1767373894.4002051,1,left_wrist,0.4402,0.1093,0.0283,40.18,33.04,-31.85,0.7417507353122765,0.29734367830032404,-0.5993061848377841,0.047166518354760274,74.75133459771601,-66.50874705399475,-45.9364804838019,1
1767373894.4002051,2,right_wrist,0.8857,-0.4865,0.0786,-10.85,-3.78,2.52,0.16827675752813945,0.5042471673002163,-0.45748711846797524,0.7128276534909348,-81.41074274260426,-60.791717879677414,-153.00954257020703,1
1767373894.466959,1,left_wrist,0.6886,0.4265,0.1786,34.44,24.71,0.56,0.7445536419383422,0.32502723353126345,-0.578930106806681,0.06954928592135017,73.64625178649173,-65.13483944433369,-40.443955518361726,1
1767373894.466959,2,right_wrist,0.8857,-0.4865,0.0786,-10.85,-3.78,2.52,0.17089283028025076,0.5032669738101576,-0.45906357959388683,0.7118838553592985,-81.50095560474688,-60.86048618878704,-153.3051428315637,1
1767373894.518346,1,left_wrist,0.8194,0.5026,0.2606,90.37,18.97,31.71,0.7369730697831323,0.34614137708101883,-0.5711913826971052,0.10390979655187159,74.59740583979054,-66.04156653490129,-36.62763481966661,1
1767373894.518346,2,right_wrist,0.8555,-0.4817,0.0878,5.04,-9.94,-1.61,0.16767482681722215,0.5044175770227503,-0.4571692475299579,0.71305283083037,-81.38846699349725,-60.76974143866652,-152.94817270076237,1
1767373894.577864,1,left_wrist,0.9223,0.773,0.1659,3.92,26.81,29.96,0.7424496888701679,0.34152631855687077,-0.5646264663479629,0.11543477261637622,71.08451199313973,-66.528961509431,-32.544691319019584,1
1767373894.577864,2,right_wrist,0.8916,-0.4778,0.0971,5.04,-14.35,-1.68,0.16599700480776844,0.5087759533070273,-0.45362210024205746,0.7126142111292478,-81.57399231648094,-61.13051218483619,-152.2239563672856,1
1767373894.649017,1,left_wrist,0.9252,0.5197,0.0825,12.39,-17.5,16.38,0.7346750318257764,0.3458894524111164,-0.5715406182612193,0.11812876872343879,73.94473345344092,-67.14817115569043,-34.830728974494875,1
1767373894.649017,2,right_wrist,0.9257,-0.5095,0.1235,3.22,-5.74,-0.07,0.15888722349219578,0.5102769177552987,-0.4489477309102339,0.7161132957344427,-81.00361200517182,-60.86750824421553,-151.72511636035682,1
1767373894.704024,1,left_wrist,1.3571,0.1986,0.2206,15.19,-8.61,36.82,0.7283803152963104,0.338574771784262,-0.5800419051698804,0.13557517636712765,73.7628395446234,-69.51877229485262,-33.92353036933951,1
1767373894.704024,2,right_wrist,0.8584,-0.4909,0.1181,-1.68,-1.47,-1.75,0.15916840255631717,0.5084700532559624,-0.4482471905715268,0.7177730008256664,-80.44554179965174,-60.76521498565668,-152.25719464857096,1
1767373894.768805,1,left_wrist,1.1341,0.225,0.0805,35.42,-9.73,50.75,0.7119552713853068,0.3287803239814621,-0.5910959363576452,0.18875588502295199,70.86314739809778,-74.96911649480175,-27.539909556784117,1
1767373894.768805,2,right_wrist,0.856,-0.4778,0.0927,-13.72,4.41,-0.91,0.1630496522732174,0.5037975817201342,-0.45105795680934513,0.7184354718034923,-79.98183122778427,-60.5729313366306,-153.37239673593035,1
1767373894.820224,1,left_wrist,1.1248,0.1962,0.1332,-15.19,-36.12,50.68,0.700708758163415,0.31040838379054697,-0.6109709918117868,0.19841451224682818,72.49783437044506,-78.35144799557727,-30.09359325094933,1
1767373894.820224,2,right_wrist,0.8535,-0.4548,0.0903,-6.09,4.48,0.49,0.16820316625328918,0.5029313106709128,-0.4495067616889932,0.7188264483205113,-79.31520751745346,-60.95723149053867,-154.32630786919168,1
1767373894.899169,1,left_wrist,1.4381,-0.1908,0.4548,19.81,-20.86,33.81,0.6903858583447173,0.3064131069749981,-0.6195380086839525,0.21366101719190358,74.28030050632466,-80.53200151842147,-30.971549546316474,1
1767373894.899169,2,right_wrist,0.8496,-0.4836,0.0844,0.07,4.83,-8.54,0.17322615005668213,0.5033470363194051,-0.44528952309633785,0.7199664593476889,-78.2943389873151,-61.528883991772865,-155.34860716181475,1
1767373894.951929,1,left_wrist,1.1566,0.1035,0.4558,75.39,51.52,42.42,0.6915642369970582,0.31109208291703355,-0.6000799295963309,0.2546854926152664,55.31160043372527,-81.28298289687487,-8.00197672097795,1
1767373894.951929,2,right_wrist,0.9082,-0.4719,0.0834,8.19,0.7,-5.46,0.17399077947371908,0.507541531295784,-0.44203707954934435,0.7188407493816311,-78.4224857393898,-62.067959696237736,-154.9194677937885,1
1767373895.0166578,1,left_wrist,0.9648,-0.1981,0.2069,-27.16,-35.0,-30.03,0.7049217550538132,0.2964924677907214,-0.6046214684046861,0.22273395731091644,57.9579469386817,-79.89880906329368,-14.701859426936576,1
1767373895.0166578,2,right_wrist,0.9067,-0.4987,0.1147,12.32,1.4,-4.34,0.17093599916968008,0.5057558526259033,-0.437882430821135,0.7233608217899852,-77.16493684275831,-61.810214159639756,-155.53625730081572,1
1767373895.0991302,1,left_wrist,1.038,-0.0264,0.2259,-15.33,2.73,-3.08,0.7087764537274234,0.2892739650022901,-0.6043453160162984,0.22073343838800694,54.50362481056026,-79.86515070018262,-12.051974266149308,1
1767373895.0991302,2,right_wrist,0.9257,-0.5256,0.0786,-2.94,6.37,-4.9,0.171607458155573,0.5026589443345555,-0.44030948832231204,0.7238870219027257,-77.04900253793264,-61.50483275522065,-155.9797034951405,1
1767373895.165181,1,left_wrist,1.039,0.2152,0.1332,-8.68,-6.23,-1.26,0.7048340266431843,0.2951876246769402,-0.6030367925126288,0.22895389928896537,54.88869418160226,-80.14712984251386,-11.210876962118839,1
1767373895.165181,2,right_wrist,0.9077,-0.4978,0.0732,1.19,2.17,2.03,0.16968199551434004,0.5029003031681146,-0.4426782784233119,0.7227276439184147,-77.7056967883912,-61.300334795946355,-155.39046518892675,1
1767373895.2219808,1,left_wrist,1.097,0.1122,0.162,-33.74,-0.63,-21.91,0.7125388206891853,0.2879398012320505,-0.60248275507872,0.21539180511353626,54.33713864353209,-79.30359700564213,-12.447904661930558,1
1767373895.2219808,2,right_wrist,0.8784,-0.4787,0.0839,-0.91,-1.75,3.71,0.16693617623061974,0.5038695014068001,-0.4463536641730889,0.7204278208792464,-78.83082456399671,-61.04833240313031,-154.38469543869036,1
1767373895.272319,1,left_wrist,1.2464,0.0673,0.1752,24.43,-11.97,-61.39,0.7119364079527685,0.3092594272738778,-0.5964649020655854,0.2042909157976287,63.70228639772133,-77.32958766546884,-20.842057109902182,1
1767373895.272319,2,right_wrist,0.9257,-0.4929,0.0795,2.59,-4.48,1.68,0.16542329972581207,0.5077285550150414,-0.44707511903768093,0.7176145791910904,-79.86521395105896,-61.237298785652705,-153.25193369085068,1
1767373895.354434,1,left_wrist,1.6446,0.141,0.3021,29.89,-33.81,-103.53,0.7086011564604194,0.3452054581468669,-0.5891856872981213,0.17770148736464875,76.46009399160147,-73.27208278250602,-32.56890830499324,1
1767373895.354434,2,right_wrist,0.9443,-0.4787,0.1205,16.17,-14.84,12.39,0.15250096511110514,0.5163673183534324,-0.44006144977774875,0.7186474577956653,-80.50788037009788,-61.21011471901561,-150.7556784885326,1
1767373895.419189,1,left_wrist,1.4235,0.5578,0.3987,7.42,-23.1,-68.32,0.7094021885587383,0.38169701031480857,-0.5790721416971834,0.1254248057405186,84.52765118037124,-66.54005840298579,-41.560122917393024,1
1767373895.419189,2,right_wrist,0.894,-0.4924,0.1283,6.44,-6.02,8.89,0.14723479237321874,0.5147674688856707,-0.4390600200185859,0.7215002894754333,-80.05819356687952,-60.703548232281506,-150.68670857417433,1
1767373895.498008,1,left_wrist,1.0638,0.3826,0.3177,-15.19,0.77,-25.76,0.7156323405421144,0.38161816988702746,-0.573663771252844,0.11466387022186056,83.04852718733056,-65.30989465226412,-40.94262167906363,1
1767373895.498008,2,right_wrist,0.8794,-0.4573,0.0986,-7.7,-0.49,-8.61,0.15830982799910823,0.5156462855359236,-0.4349882617530516,0.720993840964648,-79.04773557759299,-61.797329475041536,-152.21249610114884,1
1767373895.549043,1,left_wrist,0.8037,0.4241,0.1679,-10.22,-4.62,26.18,0.7172037596294146,0.3715764247319865,-0.5774143384703085,0.11892186294253541,81.79543939537236,-66.43750416181337,-40.29455958490833,1
1767373895.549043,2,right_wrist,0.834,-0.4519,0.1127,2.66,-2.73,-8.05,0.15928564576330256,0.5156379512353062,-0.4317055422123735,0.7227557755720422,-78.26627072945766,-61.992924028954455,-152.75692074392674,1
1767373895.613792,1,left_wrist,0.5431,0.5207,0.1269,-5.39,0.7,50.96,0.7258250491777477,0.33254073178965665,-0.5884118612809119,0.1279302200062699,75.42431284685266,-69.92634238136715,-36.80631583364001,1
1767373895.613792,2,right_wrist,0.8301,-0.4568,0.124,-1.96,-6.23,-10.36,0.16090758333875757,0.5166177635612643,-0.43009855246619433,0.7226548769388625,-78.06614056560083,-62.261974631140085,-152.92658303003324,1
1767373895.6703942,1,left_wrist,0.4987,0.3987,-0.0586,-56.35,-18.9,54.74,0.7247254215084425,0.3051129823095101,-0.6050436919915232,0.1249050128172348,74.33068701813126,-72.40202832014846,-38.490561021583744,1
1767373895.6703942,2,right_wrist,0.8633,-0.4904,0.1191,-2.8,-4.34,-12.25,0.16235835080509078,0.5170065851345612,-0.4297016391940405,0.7222883483244801,-78.01648752322677,-62.422687752947986,-153.05479864807833,1
1767373895.7529511,1,left_wrist,0.3787,0.307,0.0107,-34.3,-0.7,45.43,0.7265712982461618,0.28572830502593227,-0.6118804290788716,0.1267115810893017,71.32548409200501,-74.06205938920766,-37.07243448940644,1
1767373895.7529511,2,right_wrist,0.9048,-0.5095,0.1498,-0.84,0.98,-6.02,0.16298791632959794,0.5139871734778839,-0.42646551496542934,0.7262088468037433,-76.57111196942023,-62.31823431924897,-154.27148527303052,1
1767373895.815233,1,left_wrist,0.6417,0.2601,-0.0239,6.58,14.28,38.5,0.7259371439962972,0.2711905859714276,-0.6127939218441995,0.15477253760851192,63.46755257187971,-76.8167076257778,-28.167052371675677,1
1767373895.815233,2,right_wrist,0.9048,-0.5095,0.1498,-0.84,0.98,-6.02,0.16362633057300535,0.5116859338165124,-0.42580853181402056,0.7280735013114579,-75.89444603490044,-62.182307203117375,-154.96239575186817,1
1767373895.8657541,1,left_wrist,0.711,0.2079,-0.0913,-8.26,19.74,2.66,0.7297854784427743,0.2684798397944702,-0.6094997521200913,0.15440784709182998,61.00505969910372,-76.53661964874256,-25.95738453164303,1
1767373895.8657541,2,right_wrist,0.8906,-0.4802,0.1078,-2.45,5.25,1.89,0.16141496774030153,0.5082935006102159,-0.42995519764140294,0.7285063166836319,-76.20157504434606,-61.56916293384142,-154.90758779595058,1
1767373895.951105,1,left_wrist,0.7676,0.161,0.0176,-34.44,1.54,-29.12,0.733685088171815,0.2662092105717651,-0.6102684362672246,0.13568818407300692,63.2513655700699,-75.40532462538275,-29.95370846777256,1
1767373895.951105,2,right_wrist,0.8857,-0.4743,0.0908,1.33,-2.17,8.54,0.1550200856237831,0.511153917180455,-0.43400932537425113,0.7254835294425772,-77.93640615759949,-61.19062260520123,-153.00194884461763,1
1767373896.015624,1,left_wrist,0.913,0.2284,0.1498,27.51,35.98,-29.68,0.7458177297508073,0.2950590987188122,-0.5812335603310643,0.13734478729631108,61.82649722180128,-71.44853287584488,-25.731330087377156,1
1767373896.015624,2,right_wrist,0.9091,-0.4558,0.0908,6.44,-6.02,7.49,0.1526702711845037,0.5151605477099284,-0.4324509076272487,0.7240770752288914,-78.5256448488104,-61.411217739879575,-152.02417679836933,1
1767373896.068429,1,left_wrist,0.6847,0.184,0.0356,-3.5,11.48,-18.69,0.7478724920298913,0.298576252192249,-0.5780227608183817,0.13201759453848147,62.431066075916675,-70.63221730286311,-26.4479237715985,1
1767373896.068429,2,right_wrist,0.894,-0.4372,0.1088,8.68,-10.71,4.34,0.1504303949390501,0.5194289274317228,-0.42810437000639784,0.7240793699637055,-78.55907476624695,-61.765089273448325,-151.340767137421,1
1767373896.1454349,1,left_wrist,0.2816,0.1937,0.0922,0.42,2.94,-49.35,0.7527036870713466,0.3131254909018207,-0.5678245865646094,0.11386318680515,65.06274505701128,-67.83697899327039,-29.2258427611224,1
1767373896.1454349,2,right_wrist,0.8442,-0.49,0.1088,0.28,-3.43,-10.43,0.14774332131420284,0.5200120617198208,-0.4255544048689681,0.725715381654246,-78.1945722009653,-61.70360077479783,-151.23026202412547,1
1767373896.198875,1,left_wrist,0.4319,0.0708,0.1318,78.12,-19.25,-25.48,0.7393094329680981,0.342822238023788,-0.5660252353260106,0.12453878277422198,71.25507605340987,-67.26837142943454,-31.85635649474761,1
1767373896.198875,2,right_wrist,0.8652,-0.4529,0.1049,8.26,-11.48,-11.55,0.14849093385720866,0.5247858763798098,-0.41884196884457364,0.72603142607527,-77.7341228482723,-62.42560658333082,-151.06109115317568,1
1767373896.255573,1,left_wrist,0.7915,0.7491,-0.08,131.81,18.06,12.88,0.7211633649124002,0.38407687495962806,-0.5537391877311622,0.16056546079497633,76.29679345561635,-67.22198722886945,-30.0321450768541,1
1767373896.255573,2,right_wrist,0.9267,-0.5158,0.1137,5.88,-16.17,-6.09,0.14314489509376732,0.5285678781191091,-0.41885322312271367,0.7243531698756975,-78.77940872464039,-62.33199172814067,-149.53785912438934,1
1767373896.320406,1,left_wrist,0.7452,-0.1088,0.3904,84.35,26.88,15.12,0.7282504337995378,0.39051817120150856,-0.5375562660887878,0.1678693671307982,73.22441729427797,-66.07304368016226,-25.61681896789921,1
1767373896.320406,2,right_wrist,0.8052,-0.6246,0.1352,13.23,-12.18,8.26,0.1323043721352966,0.5289406865659655,-0.4194980050236278,0.7257676811419799,-79.31455814173339,-61.49541805275859,-148.1638231590356,1
1767373896.396895,1,left_wrist,1.0931,0.4363,0.2489,95.41,-33.39,45.99,0.7020293043231763,0.4101201323329728,-0.5467313161759854,0.200102975588012,79.56183360157226,-68.71326925553144,-27.47573668550021,1
1767373896.396895,2,right_wrist,0.8594,-0.4607,0.1313,0.28,2.38,3.57,0.13230126404521422,0.5219405550446227,-0.4211322782445552,0.7298780971863044,-78.09922325960937,-60.848957972993496,-149.6015658674647,1
1767373896.451062,1,left_wrist,1.3942,0.347,0.3011,7.56,-11.2,56.0,0.6942867489047289,0.39715409071468477,-0.5587356430795963,0.21920086604829844,78.89495710653891,-71.79752294607032,-26.51030886872732,1
1767373896.451062,2,right_wrist,0.8818,-0.4665,0.1244,-3.15,-0.07,5.11,0.13296372946095583,0.5197782558782067,-0.4207291989509543,0.7315313749348906,-77.52133722166145,-60.7330772698845,-150.21655583773992,1
1767373896.518859,1,left_wrist,1.4733,0.2528,0.246,24.22,-16.59,43.4,0.6818475886321754,0.3671540648465005,-0.5830528972845906,0.2456238537097404,76.73930247961852,-77.28319401504986,-25.043795487224394,1
1767373896.518859,2,right_wrist,0.8808,-0.468,0.1093,-1.89,3.01,7.98,0.1346179159429994,0.5186863414789168,-0.41967743020506904,0.7326072279515466,-77.00614735273327,-60.806677385573735,-150.77841686901175,1
1767373896.5977669,1,left_wrist,1.1946,-0.0439,0.1962,-54.25,18.34,34.79,0.6913913855064614,0.33679770256683556,-0.5891039394854276,0.24799558075882427,65.50913851427015,-79.00729257185216,-16.417439890014514,1
1767373896.5977669,2,right_wrist,0.9048,-0.4494,0.1313,1.12,3.08,0.21,0.13798835710722124,0.5187711741556242,-0.4139512607977292,0.7351734733054609,-75.65476406135072,-61.28429751801974,-151.85984064889269,1
1767373896.6522582,1,left_wrist,1.1839,-0.1225,0.2186,4.76,-22.26,-0.28,0.6850405364645115,0.3374504225919181,-0.5957352135431732,0.24888999786576432,69.35840203783958,-79.79547210261497,-20.161693609615067,1
1767373896.6522582,2,right_wrist,0.8574,-0.4592,0.1166,3.36,7.28,-6.51,0.13736647698521945,0.5154858651712529,-0.41388853061804387,0.7376320614182591,-74.96808521213948,-60.94885821643611,-152.52194894315485,1
1767373896.713463,1,left_wrist,0.9862,0.2747,0.142,-24.5,0.21,2.17,0.6887310497219715,0.3235060115841005,-0.6022462751393518,0.2414390724356671,67.13327509919253,-80.32790125078263,-19.86390305419709,1
1767373896.713463,2,right_wrist,0.913,-0.467,0.1005,-4.83,6.51,-8.26,0.14330334256752292,0.5174895863195192,-0.4134137656475774,0.7353623177950567,-75.06858085839659,-61.5907568641352,-152.84830384170678,1
1767373896.7673442,1,left_wrist,1.0458,-0.0712,0.1767,-46.97,-8.4,-16.38,0.6950452456150769,0.31127347839074554,-0.6074488676294085,0.22589112734712036,66.6785411148,-80.07583591968046,-21.854833785234078,1
1767373896.7673442,2,right_wrist,0.9135,-0.4743,0.1035,3.71,4.2,-9.59,0.14611215931820787,0.5203650523728017,-0.4112139913027067,0.7340126037918693,-75.09021158473078,-62.137995580291886,-152.8214135648953,1
1767373896.8498719,1,left_wrist,1.0228,-0.1191,0.1586,15.96,-2.17,4.9,0.6917805126226039,0.311716828714936,-0.607708238789361,0.23444197055784094,65.38400853367605,-80.73720618380285,-19.791200900738517,1
1767373896.8498719,2,right_wrist,0.913,-0.5158,0.0961,-1.89,1.19,-7.21,0.14717559527658938,0.5227570313283422,-0.4130357645377964,0.7310717389999688,-75.99464642947657,-62.365364465521466,-152.15558780704404,1
1767373896.8998778,1,left_wrist,1.0311,0.0678,0.1649,0.42,0.63,0.63,0.6931491102839324,0.3089533616821689,-0.6065113927998652,0.23714143801083626,62.44582127290053,-80.87220055589424,-16.863218873488535,1
1767373896.8998778,2,right_wrist,0.9028,-0.49,0.103,6.93,-4.55,-2.17,0.14246858307397375,0.5242256798568339,-0.41397745022918736,0.7304196123580438,-76.70331185303893,-62.100167403566985,-151.13208847146902,1
1767373896.959106,1,left_wrist,1.1053,0.0805,0.2011,-7.84,-1.4,-27.65,0.6982483409422144,0.31168681755694966,-0.6025869332067533,0.2284503667345397,63.576393890715806,-79.71139808498056,-18.477661524579077,1
1767373896.959106,2,right_wrist,0.8994,-0.4958,0.1127,1.96,-6.3,1.75,0.13708866376400367,0.5235734680293097,-0.41692244067871537,0.7302418779429624,-77.39138057726935,-61.51971243561746,-150.28607474684037,1
1767373897.018157,1,left_wrist,1.076,0.2235,0.1981,-29.68,-8.05,-26.53,0.7076651685888189,0.3080893192724287,-0.6012175111560245,0.20695044043385238,65.01447434496382,-78.0807980407214,-22.055621547623304,1
1767373897.018157,2,right_wrist,0.8994,-0.4924,0.123,0.28,-4.13,1.61,0.13432849140288192,0.5216270595739484,-0.41765845816712904,0.73172568592275,-77.21092224363348,-61.11401282299972,-150.3272594981354,1
1767373897.102944,1,left_wrist,0.8647,-0.0537,0.0878,-3.64,-2.66,5.18,0.7062476843301855,0.30250236370889816,-0.6044872430599149,0.2104796933354941,63.49713073521942,-78.86552359639494,-20.749382719591875,1
1767373897.102944,2,right_wrist,0.8633,-0.4875,0.1259,-6.86,-2.38,2.59,0.13046744588349876,0.5170957550194478,-0.42080121110930496,0.7338368799906732,-77.0401994239386,-60.3113435566406,-150.52464443349976,1
1767373897.1648052,1,left_wrist,0.997,0.2899,0.0761,-22.75,0.14,11.9,0.7063061557321739,0.2868823109866799,-0.6115813427513761,0.21165636115223183,59.17587430596065,-80.18666801955142,-17.733995439008414,1
1767373897.1648052,2,right_wrist,0.9223,-0.488,0.1283,-2.38,-3.85,0.7,0.13292193040271233,0.5186797481893026,-0.41863725879228353,0.7335161380550401,-76.83181598875558,-60.71672354836177,-150.71262990120948,1
1767373897.216095,1,left_wrist,1.1605,0.1957,0.122,-10.43,-14.77,-14.56,0.707325434111343,0.29025595555943184,-0.6124398997336822,0.20089693809433454,63.69473178210079,-79.42380804371814,-22.869061535992515,1
1767373897.216095,2,right_wrist,0.9306,-0.5236,0.1347,7.35,-6.37,6.02,0.12672685545383214,0.5170414857302441,-0.4181839402327814,0.7360235038855967,-76.58357486716305,-60.12332879290174,-150.42124194792035,1
1767373897.2664251,1,left_wrist,1.1614,0.1649,0.1767,17.64,-3.99,-15.75,0.7073510477678037,0.29840374038702966,-0.6082305202635004,0.20165648307161382,65.11788781176492,-78.75875787371601,-23.493709172842763,1
1767373897.2664251,2,right_wrist,1.0072,-0.5231,0.1469,-0.91,-6.3,7.14,0.12648810765629212,0.5186594488265845,-0.4171023315766132,0.7355397880181512,-76.69935674949161,-60.28552216883717,-150.1660364631256,1
1767373897.317224,1,left_wrist,1.1024,0.0498,0.1669,1.33,-5.88,-14.14,0.7074659297711358,0.2998384225405581,-0.6080020882088817,0.1998057539589171,65.96126484913485,-78.55060515412126,-24.365470682612365,1
1767373897.317224,2,right_wrist,1.0521,-0.5285,0.1527,7.77,-10.01,7.84,0.12347248065466486,0.5220176522791155,-0.4135987954611666,0.7356549147685049,-76.7577937523044,-60.48024266749041,-149.4906453161609,1
1767373897.3959308,1,left_wrist,1.1629,0.0913,0.185,12.18,7.0,5.46,0.7082369063886791,0.29849810405324306,-0.6049043829000168,0.20830279367776725,62.22042699871412,-78.86865561749852,-20.01269151108918,1
1767373897.3959308,2,right_wrist,1.0521,-0.5324,0.1249,-1.89,-6.86,2.17,0.12337448894139402,0.5263463693807047,-0.4105139957868781,0.734313621132886,-77.03783715513029,-60.96230087790086,-148.86739944848324,1
1767373897.452142,1,left_wrist,1.0624,0.1635,0.1444,18.34,4.83,16.8,0.7074129382982519,0.2971813726380973,-0.6021534078470769,0.22059338136789583,57.61283886212882,-79.43724255937923,-14.46725638661296,1
1767373897.452142,2,right_wrist,0.9589,-0.5612,0.1035,3.71,-7.63,6.72,0.11605351131959667,0.5270412214533211,-0.4146166850928755,0.7327019433862442,-78.28296460670339,-60.29215860256275,-147.403815088381,1
1767373897.516264,1,left_wrist,1.0331,0.142,0.0185,32.41,-2.59,18.69,0.6873769824365682,0.31146686403433776,-0.6082051756359901,0.24614577175854052,62.81132798450832,-81.67589925204108,-16.237682173289866,1
1767373897.516264,2,right_wrist,0.9296,-0.5309,0.0742,-8.33,-4.9,9.52,0.1129902911964602,0.5279993121976774,-0.4218832782782124,0.7283298839971809,-80.09638067814541,-59.82027902198209,-146.02671578631453,1
1767373897.5685382,1,left_wrist,0.9165,0.163,0.0146,-10.85,-34.09,5.81,0.6777998398289355,0.3130814123600673,-0.6212733029960561,0.23787998937881522,76.05168654027136,-82.37144208130216,-30.086254558238938,1
1767373897.5685382,2,right_wrist,0.8847,-0.4958,0.0556,-8.33,-11.62,13.51,0.10881388819675296,0.531239386730681,-0.429177009835126,0.7223235742729809,-82.41309159346666,-59.41263978335465,-144.04196921773118,1
1767373897.646921,1,left_wrist,0.9233,0.1352,-0.0146,-43.4,-44.94,-4.48,0.6697308132770282,0.30788913943830437,-0.6399641904377239,0.21705011062107205,93.69820729012437,-82.24843727846735,-50.01536433032884,1
1767373897.646921,2,right_wrist,0.7871,-0.4714,0.0117,-17.08,-19.6,9.45,0.10029845655109014,0.5392373740316703,-0.44811193796350807,0.7059454406081864,-88.16137856508539,-58.34616287673567,-139.37846421729023,1
1767373897.71727,1,left_wrist,0.874,0.203,0.0137,-56.35,-55.51,-18.27,0.6599724246260521,0.2943644845357692,-0.6740259441304106,0.15321545488725802,114.23343133607915,-78.48700165650794,-77.13841218338617,1
1767373897.71727,2,right_wrist,0.7871,-0.4714,0.0117,-17.08,-19.6,9.45,0.1005813880219941,0.545510075160695,-0.45458218880843493,0.696891078935492,-90.92439389856142,-58.40440589211206,-137.23030591198025,1
1767373897.802426,1,left_wrist,0.8901,0.2308,0.0171,-53.9,-46.2,-22.82,0.6570425493557838,0.2889748638924233,-0.6851964772730585,0.12367054583448267,116.75465947332498,-76.38072448241141,-82.57659464336606,1
1767373897.802426,2,right_wrist,0.7579,-0.5397,-0.0102,-17.36,-25.34,1.19,0.08883278806971728,0.5537721797611621,-0.47073597374800524,0.6810673620911878,-95.9435491566844,-56.92384247518146,-132.81185902777895,1
1767373897.863997,1,left_wrist,0.854,0.263,-0.0234,-35.84,-34.44,-36.47,0.6531918706930716,0.28703241881365266,-0.6972167420150821,0.06958150087734565,116.23821730406183,-71.94822913895254,-86.65244981607586,1
1767373897.863997,2,right_wrist,0.7959,-0.5563,-0.0283,-22.96,-24.85,-0.77,0.08733860429768285,0.5575550622462628,-0.47891036390422875,0.6724203923945332,-98.37137519719552,-56.45763768429159,-131.0688717544328,1
1767373897.918128,1,left_wrist,0.8808,0.1996,-0.0522,-14.77,-25.27,-34.79,0.6503926077742168,0.2919688704679925,-0.6991660820706249,0.05394834670599586,115.95681241886643,-70.21465476112843,-87.2038607867712,1
1767373897.918128,2,right_wrist,0.772,-0.528,-0.0181,-11.41,-30.24,7.84,0.08100493694363169,0.5621095205001836,-0.4843561447742847,0.6654849451138652,-100.35314151212714,-55.753214654115254,-129.10314497223735,1
1767373898.001337,1,left_wrist,0.8877,0.1791,-0.08,-18.2,-19.18,-33.25,0.6488769319282984,0.29450713190470884,-0.700471200144001,0.039552171083315185,115.34540958635431,-68.8019327701241,-87.53505486420082,1
1767373898.001337,2,right_wrist,0.7481,-0.5046,0.0166,-9.03,-23.03,20.79,0.06680708869696386,0.5670632017431793,-0.49628822872945383,0.6539679901594508,-103.31819077489956,-53.90035243384476,-126.19668654904551,1
1767373898.066048,1,left_wrist,0.9111,0.1854,-0.1366,-9.52,-2.38,-7.98,0.6493976815268119,0.29087089649162506,-0.702032204297421,0.02876728925470607,114.66183899458834,-68.20701774712734,-88.04789051691151,1
1767373898.066048,2,right_wrist,0.7637,-0.5114,0.0156,-5.11,-12.46,10.08,0.06319011696071498,0.5668713861638799,-0.49885175146306854,0.6525417769992672,-103.6205889635163,-53.4040410157927,-125.87047481040464,1
1767373898.122092,1,left_wrist,0.8994,0.2006,-0.1791,-3.36,4.34,7.21,0.6498223409365712,0.2851827329796623,-0.7037446228767701,0.03384139184487098,115.37066735175165,-69.05434492656225,-88.84649177023567,1
1767373898.122092,2,right_wrist,0.7418,-0.5275,0.0127,-4.41,-3.71,-1.61,0.0642986719346815,0.5665492607630146,-0.49826155458087884,0.6531638685222597,-103.47291940564185,-53.53057135143244,-126.04759410492039,1
1767373898.201993,1,left_wrist,0.8901,0.182,-0.1845,-5.88,0.0,19.25,0.6487569750655634,0.2752763518106584,-0.7082857959538906,0.0408478724973321,117.36130056056706,-70.3049403659273,-91.13482919038682,1
1767373898.201993,2,right_wrist,0.7696,-0.5871,-0.0386,-35.77,20.93,-11.83,0.08909995981137939,0.5563811290159277,-0.5045519372294253,0.6541625020395209,-102.87920726877512,-54.86899677811564,-129.36755617591288,1
1767373898.271327,1,left_wrist,0.9438,0.1781,-0.1401,-45.22,-7.63,40.32,0.6508209460525769,0.22945613582420873,-0.7220672261829442,0.04899896717605536,123.01004342475079,-74.22973660905554,-100.0791533142923,1
1767373898.271327,2,right_wrist,0.8028,-0.59,-0.0678,-20.3,24.43,-7.77,0.1006826298691935,0.5478733533926041,-0.5068714837516886,0.6578594801660362,-101.59198056039011,-55.37753565263404,-131.89397819853005,1
1767373898.356534,1,left_wrist,0.9579,0.2289,-0.1152,-55.93,-8.26,39.2,0.6553639397061074,0.20064584120306975,-0.7269820243655365,0.04167120336861833,124.19416032622827,-75.83567799630961,-104.30897479204275,1
1767373898.356534,2,right_wrist,0.7964,-0.5832,-0.1078,-22.54,29.05,5.53,0.11386356895977912,0.5246867248885086,-0.5207021400286287,0.663783255106001,-99.2239593416281,-54.60066631615263,-136.97467800602644,1
1767373898.413606,1,left_wrist,0.9945,0.3016,-0.06,-40.04,-1.4,35.84,0.6635133760215884,0.15305498878042348,-0.7319320707710927,0.02448701751130005,125.27087385094327,-78.17810157960189,-110.7693446420615,1
1767373898.413606,2,right_wrist,0.7964,-0.5832,-0.1078,-22.54,29.05,5.53,0.12119396900054874,0.5135157422694379,-0.529829022392543,0.6639991049315689,-98.72061307832965,-54.13230749521584,-139.1539377077835,1
1767373898.4680068,1,left_wrist,1.0077,0.2918,-0.062,-29.68,1.05,28.07,0.6670893704495627,0.1376950637674205,-0.7318597231877295,0.02032699738948091,125.33708533353823,-79.12148104740699,-112.44772233901845,1
1767373898.4680068,2,right_wrist,0.8579,-0.5841,-0.1596,-33.6,27.02,1.89,0.13478549257604935,0.5056520846903823,-0.5395437101613096,0.6595767014265065,-99.23718363695596,-54.33874988191015,-140.87958217028415,1
1767373898.519146,1,left_wrist,0.9999,0.3099,-0.0795,-16.45,2.24,13.16,0.6695459377581928,0.13160578188844024,-0.7308525662931228,0.01557824597928922,123.8509235788117,-79.35144517859914,-111.85122999148494,1
1767373898.519146,2,right_wrist,0.8779,-0.5724,-0.1693,-28.7,14.56,4.2,0.14418115418411198,0.5012265509457208,-0.5485487205901062,0.6535120814064203,-100.32316111263174,-54.419219869756205,-141.59608402690566,1
1767373898.603244,1,left_wrist,0.9794,0.3055,-0.1161,-0.56,2.94,-3.08,0.6703381887378365,0.13573181553215663,-0.7294542249005126,0.010959961077192892,121.33376510705644,-78.79472789395285,-109.36877183921584,1
1767373898.603244,2,right_wrist,0.8369,-0.5344,-0.1401,-7.91,-8.75,14.91,0.14289440126223887,0.5005843095499436,-0.5609335057905683,0.6437003504751379,-102.6962055157844,-53.58719031831252,-140.49357152625456,1
1767373898.672051,1,left_wrist,1.0111,0.2303,-0.1269,12.88,-0.21,-21.84,0.6671309506405059,0.16010765613190608,-0.7275313223642447,9.013531732598453e-05,117.23212394264557,-76.10708695527195,-104.12700665953858,1
1767373898.672051,2,right_wrist,0.8628,-0.5363,-0.1049,0.28,-14.21,11.69,0.13948077890326155,0.5030594529621186,-0.5615533363222892,0.6419767515785126,-103.25853689895374,-53.374951385981966,-139.69452605701204,1
1767373898.748991,1,left_wrist,0.9911,0.2201,-0.1288,9.17,-3.78,-27.23,0.6625980811272663,0.17216239478384537,-0.7288989000564913,-0.00550329039694528,117.29420009392794,-74.58785783210604,-103.63467559840494,1
1767373898.748991,2,right_wrist,0.834,-0.5446,-0.0542,2.66,-13.58,4.48,0.1313332848102302,0.5085525468949748,-0.5593323073950836,0.641305890548092,-103.75881663232461,-53.05314531759111,-138.22367737341654,1
1767373898.813715,1,left_wrist,0.9784,0.1962,-0.1235,17.99,-6.51,-26.46,0.6559155642952293,0.19298519167435502,-0.7297353395312332,-0.004221676079370181,118.27970966176228,-72.87411809811482,-102.76471291567255,1
1767373898.813715,2,right_wrist,0.8203,-0.5378,-0.0473,2.03,-10.15,0.77,0.12994415155742023,0.5107370542872017,-0.5571894764167246,0.6417180582035311,-103.76084210136271,-53.1592766699957,-137.84887799900346,1
1767373898.8675148,1,left_wrist,0.9599,0.1771,-0.1137,12.46,-9.1,-24.43,0.6529087453343821,0.20119707586856747,-0.7302116488805912,-0.004566701972878982,118.6817745957075,-72.1169948307989,-102.49938095082888,1
1767373898.8675148,2,right_wrist,0.7979,-0.5368,-0.0434,2.8,-5.67,-2.87,0.1301744092137352,0.5123143137969934,-0.5539083344355235,0.6432528461712665,-103.45331961998095,-53.44684321019971,-137.79679011545056,1
1767373898.95214,1,left_wrist,0.955,0.1893,-0.1108,8.61,-8.4,-17.78,0.6508153674519699,0.206344373439546,-0.7306446214578319,-0.00444906427689967,119.05680397297351,-71.65770190290448,-102.42739559349202,1
1767373898.95214,2,right_wrist,0.7959,-0.5632,-0.0561,5.39,2.52,-12.11,0.1356369645807396,0.5146057914898327,-0.5431495338863508,0.6494398178765189,-101.93974476208655,-54.66191384465778,-138.5554922846826,1
1767373899.017152,1,left_wrist,0.9404,0.1884,-0.1,4.34,-2.73,-1.54,0.6505010634420524,0.2074452480639421,-0.7306262090646479,0.00042207140382730264,119.71725683793414,-71.9379620040306,-102.59907286804622,1
1767373899.017152,2,right_wrist,0.8028,-0.5851,-0.0756,2.73,6.44,-13.93,0.13973854581966752,0.5138964267179837,-0.538047388914087,0.6533671316353662,-100.84405040770264,-55.27524343691712,-139.44018887595513,1
1767373899.067981,1,left_wrist,0.9306,0.203,-0.1074,3.22,-0.7,4.97,0.6518158345465338,0.20412124490186057,-0.7303700863092096,0.005492926250928041,120.20141771131946,-72.62601724788195,-102.95455591004503,1
1767373899.067981,2,right_wrist,0.8169,-0.589,-0.0976,0.21,7.77,-12.81,0.142284624754061,0.511799071540953,-0.5357967295649863,0.6563068341224854,-99.97048061745406,-55.514118066744864,-140.29954701610606,1
1767373899.147125,1,left_wrist,0.9506,0.2025,-0.1083,2.1,2.94,12.25,0.6543965080143663,0.19819635462482296,-0.7296069587596472,0.012533995433741545,120.70994877957148,-73.71380250091602,-103.39506334861849,1
1767373899.147125,2,right_wrist,0.8374,-0.6017,-0.1166,3.29,3.5,-4.27,0.13981678545934367,0.5108186661125895,-0.5362856329300388,0.6572010930967769,-99.79926508552839,-55.223642489388226,-140.32911595274848,1
1767373899.2063842,1,left_wrist,0.9438,0.2152,-0.122,1.47,5.81,18.27,0.6579700317498216,0.19024721603407246,-0.7283075593323262,0.021202196344107006,121.26408757609128,-75.12237345262163,-103.91908537212868,1
1767373899.2063842,2,right_wrist,0.8218,-0.5915,-0.1235,2.52,0.49,-1.33,0.13722559692794525,0.5111054810980068,-0.5379891757197471,0.6561310612581388,-100.15439041306992,-54.92057351450406,-139.9420504780105,1
1767373899.267019,1,left_wrist,0.975,0.2313,-0.1371,-1.75,4.97,18.69,0.6594157923522314,0.1838357668359988,-0.7284684939769086,0.026624742464740114,122.33550895201424,-76.0523637421825,-105.0900872012653,1
1767373899.267019,2,right_wrist,0.833,-0.5924,-0.1171,1.75,-1.96,-0.21,0.13382685832787797,0.5116706824423901,-0.5403211670760969,0.654474232593273,-100.67555532801221,-54.52506937582139,-139.38883259427337,1
1767373899.356199,1,left_wrist,0.9892,0.2377,-0.1293,0.14,2.52,12.88,0.6605688222826048,0.18283793590032826,-0.7276651599511462,0.026880015200007455,121.86899002468746,-76.20983447718474,-104.68776911020325,1
1767373899.356199,2,right_wrist,0.815,-0.5817,-0.0976,-0.77,-5.39,0.35,0.12924396226052468,0.5116619976745433,-0.541813741886574,0.6541680727899861,-100.86948165171597,-54.044980993833676,-138.98041653743107,1
1767373899.414898,1,left_wrist,0.9775,0.2396,-0.12,0.28,-2.1,-3.22,0.6610800158943627,0.18837070139689632,-0.7260026130458247,0.02024592035410848,119.66758135618115,-75.35686227399854,-102.5612737025067,1
1767373899.414898,2,right_wrist,0.8169,-0.5671,-0.0869,-3.92,-4.83,0.56,0.13053007503291775,0.5119870708372252,-0.5409504836671835,0.6543727630545602,-100.79628748113642,-54.22131752933215,-139.06231244282668,1
1767373899.467975,1,left_wrist,0.9618,0.2201,-0.1064,0.14,-3.08,-6.79,0.6628028197256791,0.19022281506439975,-0.7240077837329132,0.017900611353222448,118.08877228062948,-75.14081639752094,-101.01901165680297,1
1767373899.467975,2,right_wrist,0.8272,-0.5656,-0.0756,-2.1,-5.11,1.19,0.1310859290636397,0.51227990932607,-0.5397699201291838,0.6550070282265149,-100.63553979199027,-54.3513676128646,-139.1376090911432,1
1767373899.545744,1,left_wrist,0.9609,0.2172,-0.1113,0.84,-3.08,-7.7,0.6640087325650816,0.19071499577233625,-0.7227764303291717,0.01773203951866886,117.31233374239861,-75.15517683665303,-100.21611432930048,1
1767373899.545744,2,right_wrist,0.8218,-0.5656,-0.063,-1.26,-3.29,3.01,0.1307789088438319,0.5112508043831271,-0.5375918911466436,0.6576583083886323,-99.96725498352522,-54.3967795587889,-139.55374363198155,1
1767373899.599962,1,left_wrist,0.9604,0.203,-0.1049,3.01,-1.33,-7.77,0.6648289646337309,0.19108766004175848,-0.7218803559590391,0.019408906312768225,117.01377431098207,-75.30085610152491,-99.75104783703284,1
1767373899.599962,2,right_wrist,0.8169,-0.5505,-0.0625,-1.33,-1.4,3.64,0.13151064285837216,0.5101062089403507,-0.5364315640131335,0.6593464821669289,-99.500996419454,-54.46556716747699,-139.96538636178718,1
1767373899.663466,1,left_wrist,0.9555,0.1952,-0.122,1.75,-1.12,-8.12,0.6631537928841527,0.1914160715018687,-0.7232417500453261,0.02254563251558827,118.35993218560867,-75.43710578943158,-100.81350701229694,1
1767373899.663466,2,right_wrist,0.8203,-0.5431,-0.0639,-0.42,-1.47,2.73,0.13286872084847004,0.5098241948741021,-0.5345534418905381,0.6608160191036866,-99.08789078322457,-54.671579468101264,-140.29000636554073,1
1767373899.713718,1,left_wrist,0.9692,0.1928,-0.1225,2.8,-2.24,-4.69,0.6616514452711126,0.19067534983304957,-0.7247119474934196,0.025551303234614162,119.76656300991054,-75.64020304922462,-102.03692571624282,1
1767373899.713718,2,right_wrist,0.8242,-0.548,-0.0732,3.29,-0.49,1.26,0.13451927510486864,0.5103522117770327,-0.5310626030637912,0.6628858847393431,-98.52673457450136,-55.03346017971803,-140.6060381970678,1
1767373899.770077,1,left_wrist,0.9589,0.1976,-0.1303,-1.4,-2.1,-2.03,0.6593250438844345,0.18882959982904413,-0.7272514007371383,0.027189499095457266,121.64881351871486,-75.75642063965661,-103.93860334186185,1
1767373899.770077,2,right_wrist,0.8286,-0.55,-0.0864,0.14,0.07,-0.63,0.13820898304548623,0.5130972987110244,-0.5287459937568476,0.6618588317360932,-98.72847965752501,-55.62407822294581,-140.43368770699257,1
1767373899.847143,1,left_wrist,0.9623,0.1981,-0.1161,1.26,-1.33,0.42,0.6610092550339498,0.18695757092709245,-0.7261117184740816,0.029587222362364843,121.34724949387602,-76.16688238955209,-103.60148409618978,1
1767373899.847143,2,right_wrist,0.8335,-0.5636,-0.0898,1.4,-1.12,-3.29,0.13681633894583814,0.5145554780107795,-0.5285375416313394,0.6611822869170467,-98.98407621014263,-55.594075818914554,-140.02725310036357,1
1767373899.899937,1,left_wrist,0.9672,0.2011,-0.1137,-0.77,-1.26,1.68,0.6632471060295715,0.18513512911441768,-0.7245014077770273,0.03042976240938636,120.43011133857951,-76.48632122742967,-102.7712422871765,1
1767373899.899937,2,right_wrist,0.8237,-0.5632,-0.0898,4.27,-2.52,-3.01,0.1325956329702163,0.5145965985298296,-0.5295981343728483,0.6611615195756297,-99.12538407397432,-55.17576528598559,-139.65154172302687,1
1767373899.967936,1,left_wrist,0.9579,0.2074,-0.1078,-1.75,-0.28,1.19,0.6672471770603283,0.1862884072318501,-0.720665103548681,0.026826154461871837,117.24983751124597,-76.34099175330526,-99.79061562915486,1
1767373899.967936,2,right_wrist,0.8228,-0.5705,-0.0898,0.14,-1.96,-2.87,0.12976344875058388,0.5129673891223779,-0.5305731156811929,0.6622069721632936,-98.90928119231566,-54.79346609547795,-139.7544346309861,1
1767373900.050839,1,left_wrist,0.9604,0.2152,-0.1122,-0.49,0.21,1.05,0.6656175711259268,0.18855481079308903,-0.7216736310032991,0.024238453946532033,117.55742434432034,-75.89666956521714,-100.11643507079258,1
1767373900.050839,2,right_wrist,0.8179,-0.5841,-0.0849,-0.35,-2.59,-2.59,0.12713123240367166,0.5121878553627502,-0.5297353108733992,0.6639892702297929,-98.52340984319432,-54.57414274176441,-139.84119933918356,1
1767373900.103408,1,left_wrist,0.9594,0.2123,-0.1161,-2.59,0.07,0.28,0.663235312185434,0.1876354163513059,-0.7241042333607763,0.0241853350186498,119.10631550234007,-75.83126058689834,-101.7444142297713,1
1767373900.103408,2,right_wrist,0.8179,-0.5841,-0.0849,-0.35,-2.59,-2.59,0.12410338571938329,0.5106726199567703,-0.5310514002992973,0.6646775422109804,-98.40725106690233,-54.162011286545514,-139.86442632364432,1
1767373900.171044,1,left_wrist,0.9711,0.2113,-0.1196,-1.89,-1.47,-1.47,0.6631416601886909,0.18621278004138006,-0.7245886654507725,0.023220787491298793,119.23834467435744,-75.84972440031392,-102.0739404490875,1
1767373900.171044,2,right_wrist,0.8198,-0.5788,-0.0747,-2.31,-0.63,-0.07,0.1261342921091084,0.50997628622905,-0.5293397635238914,0.6661934723416545,-97.95245614413174,-54.392203225667096,-140.30899385784338,1
1767373900.2490602,1,left_wrist,0.9589,0.205,-0.1259,-2.87,-3.15,-2.31,0.6599857752976651,0.1851773350374833,-0.7277343611164386,0.023039762229774736,121.2105819521653,-75.72456404088446,-104.14427981693491,1
1767373900.2490602,2,right_wrist,0.8316,-0.5729,-0.0791,-2.03,-0.42,1.89,0.1334405824685632,0.5122783603439356,-0.5258109992922737,0.6657982318218035,-97.86282533349522,-55.333535780789155,-140.59992162427878,1
1767373900.303144,1,left_wrist,0.975,0.1996,-0.1161,-1.47,-1.82,-0.63,0.6616026137351798,0.18262594445757713,-0.7268621323746872,0.024519103357970876,120.91404388341648,-76.10642690901489,-103.94330073796789,1
1767373900.303144,2,right_wrist,0.8257,-0.5685,-0.0766,-2.45,0.14,2.59,0.13105862581013478,0.5085773871511674,-0.5275676825444089,0.6677162707422761,-97.37713155372147,-54.830873175881074,-141.11324272599867,1
1767373900.366102,1,left_wrist,0.9618,0.2196,-0.1181,-0.77,-0.91,1.47,0.6634772343377248,0.1858079271105428,-0.7245578448699092,0.017008914601461138,118.20597558784486,-75.41521011913599,-101.57975134880955,1
1767373900.366102,2,right_wrist,0.8281,-0.5544,-0.0795,-2.52,-0.63,1.75,0.13412316452779272,0.5111071398075663,-0.5271629346191413,0.6654920801471003,-97.8926050399463,-55.25382911031638,-140.78213185591414,1
1767373900.419317,1,left_wrist,0.9633,0.2108,-0.1161,-3.85,-0.63,1.96,0.6642313104206553,0.18082634214749244,-0.7250532684338149,0.01990874621515526,118.92672702794918,-76.02619211672867,-102.48340830769276,1
1767373900.419317,2,right_wrist,0.834,-0.5534,-0.0776,-0.07,-1.54,1.33,0.13702529022764903,0.513527314703135,-0.5250666568614877,0.6646944957979694,-98.04931988040866,-55.74823190999081,-140.61757479279055,1
1767373900.500103,1,left_wrist,0.9643,0.2216,-0.1152,-1.05,0.35,1.75,0.6648893402698414,0.18307348798865744,-0.7239726861124602,0.016425984120022788,117.69568482972673,-75.63566311022436,-101.34730588152046,1
1767373900.500103,2,right_wrist,0.8345,-0.5519,-0.0776,-0.42,-1.61,-1.75,0.139185764730281,0.5144000024213577,-0.5216901565265609,0.6662276945524302,-97.58900202554132,-56.16440827671645,-140.88828577524956,1
1767373900.567112,1,left_wrist,0.9609,0.2323,-0.1235,0.28,-0.35,-0.7,0.66183507202313,0.18665207113605606,-0.7259179091341372,0.013361548528578147,118.4958244940765,-74.98627176353035,-102.09296409094915,1
1767373900.567112,2,right_wrist,0.8286,-0.5553,-0.0815,2.73,-2.87,-2.03,0.1368243565123957,0.5166457727841901,-0.5230221440406931,0.6639307778468116,-98.32619986833564,-56.012381762378695,-140.07709642073584,1
1767373900.6470459,1,left_wrist,0.9701,0.2167,-0.1235,1.33,-1.12,-1.61,0.661392366698209,0.18432696755900443,-0.7268394793031543,0.01697284979499104,119.60959650761008,-75.40002369329056,-103.10832083542952,1
1767373900.6470459,2,right_wrist,0.8257,-0.5588,-0.0839,1.82,-3.01,-3.29,0.13602517590341348,0.5204321922616286,-0.5212278484845984,0.6625473679234696,-98.80532551432984,-56.24510841605087,-139.30700318276874,1
1767373900.697153,1,left_wrist,0.9667,0.2269,-0.1205,1.47,-1.33,-2.59,0.6625254147050712,0.1878125887498773,-0.7249835404113726,0.01361515734519962,117.98524024420838,-74.96206157881771,-101.46513842753708,1
1767373900.697153,2,right_wrist,0.8223,-0.5724,-0.082,2.17,-3.08,-2.24,0.1320487174939863,0.5192800479732527,-0.5222745883016057,0.6634309477251406,-98.67871459922563,-55.78611016682815,-139.2275524655771,1
1767373900.749184,1,left_wrist,0.9614,0.2147,-0.1083,1.82,-1.33,-3.15,0.6640521775140693,0.18696378925168686,-0.7237684267297493,0.015443818071227062,117.49386670036053,-75.24300964188998,-100.89819402354637,1
1767373900.749184,2,right_wrist,0.8213,-0.571,-0.0771,2.45,-3.36,-1.33,0.1284827505194628,0.5177661785864053,-0.5223895808514326,0.6652213864187235,-98.2964137891104,-55.39576262016882,-139.34221560123513,1
1767373900.799791,1,left_wrist,0.9604,0.2201,-0.1093,3.85,-0.84,-2.73,0.6659117868818535,0.18719427753604795,-0.7219568257344243,0.017266624599147636,116.6339741562342,-75.46249696162944,-99.87290000547482,1
1767373900.799791,2,right_wrist,0.8247,-0.569,-0.0756,3.43,-3.08,-0.63,0.12597000315843548,0.5163904844576472,-0.5209917578546016,0.6678622718146552,-97.66853758326498,-55.18643936569284,-139.62735607182518,1
1767373900.866903,1,left_wrist,0.957,0.2128,-0.1186,1.47,0.7,-0.49,0.6648278733986419,0.18694245107337246,-0.7228884087226931,0.022108081628483857,117.97090359939865,-75.80309626319399,-100.83725449428067,1
1767373900.866903,2,right_wrist,0.8237,-0.568,-0.0761,4.55,-4.41,0.98,0.12224186570418631,0.5150127785653698,-0.519850149964173,0.6705032332254365,-97.08189347157773,-54.85823631028751,-139.79929356597432,1
1767373900.949227,1,left_wrist,0.9604,0.2255,-0.1166,3.64,1.26,-1.47,0.6642637048517792,0.19169620959863887,-0.722241087512811,0.019341798014017624,117.24663701381128,-75.22451115273388,-99.93766419674228,1
1767373900.949227,2,right_wrist,0.8325,-0.5524,-0.0771,4.13,-3.78,-0.14,0.12375107561265439,0.5221916295831248,-0.5163750050333121,0.6673518018668102,-97.99565285406696,-55.56568381940918,-138.57618388627992,1
1767373901.0131142,1,left_wrist,0.9623,0.2084,-0.103,3.43,0.63,-2.31,0.6675457945262472,0.19017469391372763,-0.7193763057881366,0.026719443777047304,116.48167820229551,-76.0712885774149,-98.70523281886632,1
1767373901.0131142,2,right_wrist,0.8257,-0.5519,-0.0737,1.89,-2.24,-0.91,0.12606657508011893,0.5237598853949409,-0.5128080967853362,0.668438970265834,-97.67523153460576,-56.047303207699095,-138.69663906789643,1
1767373901.067041,1,left_wrist,0.9677,0.2015,-0.101,5.39,2.24,0.21,0.6690425563357675,0.18858721697276903,-0.7181925803678405,0.031880039378113824,116.44388754543702,-76.66226118890948,-98.38339138946141,1
1767373901.067041,2,right_wrist,0.8276,-0.5539,-0.0708,4.2,-2.17,-1.82,0.12468558054470685,0.5227505689159141,-0.5102708345836221,0.6714231334081745,-96.91465119363775,-56.01874557409492,-139.08557282678868,1
1767373901.1471722,1,left_wrist,0.9731,0.2172,-0.1161,5.53,1.19,0.49,0.666741448306348,0.19214541266009064,-0.719386917029422,0.03191308682876994,117.37036763665525,-76.30119425888272,-99.00624208464991,1
1767373901.1471722,2,right_wrist,0.8247,-0.5592,-0.0786,5.81,-1.89,-3.29,0.12053286120511146,0.5271281176826745,-0.5100186427090191,0.6689460075426715,-97.79013489739444,-55.91310160419204,-137.80485392519938,1
1767373901.199184,1,left_wrist,0.9906,0.2103,-0.1225,8.19,3.5,-1.12,0.6645576030114487,0.19463454840126385,-0.7205833482529812,0.035216800945521744,118.78535663723329,-76.27534057036996,-99.94165575088404,1
1767373901.199184,2,right_wrist,0.8447,-0.57,-0.0898,4.2,-1.54,-3.36,0.11912253617988959,0.5298285656510113,-0.510177521637871,0.6669410834621773,-98.41504688585387,-55.92206261229242,-137.05863408749835,1
1767373901.249206,1,left_wrist,1.1078,0.2025,-0.0976,4.06,5.25,-12.53,0.6680196944284912,0.1972680910068976,-0.7166340215030298,0.03564642128677999,116.2892227365886,-76.29176822966167,-97.19239456294206,1
1767373901.249206,2,right_wrist,0.8633,-0.57,-0.1103,6.37,-5.32,-1.19,0.11701351999830463,0.534084015718456,-0.5095306412195697,0.664409983331097,-99.23197996101399,-55.9905623068688,-135.96701683010286,1
1767373901.302031,1,left_wrist,1.2883,0.3055,-0.0449,-7.42,29.05,-43.61,0.6808114497685773,0.20819457801186836,-0.7018841070271165,0.022571837612727588,105.95183298100036,-74.8182899654203,-87.00161543852231,1
1767373901.302031,2,right_wrist,0.8262,-0.5339,-0.1088,11.41,-15.47,3.64,0.11104479825397337,0.5408780764515659,-0.5082747163675976,0.660890892580785,-100.45301500321068,-55.8739465511377,-134.07470144608013,1
1767373901.3654568,1,left_wrist,1.2581,0.2762,-0.0117,6.86,-6.37,-110.81,0.6733412650825993,0.27681263840804377,-0.6852742728084249,-0.019633516787033255,103.02408922813675,-65.7800432850504,-81.58613791133294,1
1767373901.3654568,2,right_wrist,0.8023,-0.5261,-0.0669,18.76,-15.68,4.83,0.10272248744480351,0.5438893268874855,-0.5027345990627787,0.66399579334226,-99.90973895301187,-55.64578986545447,-133.3352517320069,1
1767373901.449075,1,left_wrist,1.1283,0.4275,0.0298,-8.68,-6.79,-100.17,0.6733351161607548,0.30225688609492146,-0.6727568404592585,-0.05156384167476467,100.45612742235677,-61.02256317875352,-79.35658718145739,1
1767373901.449075,2,right_wrist,0.8159,-0.5392,-0.0517,15.82,-10.08,-9.59,0.09768585537620592,0.5537150234065117,-0.4868559751507847,0.668452246591575,-99.13414311956394,-56.65563431414432,-131.987851251,1
1767373901.5040882,1,left_wrist,0.975,0.3611,-0.1093,10.29,-17.99,-71.4,0.6646625576478506,0.32281941090821165,-0.6703450248524534,-0.06818254950833359,101.6314064138996,-57.89603836036138,-80.03384594701994,1
1767373901.5040882,2,right_wrist,0.8003,-0.548,-0.061,2.45,-4.13,-11.9,0.09792081978399055,0.5548244315691947,-0.48358804157703356,0.6698686208731086,-98.78951159913122,-56.93221439682229,-132.00910219658135,1
1767373901.567071,1,left_wrist,0.5739,0.5544,-0.1415,0.07,-25.69,-50.12,0.6484789708152843,0.35411617706252035,-0.6631322083690089,-0.11971813470237763,101.90366280195433,-50.829184996129925,-81.63893072418536,1
1767373901.567071,2,right_wrist,0.8184,-0.5793,-0.0615,8.54,-4.2,-11.62,0.09563134012806576,0.5560330495281062,-0.4796034680016034,0.6720583368269601,-98.28496872485583,-57.04557614203466,-131.91156997374986,1
1767373901.645971,1,left_wrist,0.4821,0.5822,-0.2133,-4.48,-10.71,-25.9,0.6421344353532201,0.3626885172589017,-0.6622844964001222,-0.13228625102472583,102.34813658078353,-48.98990299015502,-82.31422761180633,1
1767373901.645971,2,right_wrist,0.8311,-0.612,-0.0644,2.87,1.75,-7.42,0.09265907873018554,0.5550173133319598,-0.47591856333858296,0.6759227752490559,-97.28373044306176,-56.98143362869212,-132.3011920631687,1
1767373901.7023811,1,left_wrist,0.3924,0.3577,-0.1615,24.99,-6.86,-4.62,0.6330541576857655,0.37217378302076537,-0.6666922454449723,-0.12747767856498912,104.51348221741335,-48.52258846808165,-83.18955361582385,1
1767373901.7023811,2,right_wrist,0.8179,-0.6017,-0.0825,-5.25,4.83,-1.05,0.09163827903411544,0.5519344032454354,-0.4799399489528799,0.6757429139316798,-97.28091606944844,-56.50077273307443,-132.65028440156027,1
1767373901.766897,1,left_wrist,0.1781,0.4436,-0.2972,43.54,2.03,5.11,0.6249142881374822,0.38563034163702387,-0.6688327217507338,-0.11590583421916915,106.78101914627959,-48.290910145381794,-83.22798347030621,1
1767373901.766897,2,right_wrist,0.8257,-0.5656,-0.0922,-10.57,2.1,1.96,0.09179414294598288,0.5508163646943676,-0.4861482438670505,0.6721867692023374,-98.18674462024342,-56.073483124764195,-132.4003466629947,1
1767373901.8531342,1,left_wrist,0.3421,0.5861,-0.1625,-30.59,9.52,-19.18,0.6304521994904935,0.3862671263831856,-0.6602160207876333,-0.13207019773067025,104.42820927137625,-46.92333824175088,-82.14461752710916,1
1767373901.8531342,2,right_wrist,0.8496,-0.5714,-0.0522,-0.28,-3.71,6.16,0.08718454047969901,0.5463084767333821,-0.48514617129568255,0.6771846842831989,-96.86515004836816,-55.537625007284525,-133.27374609128415,1
1767373901.917665,1,left_wrist,0.5412,0.2879,-0.2089,35.56,-14.14,28.56,0.6088285928659957,0.4030615122077153,-0.6760571853311664,-0.09907494157324599,110.9363639293494,-48.016654837925856,-84.3150424016388,1
1767373901.917665,2,right_wrist,0.856,-0.6256,-0.062,-8.54,1.75,7.98,0.08399398986641494,0.5409891781748832,-0.4912681167086643,0.6774447256193726,-96.75029675850857,-54.637590032494124,-133.7967300144738,1
1767373902.001166,1,left_wrist,0.9096,0.834,-0.2747,27.58,42.07,54.46,0.6196199650016204,0.397407897069481,-0.6729813889331769,-0.07234716627329428,110.59659995434154,-50.93965686452572,-82.36477098161097,1
1767373902.001166,2,right_wrist,0.854,-0.5549,-0.083,-19.11,2.17,8.33,0.09286255793251709,0.5394929460508715,-0.4981622593962176,0.6724271483282311,-97.83843161636987,-54.89112593594327,-134.15636599042352,1
1767373902.065345,1,left_wrist,0.9936,0.4455,-0.1005,43.19,3.15,63.49,0.6253441714087893,0.3709139014829576,-0.6857426522641089,-0.033534457465881705,112.92425088650985,-56.38471164921683,-84.06279785298723,1
1767373902.065345,2,right_wrist,0.853,-0.5822,-0.0849,-10.71,-3.99,8.75,0.09500164966614504,0.5411780047915341,-0.5020590337405892,0.6678605994741952,-98.99463066222785,-54.91057249725294,-133.5685405562917,1
1767373902.152152,1,left_wrist,1.1185,0.507,-0.0298,35.56,33.53,86.03,0.6326896009106073,0.3529542134929092,-0.6892534267013711,0.007543597125778139,114.55393142779539,-61.34129387603321,-84.04628444549216,1
1767373902.152152,2,right_wrist,0.8272,-0.5104,-0.0781,-14.49,-1.05,4.34,0.09975093745793172,0.5421838075285889,-0.5042803549769471,0.6646711915785053,-99.74220137819373,-55.22044350062419,-133.43375617509545,1
1767373902.212797,1,left_wrist,1.3171,0.2054,-0.0673,34.37,29.4,92.96,0.638130168448054,0.3097837548152229,-0.6987065420836189,0.0929143768132365,122.37020170203085,-71.67678482208171,-88.84222653185483,1
1767373902.212797,2,right_wrist,0.8516,-0.5451,-0.0878,-6.79,-5.74,1.68,0.10308264848316036,0.5445254576336853,-0.5039925045945465,0.6624632434203719,-100.30829267374533,-55.6252062944416,-133.093456049169,1
1767373902.2650838,1,left_wrist,1.1927,0.1205,0.0034,-7.91,7.84,69.3,0.6401582453910213,0.28357377797303884,-0.7049564320987138,0.11322438847986,127.26165669528852,-75.19078237142975,-94.39037394656472,1
1767373902.2650838,2,right_wrist,0.833,-0.5373,-0.0825,3.92,-9.03,3.22,0.10175318420008253,0.5465954938325438,-0.5012644421697698,0.6630336451820006,-100.24807703993909,-55.774762773280166,-132.74576083998946,1
1767373902.316684,1,left_wrist,1.0663,0.0439,0.0059,-18.55,-7.77,36.19,0.639773273981079,0.26519310178416144,-0.711460281422235,0.11910938092451291,132.01457387684263,-76.78535892703597,-100.2621551217081,1
1767373902.316684,2,right_wrist,0.8008,-0.5104,-0.0771,3.92,-7.07,0.35,0.10179223244135624,0.5488318448617691,-0.49772098360379796,0.6638492072456664,-100.10782446635935,-56.09991219454531,-132.5050024955743,1
1767373902.3959749,1,left_wrist,1.0712,0.0122,-0.0454,-31.78,0.91,20.3,0.6438433820524341,0.24725185330223887,-0.7144478422080331,0.1178834220328578,133.67058266298469,-78.03621470030447,-103.5775451959781,1
1767373902.3959749,2,right_wrist,0.8076,-0.5656,-0.0708,11.41,-2.31,-10.92,0.10034467372531879,0.5511696900587156,-0.4878374482331242,0.6694456985573457,-98.75420507899723,-56.70550789004767,-132.70215809764085,1
1767373902.450947,1,left_wrist,1.0853,0.1225,-0.0542,-81.41,-1.68,-27.86,0.6553817911989995,0.2313625986639377,-0.7138501685737555,0.08581370829582852,124.92806975684677,-77.26419528812293,-98.84352763509327,1
1767373902.450947,2,right_wrist,0.8174,-0.6583,-0.0932,11.62,4.41,-3.78,0.09592769983292032,0.5490768787932053,-0.48598010352303755,0.6731536203269018,-97.81325659836152,-56.35269740614357,-133.10527706911077,1
1767373902.502269,1,left_wrist,1.1463,0.1986,-0.0659,-98.63,-10.99,-73.15,0.6662442809670505,0.22493915369659467,-0.7102057972024026,0.03359554781599913,113.57701346755618,-74.0402326998345,-92.30148913292908,1
1767373902.502269,2,right_wrist,0.8208,-0.7208,-0.1127,16.17,10.22,14.84,0.08622940548876555,0.5418790836125702,-0.48723712549839704,0.6793611203979182,-96.22984287500282,-55.113984478091034,-134.07751455349248,1
1767373902.567644,1,left_wrist,1.1517,0.2987,-0.04,-67.62,-11.34,-80.64,0.6739149316871873,0.22986586689391827,-0.6997377243968218,-0.058029864226264466,102.25575778728107,-66.41238273317471,-87.9950949031094,1
1767373902.567644,2,right_wrist,0.7662,-0.8096,-0.1166,-23.31,24.71,33.25,0.0835003742034598,0.5247621536381323,-0.5038777448411246,0.6809989631936119,-95.58469604099227,-53.02260905975037,-136.36071512860426,1
1767373902.617697,1,left_wrist,1.0531,0.4085,-0.0659,-79.1,-33.04,-93.87,0.6705687288235249,0.23145260040022578,-0.6960453324038784,-0.11085201365220995,99.29964613345251,-61.90628086415266,-89.21333011998004,1
1767373902.617697,2,right_wrist,0.8028,-0.8174,-0.0839,-17.85,18.2,72.45,0.06637847597927725,0.5002993689602416,-0.5274223193917789,0.6834618762974635,-94.97252572757958,-48.92848085471997,-138.3061828026242,1
1767373902.700471,1,left_wrist,1.0873,0.5695,0.0185,-59.01,-38.5,-99.12,0.6615904020810963,0.24132633463122122,-0.6912493966658533,-0.1619691689696748,97.5631570345702,-56.76953844654114,-90.84894555422605,1
1767373902.700471,2,right_wrist,0.9072,-1.1834,0.0454,2.1,28.14,159.04,0.005546498341278911,0.42468947213008074,-0.5809796168628496,0.6943131666675494,-92.55550914162085,-36.596782387239585,-142.76712368312764,1
1767373902.7680352,1,left_wrist,0.7593,0.8374,-0.0156,-39.41,-42.42,-143.71,0.6254537689103528,0.2908453661286682,-0.6686139449021857,-0.2777983956750886,94.91808354177101,-42.43718250083831,-93.76279466919779,1
1767373902.7680352,2,right_wrist,0.8945,-1.1624,0.0493,-43.12,52.5,202.16,-0.033783016329068404,0.3547295889298049,-0.6266108446508938,0.6930977390753018,-92.37043195251576,-26.704357673471918,-146.62920767058802,1
1767373902.850844,1,left_wrist,0.5446,0.8652,-0.0171,-8.33,-28.63,-130.13,0.6005817606399916,0.32504118753062644,-0.6556139175064976,-0.3222113690840708,94.9889111826462,-35.31249476446533,-94.7307724510181,1
1767373902.850844,2,right_wrist,0.3338,-0.7954,0.0098,28.77,52.57,202.65,-0.11677044427207245,0.21002900448322498,-0.6798336332796673,0.6928771259625007,-90.72672243309371,-7.601343643064597,-153.16960570821152,1
1767373902.901143,1,left_wrist,0.2625,0.8935,-0.1,3.43,-24.92,-132.51,0.571059715574896,0.36282470170935066,-0.641394551179641,-0.36174862376256045,95.59522144045003,-28.03731544132889,-95.49351911603179,1
1767373902.901143,2,right_wrist,0.0795,-0.6739,-0.0454,12.11,61.04,172.76,-0.15166920126991237,0.1395662042142947,-0.6953726681804734,0.6884581180979203,-90.34634421424346,1.075061491773574,-156.23365591228017,1
1767373902.963615,1,left_wrist,0.2586,0.9262,-0.1723,32.62,-29.61,-125.51,0.498913726007197,0.43636287796385453,-0.6155321132882533,-0.42637161050850314,98.21183717827296,-14.009888608501157,-97.18452458834803,1
1767373902.963615,2,right_wrist,0.0795,-0.6739,-0.0454,12.11,61.04,172.76,-0.18191843316280254,0.07117420818496369,-0.7049925881864858,0.6817810252324087,-90.24147703720904,9.1750807765608,-159.33354533077457,1
1767373903.014348,1,left_wrist,0.2196,0.6183,-0.1308,7.21,-22.19,-110.88,0.4710062224304069,0.4619094730582171,-0.6027335366362951,-0.44889315092215654,98.92402510078243,-8.80583605588067,-97.53496636742287,1
1767373903.014348,2,right_wrist,-0.0283,-0.608,0.0522,5.53,37.17,112.91,-0.2023230129616856,0.02686572673839306,-0.7069416583791064,0.6771832269047442,-90.05778225782332,14.45828673679437,-161.20343330056764,1
