timestamp,node_id,node_name,ax,ay,az,gx,gy,gz,qw,qx,qy,qz,roll,pitch,yaw,rep_number
1767484517.7767942,1,left_wrist,1.0087,-0.1513,-0.0649,45.57,3.43,32.69,-0.46678316924249486,0.6748544573957134,0.39806559595625923,0.4101569401595661,-126.8889247332738,-67.7005135536222,24.004730485436106,1
1767484517.7767942,2,right_wrist,0.8804,0.3182,-0.0459,4.9,2.45,-17.57,-0.10357341696967429,-0.7337726954204277,-0.15411889627677305,-0.6535270036984664,109.38326676268703,-67.99563311367542,74.78996587239853,1
1767484517.8345401,1,left_wrist,0.9467,-0.1864,-0.1196,59.22,40.04,0.0,-0.4909482553044364,0.6528329686267327,0.40110117163877934,0.4146043605626161,-119.45095555389392,-69.25637627131606,19.22146158770353,1
1767484517.8345401,2,right_wrist,0.8472,0.3055,-0.0059,-4.83,8.4,-19.18,-0.11005302855919138,-0.7276656774628443,-0.15846457361554522,-0.6582400562532891,106.49705436875453,-67.38035215520344,77.50415550132985,1
1767484517.901442,1,left_wrist,0.8486,-0.1635,-0.059,80.29,63.0,-30.38,-0.5187654014078801,0.6156019646006876,0.4111582694059921,0.427627825311876,-108.49725010111764,-72.38025844212265,11.92417722116403,1
1767484517.901442,2,right_wrist,0.896,0.405,0.0049,16.38,31.57,-9.38,-0.1099438732767516,-0.7069336516935315,-0.17358567991981638,-0.6767755673477945,98.7049153258948,-66.73697975588995,86.5618544691748,1
1767484517.953355,1,left_wrist,0.9355,-0.2826,-0.0107,86.45,50.33,-48.02,-0.5434359888031146,0.575216152660334,0.42698918580010614,0.4375887784232896,-95.98954175080178,-75.35226965691102,3.5412008562151605,1
1767484517.953355,2,right_wrist,0.9218,0.4265,-0.0098,32.27,35.28,-8.68,-0.10163650862574616,-0.6947345790796321,-0.18829582550694812,-0.6867012209411543,95.17666553241816,-66.33025397861579,92.0024091343824,1
1767484518.026887,1,left_wrist,0.9614,-0.3753,-0.0839,43.47,20.23,-38.99,-0.5579172604805925,0.5331625396153903,0.4498389989077842,0.4495674719887335,-82.00046331374853,-78.91140114831477,-6.558860760045426,1
1767484518.026887,2,right_wrist,0.9594,0.3865,0.0029,34.02,32.48,-14.0,-0.0915009390194978,-0.6834925514582332,-0.20207942066078283,-0.6954346971535624,92.25546241843682,-66.01726204013055,96.91420408697614,1
1767484518.082947,1,left_wrist,0.9604,-0.3675,-0.0595,54.74,12.46,-18.83,-0.5699570067054935,0.5166737392711109,0.4604035202306143,0.4429738775753941,-76.89479426073065,-79.28568061741132,-9.035024057236512,1
1767484518.082947,2,right_wrist,0.9887,0.3831,0.0098,28.91,23.8,-17.71,-0.08349839375214688,-0.6751430115988567,-0.21398306497330113,-0.7010143936002096,90.44608890011604,-65.62106149088571,100.38688133898438,1
1767484518.1350012,1,left_wrist,0.955,-0.3318,-0.0381,57.96,-6.02,-1.12,-0.5819627945884113,0.5062092423815387,0.4719921616109931,0.42696007778261585,-77.29961018854107,-78.9996535880302,-5.743600037364353,1
1767484518.1350012,2,right_wrist,1.0116,0.387,0.02,29.26,17.85,-17.29,-0.07551038947390695,-0.6689125561629071,-0.22536283720226313,-0.7043193628583916,89.51599115415848,-65.2607433621548,102.93940505094201,1
1767484518.20191,1,left_wrist,0.9121,-0.2855,-0.039,43.05,-16.17,-1.19,-0.5878226210646228,0.5010971253627361,0.4836085630525279,0.4116904114260961,-81.05553140427696,-78.85639760626951,0.19798837535640276,1
1767484518.20191,2,right_wrist,0.9828,0.3231,0.0122,28.77,10.57,-12.53,-0.057405308677201894,-0.661487789262397,-0.24640766476386444,-0.705989941810817,89.53577916289457,-64.92005652999927,106.20248449837304,1
1767484518.252684,1,left_wrist,0.9399,-0.2772,-0.041,26.67,-20.79,-5.74,-0.5880418932541411,0.49982983752270627,0.49441515469770614,0.39991314070101963,-86.59490302617176,-78.88751446588877,7.12789194361969,1
1767484518.252684,2,right_wrist,0.976,0.3284,0.0142,25.69,1.96,-7.63,-0.04868132511559309,-0.661583084657686,-0.253180694257087,-0.7041572883492084,90.48795853409571,-65.10309527011847,106.5438922210424,1
1767484518.304985,1,left_wrist,0.9399,-0.2772,-0.041,26.67,-20.79,-5.74,-0.5885450798400845,0.49844753072185316,0.5046996932733603,0.3878697819153897,-91.86127356131962,-78.73744650866055,13.796405775768124,1
1767484518.304985,2,right_wrist,0.9614,0.364,0.0083,21.21,-5.04,-5.53,-0.04141983346660827,-0.6636531480323192,-0.2577895102457127,-0.700994625449915,91.89568721049373,-65.37843746455653,106.12321069552642,1
1767484518.3581738,1,left_wrist,0.9511,-0.2616,-0.0512,34.02,-25.48,4.34,-0.5909938912486973,0.49796488417433976,0.5152533461733855,0.3705012603124163,-97.41456955258506,-77.96389600945082,21.14676460866254,1
1767484518.3581738,2,right_wrist,0.9345,0.3977,0.001,19.18,-8.61,-4.55,-0.0355014534798051,-0.6657048667748195,-0.2616947999706149,-0.6979201306893797,93.23171593276055,-65.5934686586107,105.60481835731535,1
1767484518.433752,1,left_wrist,0.9819,-0.266,0.0024,39.48,-25.27,10.22,-0.6019396273924641,0.4927663950447779,0.5321053744985055,0.33423619690123463,-102.32740408019075,-75.9280945372424,30.124583789597644,1
1767484518.433752,2,right_wrist,0.9838,0.4353,0.0054,15.33,-15.33,-2.1,-0.03279168195952117,-0.6684100269534262,-0.26517298644919113,-0.6941440979508525,94.74240710345713,-65.58213564593157,104.61474495483158,1
1767484518.507054,1,left_wrist,0.9126,-0.3255,0.0068,28.91,-20.37,11.97,-0.607802670686716,0.49174239508192813,0.536157933099614,0.3182766110783736,-102.86008382971372,-74.74767583640707,32.25676449457763,1
1767484518.507054,2,right_wrist,0.896,0.427,-0.0493,-0.91,-18.76,-13.3,-0.04382378370495834,-0.6738859281951283,-0.27912745366824043,-0.6826749566016435,98.28148498352479,-63.58885461885686,101.39929292523702,1
1767484518.581202,1,left_wrist,0.956,-0.2708,-0.0176,7.21,-9.59,1.75,-0.6123589636284417,0.4913132609410632,0.5365645342852223,0.30939663836997633,-102.25473586981293,-73.9791955419317,32.507768871945366,1
1767484518.581202,2,right_wrist,0.8413,0.467,-0.0742,11.34,-11.41,-12.04,-0.048836520146841554,-0.6755164311461472,-0.2890987133163936,-0.6765459921618967,99.90174883761776,-62.349972616743834,100.25086495574743,1
1767484518.632808,1,left_wrist,0.977,-0.2826,-0.0083,14.0,-7.49,1.19,-0.6161985694913604,0.487507580299797,0.5381819789367553,0.3049521924085081,-101.32898902536931,-73.86033474037971,32.391308526753754,1
1767484518.632808,2,right_wrist,0.8974,0.4168,-0.0717,5.95,-12.18,-8.26,-0.04756508751426328,-0.6789365969296928,-0.2897856959254433,-0.6729092882672189,101.18190170080734,-62.39437864562945,99.1347589264304,1
1767484518.700592,1,left_wrist,0.9614,-0.2874,-0.0239,12.67,-3.78,3.5,-0.6211329958145699,0.4846349308588183,0.5377221800169879,0.3002959247470134,-99.76499638061657,-73.54889667342916,31.542833461025456,1
1767484518.700592,2,right_wrist,0.8974,0.4168,-0.0717,5.95,-12.18,-8.26,-0.046451696288586974,-0.6836131397161639,-0.2917308028942202,-0.6673892820251275,103.03674473719602,-62.29701210524765,97.54357793934658,1
1767484518.7774951,1,left_wrist,0.9662,-0.2938,-0.0459,1.82,0.0,2.66,-0.6247715545612922,0.486845176761872,0.5343159758671538,0.29520961435545895,-98.73997696373056,-72.7642368320654,30.72364488228817,1
1767484518.7774951,2,right_wrist,0.8974,0.4168,-0.0717,5.95,-12.18,-8.26,-0.04644444474579909,-0.6853923088241229,-0.29304166398039744,-0.6649863755962164,103.78875721672331,-62.16952447674295,96.90913070212726,1
1767484518.8310158,1,left_wrist,0.9584,-0.2987,-0.0605,-9.1,-0.49,-0.14,-0.6207626749694068,0.49148427533146444,0.5345811850718085,0.29549934861849103,-100.52466395807754,-72.58512485302731,32.00176237371881,1
1767484518.8310158,2,right_wrist,0.8691,0.4534,-0.08,-2.59,-8.12,0.63,-0.04886884717562588,-0.6854342642269899,-0.29152119026423345,-0.6654375258626876,103.54530775020254,-62.09621946660469,96.82117790341374,1
1767484518.882207,1,left_wrist,0.9614,-0.2948,-0.0654,-9.8,-1.12,1.26,-0.6160815081986228,0.49591341071703504,0.5353770419833865,0.29645385348115627,-102.504474352913,-72.49727997708575,33.437468965172954,1
1767484518.882207,2,right_wrist,0.8599,0.4719,-0.1,-2.45,-4.76,1.12,-0.0533522188401095,-0.684836385010659,-0.2928009828525917,-0.6651467890254946,103.31358317728747,-61.617075461766,96.80249834655328,1
1767484518.932843,1,left_wrist,0.9379,-0.2977,-0.06,0.49,-1.12,3.29,-0.6189687295984355,0.49781126512693236,0.5320989397388616,0.29314224264135225,-101.49648791085853,-71.9089464925284,32.506859484584176,1
1767484518.932843,2,right_wrist,0.8784,0.5002,-0.1049,0.21,-3.29,1.4,-0.0569378258793628,-0.6841529529153463,-0.2950879086790633,-0.6645419077475553,103.20255979795702,-61.12713264341032,96.82535624887836,1
1767484519.000776,1,left_wrist,0.9501,-0.2826,-0.0449,-2.59,-1.61,3.08,-0.6191404005517375,0.4965501804200076,0.5317447201662485,0.29555140890344267,-101.03811547479273,-72.16855703296847,31.962398904241443,1
1767484519.000776,2,right_wrist,0.8701,0.4953,-0.1176,-0.91,-3.01,-1.19,-0.0652598476282198,-0.6842374717102232,-0.3015793266182711,-0.6607648177314019,103.62641217144113,-59.86878361700103,96.30411306994286,1
1767484519.05114,1,left_wrist,0.9623,-0.3084,-0.0312,-3.01,-1.82,2.59,-0.6208656505691976,0.4968352202989093,0.5292709829928678,0.2958932820724133,-100.07168910000395,-72.032705560336,30.918796158114095,1
1767484519.05114,2,right_wrist,0.8804,0.4704,-0.1132,-3.01,-4.97,-1.61,-0.06385437052651946,-0.6859263845089816,-0.2978713989015632,-0.6608329926051851,103.82579146883818,-60.287660445432024,95.88913955080227,1
1767484519.106577,1,left_wrist,0.9575,-0.2869,-0.039,-1.68,-0.7,4.34,-0.6216550086533438,0.49550218912529087,0.5284660749627069,0.29790306880219625,-99.35081117858446,-72.22644961490275,30.151495216000917,1
1767484519.106577,2,right_wrist,0.8764,0.466,-0.0971,-4.2,-6.3,-1.68,-0.06478997117633521,-0.6862026747159297,-0.294658529168227,-0.6618946291035234,103.54541922003372,-60.48257458869661,95.80783739868353,1
1767484519.183682,1,left_wrist,0.9584,-0.246,-0.0527,-5.67,-0.42,-0.28,-0.6167928449979675,0.4942049596616189,0.5306425754850769,0.3061805044213873,-100.28081542810605,-73.18126474364735,30.485959409676084,1
1767484519.183682,2,right_wrist,0.8535,0.4426,-0.101,-0.7,-4.2,1.05,-0.06223427262165689,-0.6874869844160457,-0.2909455491660024,-0.6624494161747584,103.67097191736775,-61.00205956799578,95.56093310341332,1
1767484519.256892,1,left_wrist,0.9653,-0.2567,-0.0551,-2.52,-2.38,-1.47,-0.6135185055727261,0.49263976875810916,0.5338663818498458,0.3096575332336034,-101.43930055136387,-73.77524181563781,31.513737567932317,1
1767484519.256892,2,right_wrist,0.8843,0.4285,-0.1171,-1.26,-8.05,6.3,-0.054109972944665796,-0.6940720364084613,-0.28071528410091806,-0.6607079902467351,105.18611213784814,-62.47123306203762,93.80507457427755,1
1767484519.334353,1,left_wrist,0.9457,-0.2713,-0.0683,10.01,-1.47,1.75,-0.6113507752017061,0.4943996163716152,0.5391898443776604,0.30181709811053914,-104.14362665613051,-73.27654401196403,34.77428872412081,1
1767484519.334353,2,right_wrist,0.8662,0.4778,-0.1054,-12.25,-11.48,6.09,-0.06081127392971193,-0.6956826372413271,-0.2772795847259454,-0.6598815720250149,105.11751617381722,-62.17935342439923,93.02825606047193,1
1767484519.404181,1,left_wrist,0.9492,-0.2782,-0.0478,27.58,2.94,7.49,-0.6213379690408201,0.4868494016581376,0.5384810611636821,0.29488122202232103,-100.63450435434416,-72.99572739066856,32.67370831593271,1
1767484519.404181,2,right_wrist,0.8799,0.4963,-0.1025,-23.45,-10.43,-0.42,-0.07942358149094048,-0.6973378957974498,-0.26839768363059685,-0.6598290969710772,104.08193863085727,-61.35580277670854,91.77203756035723,1
1767484519.458764,1,left_wrist,0.9438,-0.3333,-0.0464,25.2,1.26,14.49,-0.6308009471304591,0.48531378948081744,0.5355949246451762,0.282309701451106,-98.22363660442514,-71.75476250370542,31.524548177966153,1
1767484519.458764,2,right_wrist,0.8623,0.4982,-0.1093,-29.05,-12.18,-6.3,-0.09514259916095943,-0.6972557131310997,-0.264220342060691,-0.6595225296927089,103.09751788373256,-60.392989181096006,91.10930845371507,1
1767484519.528376,1,left_wrist,0.9521,-0.3626,-0.0376,25.62,7.91,18.62,-0.6517862163501185,0.4828573713403054,0.5253607370689399,0.2569427622345236,-92.91599601757974,-68.90408317611849,28.61983585607949,1
1767484519.528376,2,right_wrist,0.8638,0.5871,-0.0761,-44.59,-11.55,-13.86,-0.11733081090484283,-0.6948241394444347,-0.2572325537668806,-0.6612747608523114,101.008358258929,-59.15715129892068,90.77178898264526,1
1767484519.584468,1,left_wrist,0.913,-0.3431,-0.0605,21.28,-0.28,23.8,-0.656273817591292,0.4835825802000019,0.5249158411240152,0.2447772951242166,-92.84576122999556,-67.77673983621023,29.527099618537875,1
1767484519.584468,2,right_wrist,0.8379,0.4734,-0.0737,-60.69,-10.08,-19.32,-0.14118769875938575,-0.6907287463056206,-0.24274726492622223,-0.6663584606778343,97.91181300114333,-58.42987492017199,90.6478549010226,1
1767484519.649055,1,left_wrist,0.8804,-0.447,-0.0249,103.88,7.49,49.84,-0.6852565864949887,0.4665614112529903,0.520468483393859,0.20458841117851925,-86.9308781007294,-64.7177672126679,28.72711534688703,1
1767484519.649055,2,right_wrist,0.7847,0.6115,0.041,-115.22,-2.17,-51.94,-0.23489928985071423,-0.6633877268855322,-0.21078160768109877,-0.6784616137326033,87.03317907140841,-53.239228585259205,90.90743529150456,1
1767484519.700951,1,left_wrist,0.8276,-0.5485,0.1147,111.23,18.9,59.92,-0.7186444806474696,0.4452029054434483,0.5087183948819902,0.16294194711102522,-79.71860406758977,-61.194423771389026,27.002781811363963,1
1767484519.700951,2,right_wrist,0.7286,0.814,0.1552,-113.19,12.74,-65.1,-0.28831041327218954,-0.6385487508210705,-0.19912877521873695,-0.6851863464077165,80.68038376734081,-49.484299537223045,91.61109260577977,1
1767484519.752,1,left_wrist,0.9301,-0.8413,0.2328,148.75,36.96,89.04,-0.761484653333432,0.4157106586424702,0.4858309198843793,0.10627364825300806,-71.01323800144249,-55.920794668494366,25.595967157559727,1
1767484519.752,2,right_wrist,0.6808,0.9814,0.2957,-104.02,30.45,-79.8,-0.34081422578814113,-0.6058761365053357,-0.1958925269941222,-0.6916544575014717,74.54661166335121,-44.79626404962472,92.70743800548424,1
1767484519.831139,1,left_wrist,0.7369,-0.8999,0.5451,150.57,82.32,141.61,-0.8505965436382612,0.348089466836848,0.39244416824940465,-0.03614993547595187,-54.07300128772503,-39.97523806374807,25.89821208905332,1
1767484519.831139,2,right_wrist,0.6261,1.0228,0.4109,-116.69,58.52,-107.45,-0.400724895078834,-0.557389165481832,-0.19930860034127382,-0.6992946149496123,67.58855662306465,-38.30318443201849,94.20004902824837,1
1767484519.88364,1,left_wrist,0.7159,-1.0243,0.7847,132.79,107.66,151.34,-0.8833081065810267,0.3256914418150427,0.3219071428823517,-0.10033775430017193,-47.78468455773977,-30.220429485538926,26.602709943458454,1
1767484519.88364,2,right_wrist,0.5553,1.1063,0.5714,-118.93,72.59,-136.22,-0.4657623518187711,-0.4977599514817508,-0.21017998649121358,-0.7008029934351634,61.24301549377452,-30.124158416378734,94.68199063531017,1
1767484519.957385,1,left_wrist,0.6754,-1.0477,0.913,110.67,141.19,161.35,-0.9066145400488874,0.31243935817601365,0.23459976162063326,-0.15935706787603388,-42.71129687254546,-19.014308552709686,27.43121652898023,1
1767484519.957385,2,right_wrist,0.4597,1.0951,0.9135,-133.56,113.89,-171.78,-0.6018422700795152,-0.33048386301964844,-0.2362948412295955,-0.6875543951117079,47.17288742852218,-9.789378300926971,93.32368805123676,1
1767484520.029196,1,left_wrist,0.4285,-0.8369,1.1087,68.04,200.62,143.5,-0.9239148722176551,0.29514057296999285,0.042292951134759886,-0.23975958242850523,-34.52662851232253,3.6335773707213335,27.965661235140775,1
1767484520.029196,2,right_wrist,0.3845,1.0472,1.0804,-130.97,148.61,-171.01,-0.6518904815130987,-0.23312663030867603,-0.25485279549464784,-0.6750857923124332,40.40154585440337,1.0033732224169154,92.37202922626754,1
1767484520.080024,1,left_wrist,0.3211,-0.6978,0.9584,29.96,211.96,124.46,-0.9142100571101316,0.3051855871957602,-0.0573190290672939,-0.26037714522102723,-33.198632811338086,15.291501039413593,27.21187770506419,1
1767484520.080024,2,right_wrist,0.2772,0.977,1.0863,-113.89,173.81,-166.32,-0.6875134931151282,-0.13401978931083863,-0.28314170251400916,-0.6551295056362378,34.63898118908934,12.340844834436384,91.09847067245495,1
1767484520.130155,1,left_wrist,0.1298,-0.589,0.8213,-1.33,210.56,108.57,-0.892879525915892,0.3249582568629885,-0.15033484409704082,-0.273070903149893,-33.82096349008647,26.483181599777,25.826557918531766,1
1767484520.130155,2,right_wrist,0.1976,0.7403,0.9287,-81.62,188.3,-138.25,-0.7038891562122899,-0.04234815261626853,-0.3201892002237976,-0.6326338323207071,30.424082459383197,23.401609037603652,90.34296004076944,1
1767484520.181643,1,left_wrist,-0.0478,-0.5192,0.771,4.97,198.03,99.33,-0.8663021949874494,0.33805799031656836,-0.2370679843811019,-0.28113354998031054,-34.46961955549789,36.928929121663145,24.131097071721754,1
1767484520.181643,2,right_wrist,0.0654,0.5993,0.8154,-62.3,191.52,-105.98,-0.7038481742742921,0.04039189243598629,-0.36001344268673885,-0.6110291021555581,27.449273695987863,33.7900192593964,90.40899635821482,1
1767484520.2556238,1,left_wrist,-0.2245,-0.3782,0.7588,-6.93,186.76,90.79,-0.8332270114971684,0.35129464766997104,-0.31593970324896986,-0.2872401812784581,-36.11762099749338,46.74497428449286,21.999883122951022,1
1767484520.2556238,2,right_wrist,-0.2943,0.3709,0.7422,-47.32,171.29,-75.25,-0.6800985277211693,0.18353482085792402,-0.42879642148657,-0.5656099283467886,22.623811901318454,52.266501569553526,90.70798167038346,1
1767484520.33707,1,left_wrist,-0.4387,-0.1698,0.0351,0.98,169.82,71.05,-0.7491119212732772,0.3804943755026955,-0.4621330140144671,-0.2837048412963327,-47.37637184175377,65.26803259559193,10.100900211047778,1
1767484520.33707,2,right_wrist,-0.4348,0.2347,0.5309,-62.86,153.09,-65.1,-0.6612222057312677,0.24880087975368986,-0.4502995653997528,-0.5459978189356262,19.06958870809178,60.133219257320036,90.20326086605304,1
1767484520.411233,1,left_wrist,-0.529,-0.0986,-0.6373,-73.85,94.85,28.35,-0.7105012402774129,0.411900053602468,-0.49081202331225415,-0.29091217090158594,-59.171780096479985,69.5698737862395,1.4866125961562158,1
1767484520.411233,2,right_wrist,-0.5451,0.2255,-0.4558,-9.31,80.15,-16.59,-0.6179278808483369,0.3323210046342478,-0.4875541648183687,-0.5196333518139791,17.541073227371886,71.42667044531663,92.78131180703262,1
1767484520.477441,1,left_wrist,-0.6622,-0.1566,-0.2103,31.99,-12.32,-2.59,-0.7227164582269331,0.39311217009441457,-0.4954047591465239,-0.27877924482743033,-55.58167266468387,69.26976529926698,2.178835784471699,1
1767484520.477441,2,right_wrist,-0.7808,0.1669,-0.0537,-10.01,-12.88,-3.99,-0.6179756825259465,0.3339070992937098,-0.4842801705478704,-0.5216175047503454,16.722768049075494,71.24290423936097,92.35698732433286,1
1767484520.531467,1,left_wrist,-0.9862,-0.3933,0.1737,11.27,-15.68,-8.05,-0.7286692017105765,0.3928841315409197,-0.48973043932126037,-0.27358243814984473,-55.211604399045086,68.22926256688963,2.1458566112820736,1
1767484520.531467,2,right_wrist,-0.9477,0.1015,0.2821,26.18,-4.62,-6.72,-0.6221777967469343,0.3280021100595369,-0.4908727117553602,-0.5141530763163449,17.69020806193847,71.46088094208028,91.91389282762313,1
1767484520.5820181,1,left_wrist,-0.9706,-0.4563,0.2591,16.38,-23.66,-6.65,-0.7388941468832435,0.3886079174499371,-0.48003145253486784,-0.2694237012108834,-53.084239382999655,66.74913173673544,3.640153642812594,1
1767484520.5820181,2,right_wrist,-0.9516,0.0717,0.2708,8.54,-2.38,6.16,-0.6220554455019712,0.3269533465667507,-0.49397243514765843,-0.5119958644407578,18.376530614673676,71.68696324953602,92.24293708860596,1
1767484520.632184,1,left_wrist,-0.9418,-0.3889,0.2264,-8.47,-12.39,-7.56,-0.740957068159769,0.3949824290995288,-0.47245009237172675,-0.26788507622609736,-53.977628288419794,65.74835718393341,3.3167076657964696,1
1767484520.632184,2,right_wrist,-0.9462,0.1981,0.3709,-0.84,-14.28,11.9,-0.622074886543153,0.3178918532876106,-0.4915179091996168,-0.5199786054076926,20.177843480454747,70.4099717187947,94.09366156883566,1
1767484520.708543,1,left_wrist,-0.8564,-0.2962,0.1576,-8.47,-21.98,-14.7,-0.7434543242414993,0.3994735822356185,-0.46440711843717575,-0.2683701794300868,-54.10414929639664,64.81581654614325,3.77350995330754,1
1767484520.708543,2,right_wrist,-0.8374,0.1796,0.0981,19.74,-33.6,13.44,-0.6270434822515659,0.2952900956000934,-0.4919640806384881,-0.5268695988267355,23.43960728150441,68.14431929947291,96.05070901657353,1
1767484520.7601018,1,left_wrist,-0.7076,-0.2845,-0.0059,-21.14,-52.29,-31.22,-0.7516254791198712,0.4084695551022553,-0.44157167140058906,-0.2706034380950836,-53.617522427032384,62.23424490186787,5.672663045524366,1
1767484520.7601018,2,right_wrist,-0.7144,0.1464,-0.0044,47.11,-63.21,29.12,-0.6377042048554264,0.26284437939502653,-0.49186671736193316,-0.5313316400156758,26.379786361640626,65.04589454978765,96.60017438339099,1
1767484520.8359811,1,left_wrist,-0.5666,-0.2425,0.0088,-15.4,-120.19,-51.03,-0.7953288422540283,0.41135313669343315,-0.34361182455825245,-0.2831457992538286,-47.21896707847339,51.21615542809012,15.52872418371514,1
1767484520.8359811,2,right_wrist,-0.5773,0.2396,-0.0024,66.22,-111.86,52.92,-0.6535879306040638,0.20700135524813984,-0.48473046055829533,-0.5431478956058594,29.943323894068666,59.14775759258148,96.71290788396013,1
1767484520.902124,1,left_wrist,-0.3265,-0.1401,0.3226,-54.11,-205.8,-113.33,-0.8274212346503136,0.41651746526601047,-0.2422840912767415,-0.2884193486788501,-45.73329209115825,39.8817616752289,21.03654720217352,1
1767484520.902124,2,right_wrist,-0.2455,0.266,0.4006,83.23,-195.93,100.1,-0.6881848036631855,0.030423532656851524,-0.4294852587679253,-0.583967890528913,36.15299666151042,38.80436551496728,93.74883218705061,1
1767484520.979269,1,left_wrist,-0.0595,-0.4041,0.6734,-123.83,-220.15,-171.08,-0.8638344917451126,0.4398818688277843,-0.008701326019005714,-0.24539396747587244,-50.95868139166985,13.351343620031605,25.332380220502163,1
1767484520.979269,2,right_wrist,-0.1035,0.6271,0.5846,59.01,-227.85,129.01,-0.6930226529212241,-0.0732078701638395,-0.37375016234860425,-0.6121037709641193,38.21887277340302,25.366889210159087,91.82145531180015,1
1767484521.029406,1,left_wrist,0.2377,-1.0268,0.8189,-98.77,-142.87,-220.5,-0.863001725033394,0.4583431173712981,0.10168880857746337,-0.1865716901296731,-56.00175037904313,-0.2571176389780541,24.53470171780704,1
1767484521.029406,2,right_wrist,0.1425,0.6515,0.9028,134.75,-214.27,149.59,-0.6775157562459327,-0.19713125045426708,-0.33426053371404785,-0.6248052222365291,44.42012619902922,11.922960157052556,90.24731584838143,1
1767484521.085046,1,left_wrist,0.2377,-1.0268,0.8189,-98.77,-142.87,-220.5,-0.8494259215775057,0.46797955091737936,0.20947224730589253,-0.12486841587844236,-60.76547792035184,-13.826971425205032,24.858074527425014,1
1767484521.085046,2,right_wrist,0.1806,1.2058,0.9028,146.86,-166.67,168.14,-0.6367051112628962,-0.31233415975983214,-0.30679005925143615,-0.6347706936235502,51.92699638228828,-0.3352707366411972,89.66240254749555,1
1767484521.148858,1,left_wrist,0.7427,-0.9267,0.6505,-166.25,-93.66,-256.55,-0.8132338964042541,0.49388635061707015,0.30622451290261543,-0.030877987480783294,-68.45586232862821,-27.876278205726646,23.51585597951064,1
1767484521.148858,2,right_wrist,0.6686,1.3522,0.7261,227.71,-100.31,218.4,-0.4760764699516773,-0.5325956531658625,-0.2674551296461464,-0.646653553777555,71.24638841243329,-25.731318332749524,88.68878929162113,1
1767484521.200043,1,left_wrist,0.8481,-0.7769,0.2045,-149.8,-96.6,-221.97,-0.7637365673969447,0.5113524043837142,0.3909074080329667,0.0491586462046522,-77.00239276521164,-40.34400540218878,25.21475611134529,1
1767484521.200043,2,right_wrist,0.9262,0.9321,0.4026,141.12,-70.28,227.08,-0.3821250089991981,-0.6052048208546464,-0.2344310244698184,-0.6578371356784971,78.4511736915682,-38.10383143599488,88.2096258087716,1
1767484521.2543821,1,left_wrist,0.9941,-0.6627,0.1401,-139.93,-46.97,-217.7,-0.7140088085214663,0.5164964238634296,0.4523259036526516,0.13720110194476054,-84.66687718778698,-51.96710124407912,26.12808962560092,1
1767484521.2543821,2,right_wrist,0.9028,1.0058,0.286,180.46,-49.07,190.96,-0.28167139809824837,-0.6634137543742131,-0.22315848053039744,-0.6563106783893229,88.26743882509726,-48.167374467772696,86.6552148291121,1
1767484521.328172,1,left_wrist,1.1522,-0.4485,-0.081,-55.72,-18.06,-172.06,-0.640503933119352,0.47945699351209703,0.5354047048817447,0.27058733344610425,-95.82078709009916,-70.96642238920691,30.75787624490458,1
1767484521.328172,2,right_wrist,0.8496,0.9248,0.141,154.98,-21.35,165.9,-0.1928505096188252,-0.6990945800519971,-0.21721710886823695,-0.6533698620969639,97.39465592612456,-56.07345545259312,84.6696530926136,1
1767484521.382158,1,left_wrist,1.099,-0.4231,-0.1537,-78.26,-16.52,-133.21,-0.6013524912317263,0.4734154888755305,0.5585011901279497,0.31988963222930916,-108.77576522853259,-77.05705243281399,40.033851531897426,1
1767484521.382158,2,right_wrist,0.9545,0.7671,-0.0083,82.74,-17.36,129.85,-0.1346980395335513,-0.7196082875145396,-0.20098498506639356,-0.6508651061964155,104.3424780471724,-61.95654569631722,81.19576102022688,1
1767484521.461879,1,left_wrist,1.1234,-0.4865,-0.1596,-37.1,-1.26,-95.69,-0.580253574046808,0.46271606735741333,0.5716192586571629,0.34993007008176774,-120.8252326467279,-80.82458138152967,50.419305020833264,1
1767484521.461879,2,right_wrist,0.9833,0.4436,-0.121,17.01,2.24,82.81,-0.04360765583218397,-0.7386539390287712,-0.17525726124068813,-0.6494410081697299,117.5944518541802,-70.75872262017451,73.24122153061167,1
1767484521.532058,1,left_wrist,1.0326,-0.3553,-0.1693,5.04,-0.35,-41.02,-0.5555373316956618,0.44986910556953663,0.5885631449610615,0.37761022939013944,-150.4393206979232,-83.55902616798505,78.68608111689456,1
1767484521.532058,2,right_wrist,0.9033,0.5592,-0.1122,24.08,2.03,64.33,-0.021020605228366296,-0.7420038155256891,-0.16416979991245415,-0.6496435551114604,122.37983828587498,-73.17120054781118,69.36609637780609,1
1767484521.605043,1,left_wrist,0.9848,-0.3001,-0.1654,-6.72,-0.7,-22.96,-0.5514378451540981,0.44879684862931823,0.5908676296071275,0.3812782919006173,-156.28891161147934,-83.66126215610677,84.2796128535069,1
1767484521.605043,2,right_wrist,0.9174,0.4377,-0.1415,11.13,1.75,26.25,0.007091990738993642,-0.7444591904363781,-0.1591765809233563,-0.6483772308831649,129.09074574455087,-75.38395294676866,64.52408931361494,1
1767484521.6790679,1,left_wrist,0.9614,-0.1698,-0.1557,18.55,3.29,5.53,-0.5586797582338692,0.44812741812232093,0.5918338542043868,0.3698532599347325,-148.36744041438854,-83.10793103480049,77.54406901859639,1
1767484521.6790679,2,right_wrist,0.9179,0.3899,-0.1508,7.63,0.14,11.83,0.009167000640995949,-0.7444420110669093,-0.16060476897334766,-0.6480186466768694,129.4370134205583,-75.41363674611968,64.46561696290993,1
1767484521.7290921,1,left_wrist,0.9614,-0.1698,-0.1557,18.55,3.29,5.53,-0.5643887836350918,0.4475565282243674,0.592368857741459,0.3609121656701696,-142.84688888622821,-82.61723932195656,72.94677267399977,1
1767484521.7290921,2,right_wrist,0.9335,0.3079,-0.1645,3.57,-1.68,-1.4,0.00600824485108461,-0.7442782184935192,-0.16527225149427996,-0.6470694841791986,128.41634568843037,-74.83696287838383,65.61971661131096,1
1767484521.801127,1,left_wrist,0.9701,-0.1152,-0.1581,2.8,1.96,18.2,-0.5671241400769351,0.4537191182242425,0.5895893512337576,0.35340284154427715,-137.5290173962095,-81.66284088743677,67.71652715380665,1
1767484521.801127,2,right_wrist,0.9555,0.2933,-0.123,-2.94,-4.62,-15.89,-0.007562417098618213,-0.7414831328788511,-0.1775734507686171,-0.6470032790379937,124.01719734248883,-73.09698148272818,69.94429051280683,1
1767484521.8526,1,left_wrist,0.9721,-0.1122,-0.1869,6.23,2.8,28.84,-0.5714651941762631,0.4609351896175817,0.585721532693867,0.3433606980363905,-131.71458010763138,-80.39208705364614,62.11256622627344,1
1767484521.8526,2,right_wrist,0.9379,0.3187,-0.0888,-18.48,-4.48,-29.12,-0.02445487986165104,-0.7381346731591033,-0.1832169252494088,-0.6488379777983164,119.79722899586639,-71.60408637838927,73.26283496535592,1
1767484521.9066,1,left_wrist,0.9941,-0.2523,-0.1537,58.31,10.15,58.73,-0.5949340977129359,0.4625567058235912,0.5785171916502956,0.3121098720661968,-117.20369778966239,-77.71363300644258,50.34123865241189,1
1767484521.9066,2,right_wrist,0.8828,0.4592,-0.0893,-58.38,-5.53,-64.47,-0.06533076333206235,-0.7316777922014583,-0.18976336780567557,-0.6514363852293619,112.6020906003228,-68.20038169729204,77.67952063580805,1
1767484521.980078,1,left_wrist,1.0321,-0.5949,0.0063,86.66,66.64,155.89,-0.6852235972820264,0.471563700743587,0.5110341230791748,0.21665738602131862,-85.56568994909931,-64.78032614634968,25.74104499144952,1
1767484521.980078,2,right_wrist,0.8667,0.7139,-0.0068,-122.92,11.83,-126.07,-0.14231739609069016,-0.7103340085598863,-0.1970890909817165,-0.6605507136240256,100.63245142043746,-61.924094282544885,83.94345301114349,1
1767484522.036006,1,left_wrist,1.0585,-0.8804,0.1562,111.65,75.53,186.2,-0.7405583434018767,0.4716023538167298,0.4552290799429459,0.1480913389320485,-75.98302373871553,-54.481486147992044,21.19387355067375,1
1767484522.036006,2,right_wrist,0.8638,0.9594,0.1781,-170.1,32.27,-170.66,-0.24305196296061007,-0.6696647871343363,-0.20356788741253426,-0.6715913425497055,88.06665463272333,-53.180456430248285,88.56095782843754,1
1767484522.1009479,1,left_wrist,1.0536,-0.9126,0.3465,175.63,93.17,225.82,-0.8048387334067648,0.44950454126395295,0.38329400545356745,0.057148805539909094,-66.04084475354482,-41.94038504206815,19.851307431068847,1
1767484522.1009479,2,right_wrist,0.8691,1.1317,0.4246,-161.0,98.91,-212.31,-0.4362226580855844,-0.5299762561858543,-0.2447905991598646,-0.6847718766238342,68.23855769986612,-30.81443539056919,93.85027066927806,1
1767484522.151986,1,left_wrist,1.0053,-1.0897,0.5817,193.48,136.64,248.36,-0.8640022635456734,0.4134328421738003,0.2850590649649728,-0.03625883452817589,-56.010302874793325,-27.55514858212359,19.665942399471696,1
1767484522.151986,2,right_wrist,0.8721,1.1868,0.6891,-144.76,131.32,-216.02,-0.5164723186821575,-0.43433807908768557,-0.2719807981274861,-0.6860271295943265,59.98557103239267,-18.36046995911648,95.39369124528639,1
1767484522.2329931,1,left_wrist,0.7281,-1.0121,0.8145,81.62,188.44,212.66,-0.9085105379239113,0.3770884370938999,0.06727441930525863,-0.1669942082780878,-45.04414413884497,0.21223163078596238,20.742659963883895,1
1767484522.2329931,2,right_wrist,0.7613,1.2488,0.8989,-146.79,171.43,-213.78,-0.5816591951365191,-0.3221926091772248,-0.30060872023296237,-0.6837389126154876,52.10657132835467,-5.214671882048332,96.67341983769244,1
1767484522.283633,1,left_wrist,0.5348,-0.7691,0.8847,58.03,210.14,179.13,-0.9054528498559344,0.3705682798660185,-0.04520898228263187,-0.20196641940153195,-42.147406516837876,13.388573665067167,19.9693771202965,1
1767484522.283633,2,right_wrist,0.5919,0.9936,0.9897,-125.58,197.26,-203.7,-0.6276603307025053,-0.2047610866885053,-0.3351310405992457,-0.6721626233787704,45.657082442177796,8.362262624347427,97.44698524383614,1
1767484522.3506172,1,left_wrist,0.2904,-0.6471,0.7281,37.45,210.77,148.26,-0.8898464792969107,0.36858326359297916,-0.15054948061428766,-0.222832840866891,-40.76887745305859,25.607053167777977,18.463504370614203,1
1767484522.3506172,2,right_wrist,0.2074,0.6988,0.7637,-62.86,201.53,-139.72,-0.651889911255184,-0.0025341664065397845,-0.4199816373164518,-0.6313862097966069,39.506317780907644,32.9811787982539,100.30542232575544,1
1767484522.407202,1,left_wrist,0.039,-0.4982,0.5846,15.4,195.37,118.86,-0.8651591342509968,0.3717280810994631,-0.24187354597159716,-0.23412623497443064,-41.14031800581868,36.340364810740155,16.241492595737355,1
1767484522.407202,2,right_wrist,-0.0693,0.569,0.6451,-67.34,185.78,-123.34,-0.6483432943492089,0.08660917277455042,-0.4502987233883172,-0.6077671293995547,36.898598207723964,43.564659075978554,101.48694604851886,1
1767484522.479983,1,left_wrist,-0.3572,-0.3894,0.5324,25.06,136.99,93.24,-0.8113867400476558,0.364883842500775,-0.38282611518010157,-0.24890862799995347,-42.344361639977606,53.40654140935664,12.059466210466343,1
1767484522.479983,2,right_wrist,-0.2172,0.3904,0.3865,-50.54,163.1,-107.45,-0.6398711274080193,0.16079393475988094,-0.47654101231011387,-0.5810498381726628,35.15805474894469,52.81690311267372,102.36526941125902,1
1767484522.532038,1,left_wrist,-0.5856,-0.5114,0.4397,7.7,157.08,79.45,-0.7770466604813505,0.3668831153166899,-0.44730108881113095,-0.24802621449894804,-46.489083369122405,61.29937140455153,6.8456535621792876,1
1767484522.532038,2,right_wrist,-0.3157,0.3074,0.2704,-44.8,129.78,-78.47,-0.6270463751924741,0.21797264471314495,-0.4954155221870932,-0.5602358698716337,34.23001388784953,59.94318838139819,103.69754497970683,1
1767484522.582344,1,left_wrist,-0.5451,-0.2957,-0.3304,-99.75,144.48,45.64,-0.7234082653131466,0.40845400665455445,-0.4933060218081607,-0.25786619586962517,-61.90911990929878,67.5744888121548,-4.495455424294369,1
1767484522.582344,2,right_wrist,-0.5183,0.2416,0.2962,-64.4,88.06,-58.52,-0.6147429407312288,0.2656902338824862,-0.4973963402392211,-0.551449632475369,31.36814469644229,64.76561170421692,103.98101639118677,1
1767484522.6562402,1,left_wrist,-0.4895,0.1269,-0.7325,-23.59,8.68,13.16,-0.7127426091762197,0.41521591417136405,-0.49909413386438795,-0.2655160319560182,-64.34275695237423,68.73994888979958,-5.693804056614575,1
1767484522.6562402,2,right_wrist,-0.6978,0.0615,-0.224,12.6,22.82,-7.28,-0.5994991434906649,0.3002243114650923,-0.5315568692894983,-0.5176035495148942,36.77386800586341,71.46508405459478,108.51267406629447,1
1767484522.706362,1,left_wrist,-0.8906,-0.4621,0.2738,56.28,-77.7,-2.1,-0.7417474343895261,0.3893185391878903,-0.47747455783425563,-0.26506577531274145,-53.404900551245746,66.1661501872873,3.0420438323399814,1
1767484522.706362,2,right_wrist,-0.9306,0.1986,0.1171,-17.5,-21.35,-3.92,-0.601182257992338,0.30207588401327007,-0.524175367006595,-0.5220825965269641,34.49162380556393,71.02613547866447,106.92617640445697,1
1767484522.779377,1,left_wrist,-0.8974,-0.405,0.164,13.65,-5.18,-9.8,-0.7436879497988498,0.3944563929136471,-0.4752577226180582,-0.25585637476020634,-55.38901957234794,65.33115316248154,0.7712067173050376,1
1767484522.779377,2,right_wrist,-0.9697,0.1854,0.2264,16.59,-5.88,-0.84,-0.6033256404631702,0.29820206329514176,-0.5286675293926596,-0.5172855539951675,35.41321914500252,71.16080642282336,106.95115789934967,1
1767484522.848497,1,left_wrist,-0.8618,-0.4929,0.242,15.26,-18.34,-11.27,-0.7523557359694717,0.3927285663156104,-0.46646507653067104,-0.2492698379883835,-54.42475488843638,63.85556597622596,1.13014522883291,1
1767484522.848497,2,right_wrist,-0.9267,0.2796,0.3216,6.09,-16.73,7.98,-0.6089753829687464,0.2755407177601553,-0.5261546732379317,-0.5257257418313965,36.465970690676556,68.52042864112032,106.90103431076773,1
1767484522.902053,1,left_wrist,-0.8335,-0.428,0.1908,-10.08,-20.44,-14.77,-0.7556756942601385,0.4003175948361844,-0.45558515638540414,-0.2472695566589574,-55.15255671269344,62.43940091511978,1.1088287133257637,1
1767484522.902053,2,right_wrist,-0.8677,0.2347,0.2089,10.01,-26.25,10.29,-0.6115968226616265,0.2646304265966125,-0.5257639309609826,-0.5286703630145657,37.09643947086561,67.35611896369332,106.88742124856199,1
1767484522.979285,1,left_wrist,-0.71,-0.3553,0.0742,-26.25,-65.52,-37.94,-0.7680709496451807,0.4188521027705562,-0.41572519996421103,-0.2486010668330897,-55.20487823849603,57.87253088157471,3.625852169976937,1
1767484522.979285,2,right_wrist,-0.7784,0.2064,0.082,24.64,-48.02,24.01,-0.617969915049083,0.24267577409188443,-0.5240595180962015,-0.5334634704044044,37.90146845804035,65.04281665400464,106.30262454914279,1
1767484523.0312479,1,left_wrist,-0.6032,-0.4168,0.2669,-11.55,-110.88,-59.85,-0.7929148974405053,0.42242745460934195,-0.36221683611091127,-0.24827399108039208,-52.156662173878914,51.643955465356754,8.124609845850093,1
1767484523.0312479,2,right_wrist,-0.6573,0.2206,0.0508,53.13,-78.47,49.14,-0.6275418708072621,0.19959931674620904,-0.5229670536507651,-0.5411624284205308,40.201531375899506,60.73859745878098,105.75291413674712,1
1767484523.082279,1,left_wrist,-0.4992,-0.5158,0.2606,-63.63,-132.44,-97.65,-0.8105177135028098,0.44718228689115813,-0.2878491495596679,-0.24542189284321664,-53.34213550105733,43.32298986297888,11.126988152528924,1
1767484523.082279,2,right_wrist,-0.5002,0.305,0.0815,82.95,-116.13,86.17,-0.6368019605480987,0.12848205628816933,-0.520213110797176,-0.5543951150657684,44.14160439117418,53.61074848558982,105.24031814278838,1
1767484523.1577091,1,left_wrist,-0.3406,-0.3997,0.4841,-58.59,-165.48,-135.45,-0.8322836078049278,0.463160268310245,-0.19282544075639355,-0.23580693678324555,-53.86035615623161,32.643056380071584,14.715627352507045,1
1767484523.1577091,2,right_wrist,-0.1898,0.5802,0.5539,94.92,-181.09,167.51,-0.6339232859117583,-0.08337938075126944,-0.48004386862969084,-0.6006222029157883,52.41466447282186,30.561502310681746,102.2279074747077,1
1767484523.232199,1,left_wrist,-0.0264,-0.7896,0.7203,-214.76,-177.17,-203.35,-0.8127992360629364,0.5528931187743581,0.046060397034620115,-0.17760923650667523,-67.21680029986518,6.979957649625513,20.010376778458202,1
1767484523.232199,2,right_wrist,-0.1127,0.8384,0.6637,124.11,-178.85,213.57,-0.6043953725960807,-0.2109393083818701,-0.4488699759719541,-0.6234794194155574,58.05277193358672,16.233781056608503,100.8310724242943,1
1767484523.2827709,1,left_wrist,0.2147,-0.5934,0.3445,-82.6,-98.35,-245.63,-0.804996344043998,0.5637134849061771,0.14911446855784063,-0.10942060261871749,-71.20483861042575,-6.702234244346811,20.282612928002205,1
1767484523.2827709,2,right_wrist,0.0132,0.9252,0.7149,265.51,-113.19,246.05,-0.5270137705926615,-0.35755246060146845,-0.459061081502424,-0.619415568881963,71.14895766935328,2.3449630646082196,100.89348022412075,1
1767484523.357441,1,left_wrist,0.6544,-1.1463,0.3065,-125.65,-105.63,-216.3,-0.7715524499680168,0.584046955923226,0.2475728258788936,-0.047996521868814,-78.08438484869598,-19.024134056873567,22.596477778201972,1
1767484523.357441,2,right_wrist,0.5446,0.9667,0.4592,226.24,-52.85,266.42,-0.3492533342071784,-0.55959027716126,-0.3980352761772571,-0.6375333318111673,86.37898650927198,-25.816134564269387,98.28795660855155,1
1767484523.429091,1,left_wrist,0.9614,-0.9877,0.0844,-75.81,-73.71,-218.68,-0.7122669293778232,0.5655532367556665,0.40788637667738276,0.08033717340604152,-87.86770217630331,-42.21525858077774,27.93143520055496,1
1767484523.429091,2,right_wrist,0.9116,0.8613,0.1249,101.01,-40.6,258.44,-0.2549244134955567,-0.6278820593835103,-0.35090331219616966,-0.6462542289208063,92.57087063362812,-39.24481375038083,96.04487890068475,1
1767484523.480097,1,left_wrist,1.0497,-0.6246,-0.0283,-57.89,-39.83,-205.94,-0.6793344439788613,0.5440030461866531,0.46992698303667757,0.14742465729185153,-93.1966444806632,-53.02272061930086,31.13206810268151,1
1767484523.480097,2,right_wrist,1.1507,1.1019,0.1,62.02,-33.81,221.9,-0.1778958977942917,-0.6743112965024854,-0.2992731940436425,-0.6512241398197831,98.00191424894975,-50.513698822469465,92.46188284810746,1
1767484523.530495,1,left_wrist,1.2244,-0.6954,-0.0112,-36.26,-34.02,-190.75,-0.6487315786888043,0.5130427617328441,0.5229569282561778,0.20603522668303767,-99.25999364981054,-62.86408908087973,36.184206628329804,1
1767484523.530495,2,right_wrist,1.1341,0.9555,-0.0102,31.01,-21.21,152.95,-0.1287507525667878,-0.6989173947771807,-0.2601742738172068,-0.6536413896281763,102.18991004008154,-57.85318085658829,88.90971639966911,1
1767484523.60268,1,left_wrist,1.2078,-0.6773,-0.0107,-53.27,-28.77,-154.07,-0.6174515116321756,0.493792913000537,0.5570621839310597,0.2541729983447175,-108.34502720463192,-69.87353675977734,43.36458838640804,1
1767484523.60268,2,right_wrist,0.9496,0.5466,-0.1337,-16.8,-18.97,84.56,-0.08659575438922551,-0.7270460053653873,-0.2059049393099084,-0.649236811473115,109.85103594603707,-65.28367413075917,80.05806903639706,1
1767484523.685668,1,left_wrist,1.1146,-0.4641,-0.0683,-73.92,-11.69,-136.57,-0.5497193001832774,0.46755735564350737,0.5956138470244935,0.35276473097851163,-147.40310485246548,-79.96988414995285,76.18034763070816,1
1767484523.685668,2,right_wrist,0.934,0.5422,-0.0927,-9.17,-28.98,74.9,-0.074038811300188,-0.7393696061014278,-0.1805028900574239,-0.644414111170443,114.85727071088178,-67.84878670337875,73.94171874455286,1
1767484523.749098,1,left_wrist,1.0765,-0.3065,-0.0737,-30.66,2.03,-97.3,-0.5313414157394529,0.45028130807696315,0.60722301667742,0.3823653377774541,-174.34912426447949,-81.74122686602976,101.99216565342644,1
1767484523.749098,2,right_wrist,0.9467,0.4924,-0.0708,-3.08,-16.03,58.87,-0.04904438963143806,-0.7550263620487717,-0.13773708948402216,-0.6391856808764939,125.44688739828159,-72.11850377866081,61.83303677036792,1
1767484523.801177,1,left_wrist,1.0682,-0.3279,-0.1122,2.03,-1.54,-53.62,-0.5247765472939677,0.43801350509227055,0.6161674387275263,0.3912690023742816,171.0776671346064,-81.67497975037828,116.90010541132459,1
1767484523.801177,2,right_wrist,0.9472,0.4587,-0.0766,-1.82,-11.13,44.45,-0.040909307657201674,-0.7589597947363917,-0.12445461524165317,-0.6378224731582877,129.6475730006704,-73.33153746241179,57.19830056247714,1
1767484523.8521652,1,left_wrist,0.9955,-0.2582,-0.1357,13.51,-1.26,-32.76,-0.5236895058256156,0.4288660065514014,0.6230562756595183,0.39194913863161673,164.7868567708631,-81.40268592586955,124.0246525680928,1
1767484523.8521652,2,right_wrist,0.9077,0.4802,-0.0961,-7.84,-10.57,26.18,-0.040157451915312135,-0.7618185922462635,-0.11595425572982444,-0.6360616496391944,131.95712971873004,-73.70184434766553,54.25025228573146,1
1767484523.933515,1,left_wrist,0.9819,-0.2313,-0.1747,-4.2,-2.94,-1.4,-0.5226361146331276,0.42362054541813543,0.628563381310214,0.3902629893503869,162.21990703948222,-80.99207283361717,127.26043440798759,1
1767484523.933515,2,right_wrist,0.8926,0.4441,-0.1147,-6.65,-5.88,13.23,-0.042473107598693015,-0.7627850859972379,-0.1122775726839897,-0.6354122239800614,132.31535819963122,-73.70471409061352,53.40083549785652,1
1767484524.006645,1,left_wrist,0.976,-0.1298,-0.1664,8.47,-2.24,11.69,-0.5274549566059366,0.4281433573437462,0.6268124162497855,0.381563532258208,170.0684074478229,-81.09946277504797,119.83304942724828,1
1767484524.006645,2,right_wrist,0.9062,0.3782,-0.1288,9.66,-2.8,-8.96,-0.04890175499816491,-0.7620038638326195,-0.12246533035848041,-0.63400392169327,129.77376241297262,-72.60172607014455,56.25913737659275,1
1767484524.084193,1,left_wrist,1.0024,-0.1074,-0.163,-0.35,-7.63,20.37,-0.5339298288173434,0.44730210844052126,0.6189013918299706,0.3630438387780071,-170.34557501118007,-80.29215070894648,100.13741851132502,1
1767484524.084193,2,right_wrist,0.9174,0.3792,-0.142,6.93,-0.49,-16.45,-0.05468441787211925,-0.7600291062737258,-0.13250069496662747,-0.6338840098094524,127.17151546205807,-71.63145323906602,59.219013668707866,1
1767484524.153319,1,left_wrist,0.9862,-0.142,-0.1698,49.0,3.99,50.47,-0.5542954743291701,0.4512703438634832,0.6136850528853811,0.33541356524833776,-151.1021438953721,-79.43579675251996,83.17830216080571,1
1767484524.153319,2,right_wrist,0.9365,0.4875,-0.0961,-52.5,-7.28,-62.93,-0.107806125480524,-0.7521534445989907,-0.15182374211287444,-0.6321333612597851,116.63114369794025,-66.66253047845564,67.01141670585882,1
1767484524.226837,1,left_wrist,1.0375,-0.6451,0.0937,138.53,68.53,150.92,-0.6390962463252098,0.45001831383731467,0.5743297391368829,0.24327937826089358,-102.34716594328484,-72.37607272354722,42.86370998039357,1
1767484524.226837,2,right_wrist,0.9072,0.6812,0.001,-101.15,5.25,-105.56,-0.1724440858410076,-0.7354412428507904,-0.1603599687092775,-0.6353533631044251,106.23312294546362,-61.54888151231799,72.75673159055779,1
1767484524.285123,1,left_wrist,1.0472,-0.791,0.2513,143.99,96.18,206.92,-0.710806470993067,0.4488994173907373,0.5156409490412027,0.1654021932518632,-82.06097064145028,-61.82866314146728,28.850326792941004,1
1767484524.285123,2,right_wrist,0.8745,0.8491,0.1108,-130.62,24.78,-150.64,-0.2562970708996797,-0.7032311327647188,-0.17533305583614406,-0.6395593052171585,94.94096489296493,-54.06090338041894,78.15805213685509,1
1767484524.355647,1,left_wrist,1.0804,-1.0024,0.5134,144.69,110.53,228.06,-0.7762676421557492,0.44360132834845667,0.4404248050162941,0.08156224834933044,-70.49627060584059,-49.12484341265971,23.80310947452986,1
1767484524.355647,2,right_wrist,0.8657,1.2415,0.4485,-203.77,86.66,-222.04,-0.4606378319309199,-0.5662393128791662,-0.2153960890483627,-0.648683553951217,71.6347025463396,-32.4240451783329,85.54079786221975,1
1767484524.427764,1,left_wrist,0.856,-1.0712,0.7193,90.51,172.34,238.91,-0.8660962256392397,0.44044935705634597,0.228664500208414,-0.0599519653268414,-57.29839890775389,-20.076793911886277,18.967365791546193,1
1767484524.427764,2,right_wrist,0.7969,0.9736,0.6847,-224.91,127.26,-224.63,-0.5623318001342367,-0.4561878465434103,-0.22840241944695824,-0.6507748689175471,59.38851871895886,-19.68661345426844,87.03827165201587,1
1767484517.8345401,1,left_wrist,0.9467,-0.1864,-0.1196,59.22,40.04,0.0,-0.4909482553044364,0.6528329686267327,0.40110117163877934,0.4146043605626161,-119.45095555389392,-69.25637627131606,19.22146158770353,1
1767484517.8345401,2,right_wrist,0.8472,0.3055,-0.0059,-4.83,8.4,-19.18,-0.11005302855919138,-0.7276656774628443,-0.15846457361554522,-0.6582400562532891,106.49705436875453,-67.38035215520344,77.50415550132985,1
1767484517.901442,1,left_wrist,0.8486,-0.1635,-0.059,80.29,63.0,-30.38,-0.5187654014078801,0.6156019646006876,0.4111582694059921,0.427627825311876,-108.49725010111764,-72.38025844212265,11.92417722116403,1
1767484517.901442,2,right_wrist,0.896,0.405,0.0049,16.38,31.57,-9.38,-0.1099438732767516,-0.7069336516935315,-0.17358567991981638,-0.6767755673477945,98.7049153258948,-66.73697975588995,86.5618544691748,1
1767484517.953355,1,left_wrist,0.9355,-0.2826,-0.0107,86.45,50.33,-48.02,-0.5434359888031146,0.575216152660334,0.42698918580010614,0.4375887784232896,-95.98954175080178,-75.35226965691102,3.5412008562151605,1
1767484517.953355,2,right_wrist,0.9218,0.4265,-0.0098,32.27,35.28,-8.68,-0.10163650862574616,-0.6947345790796321,-0.18829582550694812,-0.6867012209411543,95.17666553241816,-66.33025397861579,92.0024091343824,1
1767484518.026887,1,left_wrist,0.9614,-0.3753,-0.0839,43.47,20.23,-38.99,-0.5579172604805925,0.5331625396153903,0.4498389989077842,0.4495674719887335,-82.00046331374853,-78.91140114831477,-6.558860760045426,1
1767484518.026887,2,right_wrist,0.9594,0.3865,0.0029,34.02,32.48,-14.0,-0.0915009390194978,-0.6834925514582332,-0.20207942066078283,-0.6954346971535624,92.25546241843682,-66.01726204013055,96.91420408697614,1
1767484518.082947,1,left_wrist,0.9604,-0.3675,-0.0595,54.74,12.46,-18.83,-0.5699570067054935,0.5166737392711109,0.4604035202306143,0.4429738775753941,-76.89479426073065,-79.28568061741132,-9.035024057236512,1
1767484518.082947,2,right_wrist,0.9887,0.3831,0.0098,28.91,23.8,-17.71,-0.08349839375214688,-0.6751430115988567,-0.21398306497330113,-0.7010143936002096,90.44608890011604,-65.62106149088571,100.38688133898438,1
1767484518.1350012,1,left_wrist,0.955,-0.3318,-0.0381,57.96,-6.02,-1.12,-0.5819627945884113,0.5062092423815387,0.4719921616109931,0.42696007778261585,-77.29961018854107,-78.9996535880302,-5.743600037364353,1
1767484518.1350012,2,right_wrist,1.0116,0.387,0.02,29.26,17.85,-17.29,-0.07551038947390695,-0.6689125561629071,-0.22536283720226313,-0.7043193628583916,89.51599115415848,-65.2607433621548,102.93940505094201,1
1767484518.20191,1,left_wrist,0.9121,-0.2855,-0.039,43.05,-16.17,-1.19,-0.5878226210646228,0.5010971253627361,0.4836085630525279,0.4116904114260961,-81.05553140427696,-78.85639760626951,0.19798837535640276,1
1767484518.20191,2,right_wrist,0.9828,0.3231,0.0122,28.77,10.57,-12.53,-0.057405308677201894,-0.661487789262397,-0.24640766476386444,-0.705989941810817,89.53577916289457,-64.92005652999927,106.20248449837304,1
1767484518.252684,1,left_wrist,0.9399,-0.2772,-0.041,26.67,-20.79,-5.74,-0.5880418932541411,0.49982983752270627,0.49441515469770614,0.39991314070101963,-86.59490302617176,-78.88751446588877,7.12789194361969,1
1767484518.252684,2,right_wrist,0.976,0.3284,0.0142,25.69,1.96,-7.63,-0.04868132511559309,-0.661583084657686,-0.253180694257087,-0.7041572883492084,90.48795853409571,-65.10309527011847,106.5438922210424,1
1767484518.304985,1,left_wrist,0.9399,-0.2772,-0.041,26.67,-20.79,-5.74,-0.5885450798400845,0.49844753072185316,0.5046996932733603,0.3878697819153897,-91.86127356131962,-78.73744650866055,13.796405775768124,1
1767484518.304985,2,right_wrist,0.9614,0.364,0.0083,21.21,-5.04,-5.53,-0.04141983346660827,-0.6636531480323192,-0.2577895102457127,-0.700994625449915,91.89568721049373,-65.37843746455653,106.12321069552642,1
1767484518.3581738,1,left_wrist,0.9511,-0.2616,-0.0512,34.02,-25.48,4.34,-0.5909938912486973,0.49796488417433976,0.5152533461733855,0.3705012603124163,-97.41456955258506,-77.96389600945082,21.14676460866254,1
1767484518.3581738,2,right_wrist,0.9345,0.3977,0.001,19.18,-8.61,-4.55,-0.0355014534798051,-0.6657048667748195,-0.2616947999706149,-0.6979201306893797,93.23171593276055,-65.5934686586107,105.60481835731535,1
1767484518.433752,1,left_wrist,0.9819,-0.266,0.0024,39.48,-25.27,10.22,-0.6019396273924641,0.4927663950447779,0.5321053744985055,0.33423619690123463,-102.32740408019075,-75.9280945372424,30.124583789597644,1
1767484518.433752,2,right_wrist,0.9838,0.4353,0.0054,15.33,-15.33,-2.1,-0.03279168195952117,-0.6684100269534262,-0.26517298644919113,-0.6941440979508525,94.74240710345713,-65.58213564593157,104.61474495483158,1
1767484518.507054,1,left_wrist,0.9126,-0.3255,0.0068,28.91,-20.37,11.97,-0.607802670686716,0.49174239508192813,0.536157933099614,0.3182766110783736,-102.86008382971372,-74.74767583640707,32.25676449457763,1
1767484518.507054,2,right_wrist,0.896,0.427,-0.0493,-0.91,-18.76,-13.3,-0.04382378370495834,-0.6738859281951283,-0.27912745366824043,-0.6826749566016435,98.28148498352479,-63.58885461885686,101.39929292523702,1
1767484518.581202,1,left_wrist,0.956,-0.2708,-0.0176,7.21,-9.59,1.75,-0.6123589636284417,0.4913132609410632,0.5365645342852223,0.30939663836997633,-102.25473586981293,-73.9791955419317,32.507768871945366,1
1767484518.581202,2,right_wrist,0.8413,0.467,-0.0742,11.34,-11.41,-12.04,-0.048836520146841554,-0.6755164311461472,-0.2890987133163936,-0.6765459921618967,99.90174883761776,-62.349972616743834,100.25086495574743,1
1767484518.632808,1,left_wrist,0.977,-0.2826,-0.0083,14.0,-7.49,1.19,-0.6161985694913604,0.487507580299797,0.5381819789367553,0.3049521924085081,-101.32898902536931,-73.86033474037971,32.391308526753754,1
1767484518.632808,2,right_wrist,0.8974,0.4168,-0.0717,5.95,-12.18,-8.26,-0.04756508751426328,-0.6789365969296928,-0.2897856959254433,-0.6729092882672189,101.18190170080734,-62.39437864562945,99.1347589264304,1
1767484518.700592,1,left_wrist,0.9614,-0.2874,-0.0239,12.67,-3.78,3.5,-0.6211329958145699,0.4846349308588183,0.5377221800169879,0.3002959247470134,-99.76499638061657,-73.54889667342916,31.542833461025456,1
1767484518.700592,2,right_wrist,0.8974,0.4168,-0.0717,5.95,-12.18,-8.26,-0.046451696288586974,-0.6836131397161639,-0.2917308028942202,-0.6673892820251275,103.03674473719602,-62.29701210524765,97.54357793934658,1
1767484518.7774951,1,left_wrist,0.9662,-0.2938,-0.0459,1.82,0.0,2.66,-0.6247715545612922,0.486845176761872,0.5343159758671538,0.29520961435545895,-98.73997696373056,-72.7642368320654,30.72364488228817,1
1767484518.7774951,2,right_wrist,0.8974,0.4168,-0.0717,5.95,-12.18,-8.26,-0.04644444474579909,-0.6853923088241229,-0.29304166398039744,-0.6649863755962164,103.78875721672331,-62.16952447674295,96.90913070212726,1
1767484518.8310158,1,left_wrist,0.9584,-0.2987,-0.0605,-9.1,-0.49,-0.14,-0.6207626749694068,0.49148427533146444,0.5345811850718085,0.29549934861849103,-100.52466395807754,-72.58512485302731,32.00176237371881,1
1767484518.8310158,2,right_wrist,0.8691,0.4534,-0.08,-2.59,-8.12,0.63,-0.04886884717562588,-0.6854342642269899,-0.29152119026423345,-0.6654375258626876,103.54530775020254,-62.09621946660469,96.82117790341374,1
1767484518.882207,1,left_wrist,0.9614,-0.2948,-0.0654,-9.8,-1.12,1.26,-0.6160815081986228,0.49591341071703504,0.5353770419833865,0.29645385348115627,-102.504474352913,-72.49727997708575,33.437468965172954,1
1767484518.882207,2,right_wrist,0.8599,0.4719,-0.1,-2.45,-4.76,1.12,-0.0533522188401095,-0.684836385010659,-0.2928009828525917,-0.6651467890254946,103.31358317728747,-61.617075461766,96.80249834655328,1
1767484518.932843,1,left_wrist,0.9379,-0.2977,-0.06,0.49,-1.12,3.29,-0.6189687295984355,0.49781126512693236,0.5320989397388616,0.29314224264135225,-101.49648791085853,-71.9089464925284,32.506859484584176,1
1767484518.932843,2,right_wrist,0.8784,0.5002,-0.1049,0.21,-3.29,1.4,-0.0569378258793628,-0.6841529529153463,-0.2950879086790633,-0.6645419077475553,103.20255979795702,-61.12713264341032,96.82535624887836,1
1767484519.000776,1,left_wrist,0.9501,-0.2826,-0.0449,-2.59,-1.61,3.08,-0.6191404005517375,0.4965501804200076,0.5317447201662485,0.29555140890344267,-101.03811547479273,-72.16855703296847,31.962398904241443,1
1767484519.000776,2,right_wrist,0.8701,0.4953,-0.1176,-0.91,-3.01,-1.19,-0.0652598476282198,-0.6842374717102232,-0.3015793266182711,-0.6607648177314019,103.62641217144113,-59.86878361700103,96.30411306994286,1
1767484519.05114,1,left_wrist,0.9623,-0.3084,-0.0312,-3.01,-1.82,2.59,-0.6208656505691976,0.4968352202989093,0.5292709829928678,0.2958932820724133,-100.07168910000395,-72.032705560336,30.918796158114095,1
1767484519.05114,2,right_wrist,0.8804,0.4704,-0.1132,-3.01,-4.97,-1.61,-0.06385437052651946,-0.6859263845089816,-0.2978713989015632,-0.6608329926051851,103.82579146883818,-60.287660445432024,95.88913955080227,1
1767484519.106577,1,left_wrist,0.9575,-0.2869,-0.039,-1.68,-0.7,4.34,-0.6216550086533438,0.49550218912529087,0.5284660749627069,0.29790306880219625,-99.35081117858446,-72.22644961490275,30.151495216000917,1
1767484519.106577,2,right_wrist,0.8764,0.466,-0.0971,-4.2,-6.3,-1.68,-0.06478997117633521,-0.6862026747159297,-0.294658529168227,-0.6618946291035234,103.54541922003372,-60.48257458869661,95.80783739868353,1
1767484519.183682,1,left_wrist,0.9584,-0.246,-0.0527,-5.67,-0.42,-0.28,-0.6167928449979675,0.4942049596616189,0.5306425754850769,0.3061805044213873,-100.28081542810605,-73.18126474364735,30.485959409676084,1
1767484519.183682,2,right_wrist,0.8535,0.4426,-0.101,-0.7,-4.2,1.05,-0.06223427262165689,-0.6874869844160457,-0.2909455491660024,-0.6624494161747584,103.67097191736775,-61.00205956799578,95.56093310341332,1
1767484519.256892,1,left_wrist,0.9653,-0.2567,-0.0551,-2.52,-2.38,-1.47,-0.6135185055727261,0.49263976875810916,0.5338663818498458,0.3096575332336034,-101.43930055136387,-73.77524181563781,31.513737567932317,1
1767484519.256892,2,right_wrist,0.8843,0.4285,-0.1171,-1.26,-8.05,6.3,-0.054109972944665796,-0.6940720364084613,-0.28071528410091806,-0.6607079902467351,105.18611213784814,-62.47123306203762,93.80507457427755,1
1767484519.334353,1,left_wrist,0.9457,-0.2713,-0.0683,10.01,-1.47,1.75,-0.6113507752017061,0.4943996163716152,0.5391898443776604,0.30181709811053914,-104.14362665613051,-73.27654401196403,34.77428872412081,1
1767484519.334353,2,right_wrist,0.8662,0.4778,-0.1054,-12.25,-11.48,6.09,-0.06081127392971193,-0.6956826372413271,-0.2772795847259454,-0.6598815720250149,105.11751617381722,-62.17935342439923,93.02825606047193,1
1767484519.404181,1,left_wrist,0.9492,-0.2782,-0.0478,27.58,2.94,7.49,-0.6213379690408201,0.4868494016581376,0.5384810611636821,0.29488122202232103,-100.63450435434416,-72.99572739066856,32.67370831593271,1
1767484519.404181,2,right_wrist,0.8799,0.4963,-0.1025,-23.45,-10.43,-0.42,-0.07942358149094048,-0.6973378957974498,-0.26839768363059685,-0.6598290969710772,104.08193863085727,-61.35580277670854,91.77203756035723,1
1767484519.458764,1,left_wrist,0.9438,-0.3333,-0.0464,25.2,1.26,14.49,-0.6308009471304591,0.48531378948081744,0.5355949246451762,0.282309701451106,-98.22363660442514,-71.75476250370542,31.524548177966153,1
1767484519.458764,2,right_wrist,0.8623,0.4982,-0.1093,-29.05,-12.18,-6.3,-0.09514259916095943,-0.6972557131310997,-0.264220342060691,-0.6595225296927089,103.09751788373256,-60.392989181096006,91.10930845371507,1
1767484519.528376,1,left_wrist,0.9521,-0.3626,-0.0376,25.62,7.91,18.62,-0.6517862163501185,0.4828573713403054,0.5253607370689399,0.2569427622345236,-92.91599601757974,-68.90408317611849,28.61983585607949,1
1767484519.528376,2,right_wrist,0.8638,0.5871,-0.0761,-44.59,-11.55,-13.86,-0.11733081090484283,-0.6948241394444347,-0.2572325537668806,-0.6612747608523114,101.008358258929,-59.15715129892068,90.77178898264526,1
1767484519.584468,1,left_wrist,0.913,-0.3431,-0.0605,21.28,-0.28,23.8,-0.656273817591292,0.4835825802000019,0.5249158411240152,0.2447772951242166,-92.84576122999556,-67.77673983621023,29.527099618537875,1
1767484519.584468,2,right_wrist,0.8379,0.4734,-0.0737,-60.69,-10.08,-19.32,-0.14118769875938575,-0.6907287463056206,-0.24274726492622223,-0.6663584606778343,97.91181300114333,-58.42987492017199,90.6478549010226,1
1767484519.649055,1,left_wrist,0.8804,-0.447,-0.0249,103.88,7.49,49.84,-0.6852565864949887,0.4665614112529903,0.520468483393859,0.20458841117851925,-86.9308781007294,-64.7177672126679,28.72711534688703,1
1767484519.649055,2,right_wrist,0.7847,0.6115,0.041,-115.22,-2.17,-51.94,-0.23489928985071423,-0.6633877268855322,-0.21078160768109877,-0.6784616137326033,87.03317907140841,-53.239228585259205,90.90743529150456,1
1767484519.700951,1,left_wrist,0.8276,-0.5485,0.1147,111.23,18.9,59.92,-0.7186444806474696,0.4452029054434483,0.5087183948819902,0.16294194711102522,-79.71860406758977,-61.194423771389026,27.002781811363963,1
1767484519.700951,2,right_wrist,0.7286,0.814,0.1552,-113.19,12.74,-65.1,-0.28831041327218954,-0.6385487508210705,-0.19912877521873695,-0.6851863464077165,80.68038376734081,-49.484299537223045,91.61109260577977,1
1767484519.752,1,left_wrist,0.9301,-0.8413,0.2328,148.75,36.96,89.04,-0.761484653333432,0.4157106586424702,0.4858309198843793,0.10627364825300806,-71.01323800144249,-55.920794668494366,25.595967157559727,1
1767484519.752,2,right_wrist,0.6808,0.9814,0.2957,-104.02,30.45,-79.8,-0.34081422578814113,-0.6058761365053357,-0.1958925269941222,-0.6916544575014717,74.54661166335121,-44.79626404962472,92.70743800548424,1
1767484519.831139,1,left_wrist,0.7369,-0.8999,0.5451,150.57,82.32,141.61,-0.8505965436382612,0.348089466836848,0.39244416824940465,-0.03614993547595187,-54.07300128772503,-39.97523806374807,25.89821208905332,1
1767484519.831139,2,right_wrist,0.6261,1.0228,0.4109,-116.69,58.52,-107.45,-0.400724895078834,-0.557389165481832,-0.19930860034127382,-0.6992946149496123,67.58855662306465,-38.30318443201849,94.20004902824837,1
1767484519.88364,1,left_wrist,0.7159,-1.0243,0.7847,132.79,107.66,151.34,-0.8833081065810267,0.3256914418150427,0.3219071428823517,-0.10033775430017193,-47.78468455773977,-30.220429485538926,26.602709943458454,1
1767484519.88364,2,right_wrist,0.5553,1.1063,0.5714,-118.93,72.59,-136.22,-0.4657623518187711,-0.4977599514817508,-0.21017998649121358,-0.7008029934351634,61.24301549377452,-30.124158416378734,94.68199063531017,1
1767484519.957385,1,left_wrist,0.6754,-1.0477,0.913,110.67,141.19,161.35,-0.9066145400488874,0.31243935817601365,0.23459976162063326,-0.15935706787603388,-42.71129687254546,-19.014308552709686,27.43121652898023,1
1767484519.957385,2,right_wrist,0.4597,1.0951,0.9135,-133.56,113.89,-171.78,-0.6018422700795152,-0.33048386301964844,-0.2362948412295955,-0.6875543951117079,47.17288742852218,-9.789378300926971,93.32368805123676,1
1767484520.029196,1,left_wrist,0.4285,-0.8369,1.1087,68.04,200.62,143.5,-0.9239148722176551,0.29514057296999285,0.042292951134759886,-0.23975958242850523,-34.52662851232253,3.6335773707213335,27.965661235140775,1
1767484520.029196,2,right_wrist,0.3845,1.0472,1.0804,-130.97,148.61,-171.01,-0.6518904815130987,-0.23312663030867603,-0.25485279549464784,-0.6750857923124332,40.40154585440337,1.0033732224169154,92.37202922626754,1
1767484520.080024,1,left_wrist,0.3211,-0.6978,0.9584,29.96,211.96,124.46,-0.9142100571101316,0.3051855871957602,-0.0573190290672939,-0.26037714522102723,-33.198632811338086,15.291501039413593,27.21187770506419,1
1767484520.080024,2,right_wrist,0.2772,0.977,1.0863,-113.89,173.81,-166.32,-0.6875134931151282,-0.13401978931083863,-0.28314170251400916,-0.6551295056362378,34.63898118908934,12.340844834436384,91.09847067245495,1
1767484520.130155,1,left_wrist,0.1298,-0.589,0.8213,-1.33,210.56,108.57,-0.892879525915892,0.3249582568629885,-0.15033484409704082,-0.273070903149893,-33.82096349008647,26.483181599777,25.826557918531766,1
1767484520.130155,2,right_wrist,0.1976,0.7403,0.9287,-81.62,188.3,-138.25,-0.7038891562122899,-0.04234815261626853,-0.3201892002237976,-0.6326338323207071,30.424082459383197,23.401609037603652,90.34296004076944,1
1767484520.181643,1,left_wrist,-0.0478,-0.5192,0.771,4.97,198.03,99.33,-0.8663021949874494,0.33805799031656836,-0.2370679843811019,-0.28113354998031054,-34.46961955549789,36.928929121663145,24.131097071721754,1
1767484520.181643,2,right_wrist,0.0654,0.5993,0.8154,-62.3,191.52,-105.98,-0.7038481742742921,0.04039189243598629,-0.36001344268673885,-0.6110291021555581,27.449273695987863,33.7900192593964,90.40899635821482,1
1767484520.2556238,1,left_wrist,-0.2245,-0.3782,0.7588,-6.93,186.76,90.79,-0.8332270114971684,0.35129464766997104,-0.31593970324896986,-0.2872401812784581,-36.11762099749338,46.74497428449286,21.999883122951022,1
1767484520.2556238,2,right_wrist,-0.2943,0.3709,0.7422,-47.32,171.29,-75.25,-0.6800985277211693,0.18353482085792402,-0.42879642148657,-0.5656099283467886,22.623811901318454,52.266501569553526,90.70798167038346,1
1767484520.33707,1,left_wrist,-0.4387,-0.1698,0.0351,0.98,169.82,71.05,-0.7491119212732772,0.3804943755026955,-0.4621330140144671,-0.2837048412963327,-47.37637184175377,65.26803259559193,10.100900211047778,1
1767484520.33707,2,right_wrist,-0.4348,0.2347,0.5309,-62.86,153.09,-65.1,-0.6612222057312677,0.24880087975368986,-0.4502995653997528,-0.5459978189356262,19.06958870809178,60.133219257320036,90.20326086605304,1
1767484520.411233,1,left_wrist,-0.529,-0.0986,-0.6373,-73.85,94.85,28.35,-0.7105012402774129,0.411900053602468,-0.49081202331225415,-0.29091217090158594,-59.171780096479985,69.5698737862395,1.4866125961562158,1
1767484520.411233,2,right_wrist,-0.5451,0.2255,-0.4558,-9.31,80.15,-16.59,-0.6179278808483369,0.3323210046342478,-0.4875541648183687,-0.5196333518139791,17.541073227371886,71.42667044531663,92.78131180703262,1
1767484520.477441,1,left_wrist,-0.6622,-0.1566,-0.2103,31.99,-12.32,-2.59,-0.7227164582269331,0.39311217009441457,-0.4954047591465239,-0.27877924482743033,-55.58167266468387,69.26976529926698,2.178835784471699,1
1767484520.477441,2,right_wrist,-0.7808,0.1669,-0.0537,-10.01,-12.88,-3.99,-0.6179756825259465,0.3339070992937098,-0.4842801705478704,-0.5216175047503454,16.722768049075494,71.24290423936097,92.35698732433286,1
1767484520.531467,1,left_wrist,-0.9862,-0.3933,0.1737,11.27,-15.68,-8.05,-0.7286692017105765,0.3928841315409197,-0.48973043932126037,-0.27358243814984473,-55.211604399045086,68.22926256688963,2.1458566112820736,1
1767484520.531467,2,right_wrist,-0.9477,0.1015,0.2821,26.18,-4.62,-6.72,-0.6221777967469343,0.3280021100595369,-0.4908727117553602,-0.5141530763163449,17.69020806193847,71.46088094208028,91.91389282762313,1
1767484520.5820181,1,left_wrist,-0.9706,-0.4563,0.2591,16.38,-23.66,-6.65,-0.7388941468832435,0.3886079174499371,-0.48003145253486784,-0.2694237012108834,-53.084239382999655,66.74913173673544,3.640153642812594,1
1767484520.5820181,2,right_wrist,-0.9516,0.0717,0.2708,8.54,-2.38,6.16,-0.6220554455019712,0.3269533465667507,-0.49397243514765843,-0.5119958644407578,18.376530614673676,71.68696324953602,92.24293708860596,1
1767484520.632184,1,left_wrist,-0.9418,-0.3889,0.2264,-8.47,-12.39,-7.56,-0.740957068159769,0.3949824290995288,-0.47245009237172675,-0.26788507622609736,-53.977628288419794,65.74835718393341,3.3167076657964696,1
1767484520.632184,2,right_wrist,-0.9462,0.1981,0.3709,-0.84,-14.28,11.9,-0.622074886543153,0.3178918532876106,-0.4915179091996168,-0.5199786054076926,20.177843480454747,70.4099717187947,94.09366156883566,1
1767484520.708543,1,left_wrist,-0.8564,-0.2962,0.1576,-8.47,-21.98,-14.7,-0.7434543242414993,0.3994735822356185,-0.46440711843717575,-0.2683701794300868,-54.10414929639664,64.81581654614325,3.77350995330754,1
1767484520.708543,2,right_wrist,-0.8374,0.1796,0.0981,19.74,-33.6,13.44,-0.6270434822515659,0.2952900956000934,-0.4919640806384881,-0.5268695988267355,23.43960728150441,68.14431929947291,96.05070901657353,1
1767484520.7601018,1,left_wrist,-0.7076,-0.2845,-0.0059,-21.14,-52.29,-31.22,-0.7516254791198712,0.4084695551022553,-0.44157167140058906,-0.2706034380950836,-53.617522427032384,62.23424490186787,5.672663045524366,1
1767484520.7601018,2,right_wrist,-0.7144,0.1464,-0.0044,47.11,-63.21,29.12,-0.6377042048554264,0.26284437939502653,-0.49186671736193316,-0.5313316400156758,26.379786361640626,65.04589454978765,96.60017438339099,1
1767484520.8359811,1,left_wrist,-0.5666,-0.2425,0.0088,-15.4,-120.19,-51.03,-0.7953288422540283,0.41135313669343315,-0.34361182455825245,-0.2831457992538286,-47.21896707847339,51.21615542809012,15.52872418371514,1
1767484520.8359811,2,right_wrist,-0.5773,0.2396,-0.0024,66.22,-111.86,52.92,-0.6535879306040638,0.20700135524813984,-0.48473046055829533,-0.5431478956058594,29.943323894068666,59.14775759258148,96.71290788396013,1
1767484520.902124,1,left_wrist,-0.3265,-0.1401,0.3226,-54.11,-205.8,-113.33,-0.8274212346503136,0.41651746526601047,-0.2422840912767415,-0.2884193486788501,-45.73329209115825,39.8817616752289,21.03654720217352,1
1767484520.902124,2,right_wrist,-0.2455,0.266,0.4006,83.23,-195.93,100.1,-0.6881848036631855,0.030423532656851524,-0.4294852587679253,-0.583967890528913,36.15299666151042,38.80436551496728,93.74883218705061,1
1767484520.979269,1,left_wrist,-0.0595,-0.4041,0.6734,-123.83,-220.15,-171.08,-0.8638344917451126,0.4398818688277843,-0.008701326019005714,-0.24539396747587244,-50.95868139166985,13.351343620031605,25.332380220502163,1
1767484520.979269,2,right_wrist,-0.1035,0.6271,0.5846,59.01,-227.85,129.01,-0.6930226529212241,-0.0732078701638395,-0.37375016234860425,-0.6121037709641193,38.21887277340302,25.366889210159087,91.82145531180015,1
1767484521.029406,1,left_wrist,0.2377,-1.0268,0.8189,-98.77,-142.87,-220.5,-0.863001725033394,0.4583431173712981,0.10168880857746337,-0.1865716901296731,-56.00175037904313,-0.2571176389780541,24.53470171780704,1
1767484521.029406,2,right_wrist,0.1425,0.6515,0.9028,134.75,-214.27,149.59,-0.6775157562459327,-0.19713125045426708,-0.33426053371404785,-0.6248052222365291,44.42012619902922,11.922960157052556,90.24731584838143,1
1767484521.085046,1,left_wrist,0.2377,-1.0268,0.8189,-98.77,-142.87,-220.5,-0.8494259215775057,0.46797955091737936,0.20947224730589253,-0.12486841587844236,-60.76547792035184,-13.826971425205032,24.858074527425014,1
1767484521.085046,2,right_wrist,0.1806,1.2058,0.9028,146.86,-166.67,168.14,-0.6367051112628962,-0.31233415975983214,-0.30679005925143615,-0.6347706936235502,51.92699638228828,-0.3352707366411972,89.66240254749555,1
1767484521.148858,1,left_wrist,0.7427,-0.9267,0.6505,-166.25,-93.66,-256.55,-0.8132338964042541,0.49388635061707015,0.30622451290261543,-0.030877987480783294,-68.45586232862821,-27.876278205726646,23.51585597951064,1
1767484521.148858,2,right_wrist,0.6686,1.3522,0.7261,227.71,-100.31,218.4,-0.4760764699516773,-0.5325956531658625,-0.2674551296461464,-0.646653553777555,71.24638841243329,-25.731318332749524,88.68878929162113,1
1767484521.200043,1,left_wrist,0.8481,-0.7769,0.2045,-149.8,-96.6,-221.97,-0.7637365673969447,0.5113524043837142,0.3909074080329667,0.0491586462046522,-77.00239276521164,-40.34400540218878,25.21475611134529,1
1767484521.200043,2,right_wrist,0.9262,0.9321,0.4026,141.12,-70.28,227.08,-0.3821250089991981,-0.6052048208546464,-0.2344310244698184,-0.6578371356784971,78.4511736915682,-38.10383143599488,88.2096258087716,1
1767484521.2543821,1,left_wrist,0.9941,-0.6627,0.1401,-139.93,-46.97,-217.7,-0.7140088085214663,0.5164964238634296,0.4523259036526516,0.13720110194476054,-84.66687718778698,-51.96710124407912,26.12808962560092,1
1767484521.2543821,2,right_wrist,0.9028,1.0058,0.286,180.46,-49.07,190.96,-0.28167139809824837,-0.6634137543742131,-0.22315848053039744,-0.6563106783893229,88.26743882509726,-48.167374467772696,86.6552148291121,1
1767484521.328172,1,left_wrist,1.1522,-0.4485,-0.081,-55.72,-18.06,-172.06,-0.640503933119352,0.47945699351209703,0.5354047048817447,0.27058733344610425,-95.82078709009916,-70.96642238920691,30.75787624490458,1
1767484521.328172,2,right_wrist,0.8496,0.9248,0.141,154.98,-21.35,165.9,-0.1928505096188252,-0.6990945800519971,-0.21721710886823695,-0.6533698620969639,97.39465592612456,-56.07345545259312,84.6696530926136,1
1767484521.382158,1,left_wrist,1.099,-0.4231,-0.1537,-78.26,-16.52,-133.21,-0.6013524912317263,0.4734154888755305,0.5585011901279497,0.31988963222930916,-108.77576522853259,-77.05705243281399,40.033851531897426,1
1767484521.382158,2,right_wrist,0.9545,0.7671,-0.0083,82.74,-17.36,129.85,-0.1346980395335513,-0.7196082875145396,-0.20098498506639356,-0.6508651061964155,104.3424780471724,-61.95654569631722,81.19576102022688,1
1767484521.461879,1,left_wrist,1.1234,-0.4865,-0.1596,-37.1,-1.26,-95.69,-0.580253574046808,0.46271606735741333,0.5716192586571629,0.34993007008176774,-120.8252326467279,-80.82458138152967,50.419305020833264,1
1767484521.461879,2,right_wrist,0.9833,0.4436,-0.121,17.01,2.24,82.81,-0.04360765583218397,-0.7386539390287712,-0.17525726124068813,-0.6494410081697299,117.5944518541802,-70.75872262017451,73.24122153061167,1
1767484521.532058,1,left_wrist,1.0326,-0.3553,-0.1693,5.04,-0.35,-41.02,-0.5555373316956618,0.44986910556953663,0.5885631449610615,0.37761022939013944,-150.4393206979232,-83.55902616798505,78.68608111689456,1
1767484521.532058,2,right_wrist,0.9033,0.5592,-0.1122,24.08,2.03,64.33,-0.021020605228366296,-0.7420038155256891,-0.16416979991245415,-0.6496435551114604,122.37983828587498,-73.17120054781118,69.36609637780609,1
1767484521.605043,1,left_wrist,0.9848,-0.3001,-0.1654,-6.72,-0.7,-22.96,-0.5514378451540981,0.44879684862931823,0.5908676296071275,0.3812782919006173,-156.28891161147934,-83.66126215610677,84.2796128535069,1
1767484521.605043,2,right_wrist,0.9174,0.4377,-0.1415,11.13,1.75,26.25,0.007091990738993642,-0.7444591904363781,-0.1591765809233563,-0.6483772308831649,129.09074574455087,-75.38395294676866,64.52408931361494,1
1767484521.6790679,1,left_wrist,0.9614,-0.1698,-0.1557,18.55,3.29,5.53,-0.5586797582338692,0.44812741812232093,0.5918338542043868,0.3698532599347325,-148.36744041438854,-83.10793103480049,77.54406901859639,1
1767484521.6790679,2,right_wrist,0.9179,0.3899,-0.1508,7.63,0.14,11.83,0.009167000640995949,-0.7444420110669093,-0.16060476897334766,-0.6480186466768694,129.4370134205583,-75.41363674611968,64.46561696290993,1
1767484521.7290921,1,left_wrist,0.9614,-0.1698,-0.1557,18.55,3.29,5.53,-0.5643887836350918,0.4475565282243674,0.592368857741459,0.3609121656701696,-142.84688888622821,-82.61723932195656,72.94677267399977,1
1767484521.7290921,2,right_wrist,0.9335,0.3079,-0.1645,3.57,-1.68,-1.4,0.00600824485108461,-0.7442782184935192,-0.16527225149427996,-0.6470694841791986,128.41634568843037,-74.83696287838383,65.61971661131096,1
1767484521.801127,1,left_wrist,0.9701,-0.1152,-0.1581,2.8,1.96,18.2,-0.5671241400769351,0.4537191182242425,0.5895893512337576,0.35340284154427715,-137.5290173962095,-81.66284088743677,67.71652715380665,1
1767484521.801127,2,right_wrist,0.9555,0.2933,-0.123,-2.94,-4.62,-15.89,-0.007562417098618213,-0.7414831328788511,-0.1775734507686171,-0.6470032790379937,124.01719734248883,-73.09698148272818,69.94429051280683,1
1767484521.8526,1,left_wrist,0.9721,-0.1122,-0.1869,6.23,2.8,28.84,-0.5714651941762631,0.4609351896175817,0.585721532693867,0.3433606980363905,-131.71458010763138,-80.39208705364614,62.11256622627344,1
1767484521.8526,2,right_wrist,0.9379,0.3187,-0.0888,-18.48,-4.48,-29.12,-0.02445487986165104,-0.7381346731591033,-0.1832169252494088,-0.6488379777983164,119.79722899586639,-71.60408637838927,73.26283496535592,1
1767484521.9066,1,left_wrist,0.9941,-0.2523,-0.1537,58.31,10.15,58.73,-0.5949340977129359,0.4625567058235912,0.5785171916502956,0.3121098720661968,-117.20369778966239,-77.71363300644258,50.34123865241189,1
1767484521.9066,2,right_wrist,0.8828,0.4592,-0.0893,-58.38,-5.53,-64.47,-0.06533076333206235,-0.7316777922014583,-0.18976336780567557,-0.6514363852293619,112.6020906003228,-68.20038169729204,77.67952063580805,1
1767484521.980078,1,left_wrist,1.0321,-0.5949,0.0063,86.66,66.64,155.89,-0.6852235972820264,0.471563700743587,0.5110341230791748,0.21665738602131862,-85.56568994909931,-64.78032614634968,25.74104499144952,1
1767484521.980078,2,right_wrist,0.8667,0.7139,-0.0068,-122.92,11.83,-126.07,-0.14231739609069016,-0.7103340085598863,-0.1970890909817165,-0.6605507136240256,100.63245142043746,-61.924094282544885,83.94345301114349,1
1767484522.036006,1,left_wrist,1.0585,-0.8804,0.1562,111.65,75.53,186.2,-0.7405583434018767,0.4716023538167298,0.4552290799429459,0.1480913389320485,-75.98302373871553,-54.481486147992044,21.19387355067375,1
1767484522.036006,2,right_wrist,0.8638,0.9594,0.1781,-170.1,32.27,-170.66,-0.24305196296061007,-0.6696647871343363,-0.20356788741253426,-0.6715913425497055,88.06665463272333,-53.180456430248285,88.56095782843754,1
1767484522.1009479,1,left_wrist,1.0536,-0.9126,0.3465,175.63,93.17,225.82,-0.8048387334067648,0.44950454126395295,0.38329400545356745,0.057148805539909094,-66.04084475354482,-41.94038504206815,19.851307431068847,1
1767484522.1009479,2,right_wrist,0.8691,1.1317,0.4246,-161.0,98.91,-212.31,-0.4362226580855844,-0.5299762561858543,-0.2447905991598646,-0.6847718766238342,68.23855769986612,-30.81443539056919,93.85027066927806,1
1767484522.151986,1,left_wrist,1.0053,-1.0897,0.5817,193.48,136.64,248.36,-0.8640022635456734,0.4134328421738003,0.2850590649649728,-0.03625883452817589,-56.010302874793325,-27.55514858212359,19.665942399471696,1
1767484522.151986,2,right_wrist,0.8721,1.1868,0.6891,-144.76,131.32,-216.02,-0.5164723186821575,-0.43433807908768557,-0.2719807981274861,-0.6860271295943265,59.98557103239267,-18.36046995911648,95.39369124528639,1
1767484522.2329931,1,left_wrist,0.7281,-1.0121,0.8145,81.62,188.44,212.66,-0.9085105379239113,0.3770884370938999,0.06727441930525863,-0.1669942082780878,-45.04414413884497,0.21223163078596238,20.742659963883895,1
1767484522.2329931,2,right_wrist,0.7613,1.2488,0.8989,-146.79,171.43,-213.78,-0.5816591951365191,-0.3221926091772248,-0.30060872023296237,-0.6837389126154876,52.10657132835467,-5.214671882048332,96.67341983769244,1
1767484522.283633,1,left_wrist,0.5348,-0.7691,0.8847,58.03,210.14,179.13,-0.9054528498559344,0.3705682798660185,-0.04520898228263187,-0.20196641940153195,-42.147406516837876,13.388573665067167,19.9693771202965,1
1767484522.283633,2,right_wrist,0.5919,0.9936,0.9897,-125.58,197.26,-203.7,-0.6276603307025053,-0.2047610866885053,-0.3351310405992457,-0.6721626233787704,45.657082442177796,8.362262624347427,97.44698524383614,1
1767484522.3506172,1,left_wrist,0.2904,-0.6471,0.7281,37.45,210.77,148.26,-0.8898464792969107,0.36858326359297916,-0.15054948061428766,-0.222832840866891,-40.76887745305859,25.607053167777977,18.463504370614203,1
1767484522.3506172,2,right_wrist,0.2074,0.6988,0.7637,-62.86,201.53,-139.72,-0.651889911255184,-0.0025341664065397845,-0.4199816373164518,-0.6313862097966069,39.506317780907644,32.9811787982539,100.30542232575544,1
1767484522.407202,1,left_wrist,0.039,-0.4982,0.5846,15.4,195.37,118.86,-0.8651591342509968,0.3717280810994631,-0.24187354597159716,-0.23412623497443064,-41.14031800581868,36.340364810740155,16.241492595737355,1
1767484522.407202,2,right_wrist,-0.0693,0.569,0.6451,-67.34,185.78,-123.34,-0.6483432943492089,0.08660917277455042,-0.4502987233883172,-0.6077671293995547,36.898598207723964,43.564659075978554,101.48694604851886,1
1767484522.479983,1,left_wrist,-0.3572,-0.3894,0.5324,25.06,136.99,93.24,-0.8113867400476558,0.364883842500775,-0.38282611518010157,-0.24890862799995347,-42.344361639977606,53.40654140935664,12.059466210466343,1
1767484522.479983,2,right_wrist,-0.2172,0.3904,0.3865,-50.54,163.1,-107.45,-0.6398711274080193,0.16079393475988094,-0.47654101231011387,-0.5810498381726628,35.15805474894469,52.81690311267372,102.36526941125902,1
1767484522.532038,1,left_wrist,-0.5856,-0.5114,0.4397,7.7,157.08,79.45,-0.7770466604813505,0.3668831153166899,-0.44730108881113095,-0.24802621449894804,-46.489083369122405,61.29937140455153,6.8456535621792876,1
1767484522.532038,2,right_wrist,-0.3157,0.3074,0.2704,-44.8,129.78,-78.47,-0.6270463751924741,0.21797264471314495,-0.4954155221870932,-0.5602358698716337,34.23001388784953,59.94318838139819,103.69754497970683,1
1767484522.582344,1,left_wrist,-0.5451,-0.2957,-0.3304,-99.75,144.48,45.64,-0.7234082653131466,0.40845400665455445,-0.4933060218081607,-0.25786619586962517,-61.90911990929878,67.5744888121548,-4.495455424294369,1
1767484522.582344,2,right_wrist,-0.5183,0.2416,0.2962,-64.4,88.06,-58.52,-0.6147429407312288,0.2656902338824862,-0.4973963402392211,-0.551449632475369,31.36814469644229,64.76561170421692,103.98101639118677,1
1767484522.6562402,1,left_wrist,-0.4895,0.1269,-0.7325,-23.59,8.68,13.16,-0.7127426091762197,0.41521591417136405,-0.49909413386438795,-0.2655160319560182,-64.34275695237423,68.73994888979958,-5.693804056614575,1
1767484522.6562402,2,right_wrist,-0.6978,0.0615,-0.224,12.6,22.82,-7.28,-0.5994991434906649,0.3002243114650923,-0.5315568692894983,-0.5176035495148942,36.77386800586341,71.46508405459478,108.51267406629447,1
1767484522.706362,1,left_wrist,-0.8906,-0.4621,0.2738,56.28,-77.7,-2.1,-0.7417474343895261,0.3893185391878903,-0.47747455783425563,-0.26506577531274145,-53.404900551245746,66.1661501872873,3.0420438323399814,1
1767484522.706362,2,right_wrist,-0.9306,0.1986,0.1171,-17.5,-21.35,-3.92,-0.601182257992338,0.30207588401327007,-0.524175367006595,-0.5220825965269641,34.49162380556393,71.02613547866447,106.92617640445697,1
1767484522.779377,1,left_wrist,-0.8974,-0.405,0.164,13.65,-5.18,-9.8,-0.7436879497988498,0.3944563929136471,-0.4752577226180582,-0.25585637476020634,-55.38901957234794,65.33115316248154,0.7712067173050376,1
1767484522.779377,2,right_wrist,-0.9697,0.1854,0.2264,16.59,-5.88,-0.84,-0.6033256404631702,0.29820206329514176,-0.5286675293926596,-0.5172855539951675,35.41321914500252,71.16080642282336,106.95115789934967,1
1767484522.848497,1,left_wrist,-0.8618,-0.4929,0.242,15.26,-18.34,-11.27,-0.7523557359694717,0.3927285663156104,-0.46646507653067104,-0.2492698379883835,-54.42475488843638,63.85556597622596,1.13014522883291,1
1767484522.848497,2,right_wrist,-0.9267,0.2796,0.3216,6.09,-16.73,7.98,-0.6089753829687464,0.2755407177601553,-0.5261546732379317,-0.5257257418313965,36.465970690676556,68.52042864112032,106.90103431076773,1
1767484522.902053,1,left_wrist,-0.8335,-0.428,0.1908,-10.08,-20.44,-14.77,-0.7556756942601385,0.4003175948361844,-0.45558515638540414,-0.2472695566589574,-55.15255671269344,62.43940091511978,1.1088287133257637,1
1767484522.902053,2,right_wrist,-0.8677,0.2347,0.2089,10.01,-26.25,10.29,-0.6115968226616265,0.2646304265966125,-0.5257639309609826,-0.5286703630145657,37.09643947086561,67.35611896369332,106.88742124856199,1
1767484522.979285,1,left_wrist,-0.71,-0.3553,0.0742,-26.25,-65.52,-37.94,-0.7680709496451807,0.4188521027705562,-0.41572519996421103,-0.2486010668330897,-55.20487823849603,57.87253088157471,3.625852169976937,1
1767484522.979285,2,right_wrist,-0.7784,0.2064,0.082,24.64,-48.02,24.01,-0.617969915049083,0.24267577409188443,-0.5240595180962015,-0.5334634704044044,37.90146845804035,65.04281665400464,106.30262454914279,1
1767484523.0312479,1,left_wrist,-0.6032,-0.4168,0.2669,-11.55,-110.88,-59.85,-0.7929148974405053,0.42242745460934195,-0.36221683611091127,-0.24827399108039208,-52.156662173878914,51.643955465356754,8.124609845850093,1
1767484523.0312479,2,right_wrist,-0.6573,0.2206,0.0508,53.13,-78.47,49.14,-0.6275418708072621,0.19959931674620904,-0.5229670536507651,-0.5411624284205308,40.201531375899506,60.73859745878098,105.75291413674712,1
1767484523.082279,1,left_wrist,-0.4992,-0.5158,0.2606,-63.63,-132.44,-97.65,-0.8105177135028098,0.44718228689115813,-0.2878491495596679,-0.24542189284321664,-53.34213550105733,43.32298986297888,11.126988152528924,1
1767484523.082279,2,right_wrist,-0.5002,0.305,0.0815,82.95,-116.13,86.17,-0.6368019605480987,0.12848205628816933,-0.520213110797176,-0.5543951150657684,44.14160439117418,53.61074848558982,105.24031814278838,1
1767484523.1577091,1,left_wrist,-0.3406,-0.3997,0.4841,-58.59,-165.48,-135.45,-0.8322836078049278,0.463160268310245,-0.19282544075639355,-0.23580693678324555,-53.86035615623161,32.643056380071584,14.715627352507045,1
1767484523.1577091,2,right_wrist,-0.1898,0.5802,0.5539,94.92,-181.09,167.51,-0.6339232859117583,-0.08337938075126944,-0.48004386862969084,-0.6006222029157883,52.41466447282186,30.561502310681746,102.2279074747077,1
1767484523.232199,1,left_wrist,-0.0264,-0.7896,0.7203,-214.76,-177.17,-203.35,-0.8127992360629364,0.5528931187743581,0.046060397034620115,-0.17760923650667523,-67.21680029986518,6.979957649625513,20.010376778458202,1
1767484523.232199,2,right_wrist,-0.1127,0.8384,0.6637,124.11,-178.85,213.57,-0.6043953725960807,-0.2109393083818701,-0.4488699759719541,-0.6234794194155574,58.05277193358672,16.233781056608503,100.8310724242943,1
1767484523.2827709,1,left_wrist,0.2147,-0.5934,0.3445,-82.6,-98.35,-245.63,-0.804996344043998,0.5637134849061771,0.14911446855784063,-0.10942060261871749,-71.20483861042575,-6.702234244346811,20.282612928002205,1
1767484523.2827709,2,right_wrist,0.0132,0.9252,0.7149,265.51,-113.19,246.05,-0.5270137705926615,-0.35755246060146845,-0.459061081502424,-0.619415568881963,71.14895766935328,2.3449630646082196,100.89348022412075,1
1767484523.357441,1,left_wrist,0.6544,-1.1463,0.3065,-125.65,-105.63,-216.3,-0.7715524499680168,0.584046955923226,0.2475728258788936,-0.047996521868814,-78.08438484869598,-19.024134056873567,22.596477778201972,1
1767484523.357441,2,right_wrist,0.5446,0.9667,0.4592,226.24,-52.85,266.42,-0.3492533342071784,-0.55959027716126,-0.3980352761772571,-0.6375333318111673,86.37898650927198,-25.816134564269387,98.28795660855155,1
1767484523.429091,1,left_wrist,0.9614,-0.9877,0.0844,-75.81,-73.71,-218.68,-0.7122669293778232,0.5655532367556665,0.40788637667738276,0.08033717340604152,-87.86770217630331,-42.21525858077774,27.93143520055496,1
1767484523.429091,2,right_wrist,0.9116,0.8613,0.1249,101.01,-40.6,258.44,-0.2549244134955567,-0.6278820593835103,-0.35090331219616966,-0.6462542289208063,92.57087063362812,-39.24481375038083,96.04487890068475,1
1767484523.480097,1,left_wrist,1.0497,-0.6246,-0.0283,-57.89,-39.83,-205.94,-0.6793344439788613,0.5440030461866531,0.46992698303667757,0.14742465729185153,-93.1966444806632,-53.02272061930086,31.13206810268151,1
1767484523.480097,2,right_wrist,1.1507,1.1019,0.1,62.02,-33.81,221.9,-0.1778958977942917,-0.6743112965024854,-0.2992731940436425,-0.6512241398197831,98.00191424894975,-50.513698822469465,92.46188284810746,1
1767484523.530495,1,left_wrist,1.2244,-0.6954,-0.0112,-36.26,-34.02,-190.75,-0.6487315786888043,0.5130427617328441,0.5229569282561778,0.20603522668303767,-99.25999364981054,-62.86408908087973,36.184206628329804,1
1767484523.530495,2,right_wrist,1.1341,0.9555,-0.0102,31.01,-21.21,152.95,-0.1287507525667878,-0.6989173947771807,-0.2601742738172068,-0.6536413896281763,102.18991004008154,-57.85318085658829,88.90971639966911,1
1767484523.60268,1,left_wrist,1.2078,-0.6773,-0.0107,-53.27,-28.77,-154.07,-0.6174515116321756,0.493792913000537,0.5570621839310597,0.2541729983447175,-108.34502720463192,-69.87353675977734,43.36458838640804,1
1767484523.60268,2,right_wrist,0.9496,0.5466,-0.1337,-16.8,-18.97,84.56,-0.08659575438922551,-0.7270460053653873,-0.2059049393099084,-0.649236811473115,109.85103594603707,-65.28367413075917,80.05806903639706,1
1767484523.685668,1,left_wrist,1.1146,-0.4641,-0.0683,-73.92,-11.69,-136.57,-0.5497193001832774,0.46755735564350737,0.5956138470244935,0.35276473097851163,-147.40310485246548,-79.96988414995285,76.18034763070816,1
1767484523.685668,2,right_wrist,0.934,0.5422,-0.0927,-9.17,-28.98,74.9,-0.074038811300188,-0.7393696061014278,-0.1805028900574239,-0.644414111170443,114.85727071088178,-67.84878670337875,73.94171874455286,1
1767484523.749098,1,left_wrist,1.0765,-0.3065,-0.0737,-30.66,2.03,-97.3,-0.5313414157394529,0.45028130807696315,0.60722301667742,0.3823653377774541,-174.34912426447949,-81.74122686602976,101.99216565342644,1
1767484523.749098,2,right_wrist,0.9467,0.4924,-0.0708,-3.08,-16.03,58.87,-0.04904438963143806,-0.7550263620487717,-0.13773708948402216,-0.6391856808764939,125.44688739828159,-72.11850377866081,61.83303677036792,1
1767484523.801177,1,left_wrist,1.0682,-0.3279,-0.1122,2.03,-1.54,-53.62,-0.5247765472939677,0.43801350509227055,0.6161674387275263,0.3912690023742816,171.0776671346064,-81.67497975037828,116.90010541132459,1
1767484523.801177,2,right_wrist,0.9472,0.4587,-0.0766,-1.82,-11.13,44.45,-0.040909307657201674,-0.7589597947363917,-0.12445461524165317,-0.6378224731582877,129.6475730006704,-73.33153746241179,57.19830056247714,1
1767484523.8521652,1,left_wrist,0.9955,-0.2582,-0.1357,13.51,-1.26,-32.76,-0.5236895058256156,0.4288660065514014,0.6230562756595183,0.39194913863161673,164.7868567708631,-81.40268592586955,124.0246525680928,1
1767484523.8521652,2,right_wrist,0.9077,0.4802,-0.0961,-7.84,-10.57,26.18,-0.040157451915312135,-0.7618185922462635,-0.11595425572982444,-0.6360616496391944,131.95712971873004,-73.70184434766553,54.25025228573146,1
1767484523.933515,1,left_wrist,0.9819,-0.2313,-0.1747,-4.2,-2.94,-1.4,-0.5226361146331276,0.42362054541813543,0.628563381310214,0.3902629893503869,162.21990703948222,-80.99207283361717,127.26043440798759,1
1767484523.933515,2,right_wrist,0.8926,0.4441,-0.1147,-6.65,-5.88,13.23,-0.042473107598693015,-0.7627850859972379,-0.1122775726839897,-0.6354122239800614,132.31535819963122,-73.70471409061352,53.40083549785652,1
1767484524.006645,1,left_wrist,0.976,-0.1298,-0.1664,8.47,-2.24,11.69,-0.5274549566059366,0.4281433573437462,0.6268124162497855,0.381563532258208,170.0684074478229,-81.09946277504797,119.83304942724828,1
1767484524.006645,2,right_wrist,0.9062,0.3782,-0.1288,9.66,-2.8,-8.96,-0.04890175499816491,-0.7620038638326195,-0.12246533035848041,-0.63400392169327,129.77376241297262,-72.60172607014455,56.25913737659275,1
1767484524.084193,1,left_wrist,1.0024,-0.1074,-0.163,-0.35,-7.63,20.37,-0.5339298288173434,0.44730210844052126,0.6189013918299706,0.3630438387780071,-170.34557501118007,-80.29215070894648,100.13741851132502,1
1767484524.084193,2,right_wrist,0.9174,0.3792,-0.142,6.93,-0.49,-16.45,-0.05468441787211925,-0.7600291062737258,-0.13250069496662747,-0.6338840098094524,127.17151546205807,-71.63145323906602,59.219013668707866,1
1767484524.153319,1,left_wrist,0.9862,-0.142,-0.1698,49.0,3.99,50.47,-0.5542954743291701,0.4512703438634832,0.6136850528853811,0.33541356524833776,-151.1021438953721,-79.43579675251996,83.17830216080571,1
1767484524.153319,2,right_wrist,0.9365,0.4875,-0.0961,-52.5,-7.28,-62.93,-0.107806125480524,-0.7521534445989907,-0.15182374211287444,-0.6321333612597851,116.63114369794025,-66.66253047845564,67.01141670585882,1
1767484524.226837,1,left_wrist,1.0375,-0.6451,0.0937,138.53,68.53,150.92,-0.6390962463252098,0.45001831383731467,0.5743297391368829,0.24327937826089358,-102.34716594328484,-72.37607272354722,42.86370998039357,1
1767484524.226837,2,right_wrist,0.9072,0.6812,0.001,-101.15,5.25,-105.56,-0.1724440858410076,-0.7354412428507904,-0.1603599687092775,-0.6353533631044251,106.23312294546362,-61.54888151231799,72.75673159055779,1
1767484524.285123,1,left_wrist,1.0472,-0.791,0.2513,143.99,96.18,206.92,-0.710806470993067,0.4488994173907373,0.5156409490412027,0.1654021932518632,-82.06097064145028,-61.82866314146728,28.850326792941004,1
1767484524.285123,2,right_wrist,0.8745,0.8491,0.1108,-130.62,24.78,-150.64,-0.2562970708996797,-0.7032311327647188,-0.17533305583614406,-0.6395593052171585,94.94096489296493,-54.06090338041894,78.15805213685509,1
1767484524.355647,1,left_wrist,1.0804,-1.0024,0.5134,144.69,110.53,228.06,-0.7762676421557492,0.44360132834845667,0.4404248050162941,0.08156224834933044,-70.49627060584059,-49.12484341265971,23.80310947452986,1
1767484524.355647,2,right_wrist,0.8657,1.2415,0.4485,-203.77,86.66,-222.04,-0.4606378319309199,-0.5662393128791662,-0.2153960890483627,-0.648683553951217,71.6347025463396,-32.4240451783329,85.54079786221975,1
1767484524.427764,1,left_wrist,0.856,-1.0712,0.7193,90.51,172.34,238.91,-0.8660962256392397,0.44044935705634597,0.228664500208414,-0.0599519653268414,-57.29839890775389,-20.076793911886277,18.967365791546193,1
1767484524.427764,2,right_wrist,0.7969,0.9736,0.6847,-224.91,127.26,-224.63,-0.5623318001342367,-0.4561878465434103,-0.22840241944695824,-0.6507748689175471,59.38851871895886,-19.68661345426844,87.03827165201587,1
1767484524.481009,1,left_wrist,0.6041,-0.8608,0.7896,137.97,195.02,231.49,-0.8982070413478361,0.4087982981961356,0.10710650740675008,-0.12098040476142392,-49.78539351494017,-5.3646736742271015,17.832914526827288,2
1767484524.481009,2,right_wrist,0.6432,1.2639,0.7837,-181.72,170.31,-192.85,-0.6288923090221847,-0.34244517831810467,-0.25074400887202125,-0.6514239829129826,49.81492784408369,-7.514208198832063,88.52333736477426,2
1767484524.550026,1,left_wrist,0.4085,-1.0521,0.8442,53.06,204.54,183.12,-0.9012661615788308,0.4043544877511791,-0.003934941373763923,-0.15556757523606093,-47.23545977290872,7.637305905824805,16.243174780666358,2
1767484524.550026,2,right_wrist,0.3601,0.771,0.8028,-67.83,203.91,-125.02,-0.6769503866379194,-0.14349273483201685,-0.332440100116667,-0.6408054220398108,40.057240962946075,15.437619123044758,92.51489703769525,2
1767484524.611616,1,left_wrist,0.4085,-1.0521,0.8442,53.06,204.54,183.12,-0.8920206500298715,0.3945813911125116,-0.11495654370641128,-0.18812144685568602,-44.935763875865256,20.704337915376833,15.177196996447169,2
1767484524.611616,2,right_wrist,0.1698,0.7608,0.812,-59.08,192.78,-110.74,-0.6795716928651276,-0.059560016844552116,-0.37558622901281646,-0.6273514989428443,37.843560275795184,25.832734785663494,94.41387652639283,2
1767484524.679113,1,left_wrist,-0.0727,-0.2869,0.326,-113.4,191.8,95.06,-0.8112651669011532,0.465976712948419,-0.2873554393461846,-0.20528366579148968,-57.879600395412886,41.11387650336075,4.970502203200359,2
1767484524.679113,2,right_wrist,-0.0864,0.6544,0.8555,-80.15,192.99,-108.5,-0.676071350434015,0.03153382297459747,-0.40905297559128456,-0.6120529472936551,34.6270720441724,36.27764839456795,95.97139477163523,2
1767484524.731231,1,left_wrist,-0.2547,-0.327,0.1318,31.15,138.6,83.93,-0.7898239247623036,0.4591982815197962,-0.35390071204984686,-0.20017340515899837,-60.68270546766894,47.97707760168125,-0.7547222431769234,2
1767484524.731231,2,right_wrist,-0.2064,0.6017,0.5797,-17.08,207.83,-96.74,-0.6605381672383199,0.10456408457182642,-0.46172926834353606,-0.5827192845565009,35.939724658809915,47.04109116616403,98.90683435868812,2
1767484524.78411,1,left_wrist,-0.2547,-0.327,0.1318,31.15,138.6,83.93,-0.766023499175613,0.4492627974917206,-0.417184013211384,-0.19320568475463287,-64.78108898009785,54.365074481440324,-7.778155486208602,2
1767484524.78411,2,right_wrist,-0.2855,0.3719,0.4207,5.95,173.04,-85.33,-0.6451573967567459,0.15992835067383923,-0.5064625766193176,-0.5492636111603664,38.76668373851608,56.01478078164155,102.01796590775902,2
1767484524.834168,1,left_wrist,-0.6817,-0.4387,0.1771,53.06,91.35,60.97,-0.7513803273240652,0.4294545762103778,-0.4654153231868778,-0.18543178698701926,-67.28410489745325,59.168347724890054,-13.666200256860696,2
1767484524.834168,2,right_wrist,-0.4124,0.2499,0.366,-22.05,135.24,-72.45,-0.6304384092985068,0.21190965252355617,-0.5309954357874427,-0.5250576715194417,39.985837947665,63.13191575641441,104.77873320330946,2
1767484524.900222,1,left_wrist,-0.6588,-0.2347,-0.3587,-35.91,70.49,31.5,-0.724612744505839,0.4417235494673878,-0.4938198597563008,-0.18962758885751677,-74.91770133294213,62.02865433128158,-20.13433264483341,2
1767484524.900222,2,right_wrist,-0.6149,-0.0556,-0.2948,54.32,49.14,-8.12,-0.6101824317618721,0.24353832487555313,-0.5881327975580609,-0.4716633298471558,53.648759087023215,71.34697068390491,115.30958717924868,2
1767484524.954294,1,left_wrist,-0.733,-0.3099,-0.4314,18.55,-17.15,0.14,-0.7291577998644996,0.4361891907290036,-0.4924454821419324,-0.18858775120865903,-73.37502402143151,61.96501968807304,-19.200973931313406,2
1767484524.954294,2,right_wrist,-0.855,0.1801,-0.0317,20.79,-12.6,7.49,-0.6125585929455957,0.2352621417930661,-0.5921509173018767,-0.46774029758616814,54.717760113967834,71.0033190878106,115.24874612177162,2
1767484525.011123,1,left_wrist,-0.9658,-0.5031,0.2708,21.91,-46.48,-5.11,-0.7457912310304565,0.4247238797162056,-0.476184791066648,-0.19145002082450413,-67.62686425781337,60.7968993005094,-14.108374695377936,2
1767484525.011123,2,right_wrist,-0.9516,0.1967,0.1488,0.77,-14.28,4.69,-0.615837413777193,0.23445073789120668,-0.5893592810722391,-0.4673679162164436,53.30103063970004,70.91744487036487,113.72783299263018,2
1767484525.0876749,1,left_wrist,-0.8491,-0.4177,0.1654,0.98,-6.86,-6.3,-0.7428169094572541,0.42792022106416644,-0.47506906857707076,-0.1985364034883356,-67.80758752074827,61.12723573568111,-13.366787923303663,2
1767484525.0876749,2,right_wrist,-0.9692,0.2435,0.1903,14.77,-11.69,6.37,-0.6199628344228668,0.23014524257411503,-0.5897133502843063,-0.46359186333597985,52.783044437110284,70.83684253251826,112.45071781752974,2
1767484525.152572,1,left_wrist,-0.8506,-0.4699,0.1484,11.27,-17.78,-15.05,-0.7485358352414225,0.4290051131769676,-0.4676049999031345,-0.19233897237178152,-67.17513165066886,59.89035706230272,-13.04882864184961,2
1767484525.152572,2,right_wrist,-0.9233,0.2606,0.1952,3.36,-19.67,11.41,-0.6249149824076274,0.21741674409511294,-0.582902157717059,-0.47163152850329243,50.91148053704462,69.00469128479097,110.32018053995918,2
1767484525.212966,1,left_wrist,-0.7666,-0.425,0.021,-19.88,-23.1,-25.9,-0.7493749126018465,0.4408554480815722,-0.4554458241358371,-0.19144925055220013,-68.00647954615032,58.364513799249366,-12.624399871223487,2
1767484525.212966,2,right_wrist,-0.8652,0.3026,0.1005,25.06,-26.67,17.85,-0.6280208244687471,0.20052332852921653,-0.5853562701752113,-0.47195156077263306,52.07104158405487,67.59404924403702,110.06302107339322,2
1767484525.2825,1,left_wrist,-0.6403,-0.4168,0.1786,-9.52,-104.93,-57.33,-0.7821548877643288,0.455704669907084,-0.37686268020674346,-0.1963199063738457,-61.9796698121755,50.21559930921593,-3.2583651628644064,2
1767484525.2825,2,right_wrist,-0.713,0.2059,-0.0664,75.04,-53.48,43.26,-0.6369772688248435,0.1591454102510879,-0.5920937678789088,-0.46728756396400367,54.70563672547619,64.55976857368292,108.71969939975564,2
1767484525.35067,1,left_wrist,-0.5754,-0.5568,0.3987,-18.55,-133.42,-73.22,-0.806848983762608,0.460814745833204,-0.31117814387296294,-0.1995310757744358,-58.36270361926302,43.3175516420655,2.7724575721906968,2
1767484525.35067,2,right_wrist,-0.5988,0.3533,0.2264,94.29,-106.61,87.36,-0.6575601064472718,0.040808057045891785,-0.5650068322030763,-0.49670583694278914,54.79098370419686,51.590559885647465,102.25733583578076,2
1767484525.4055429,1,left_wrist,-0.4602,-0.5012,0.3362,-30.59,-118.44,-95.13,-0.8248919945181246,0.4726805795144851,-0.24337206464054226,-0.1920841099163608,-57.65174076170233,35.668890395371065,6.135027866695708,2
1767484525.4055429,2,right_wrist,-0.5031,0.4577,0.3187,31.43,-138.81,108.29,-0.6662025773095811,-0.02845595633356705,-0.530586702792081,-0.5232992789555911,53.72710398850143,42.62324072033734,98.65491788527429,2
1767484525.47839,1,left_wrist,-0.183,-0.5988,0.49,-6.37,-122.71,-166.39,-0.8528673271292012,0.49621608760648495,-0.0778414561903022,-0.14257497821910636,-58.990737107304724,15.918686368030833,9.936700094731465,2
1767484525.47839,2,right_wrist,-0.3723,0.6251,0.4782,83.3,-135.38,131.74,-0.6631546930908118,-0.11690672587506788,-0.5042942647662899,-0.5405977848647089,56.4701455170554,32.85065787613184,96.36388163211103,2
1767484525.5287879,1,left_wrist,-0.183,-0.5988,0.49,-6.37,-122.71,-166.39,-0.8642988971276466,0.49144971177775026,0.00541555497876088,-0.10693581711368726,-58.715939754784515,5.49424879012264,11.01404872561544,2
1767484525.5287879,2,right_wrist,-0.2928,0.792,0.5797,47.04,-135.17,150.71,-0.6515763269647376,-0.19769813959725047,-0.46386051678336976,-0.5667425841670914,57.89655470734423,22.3580376718513,94.51035015496274,2
1767484525.583162,1,left_wrist,0.1654,-0.9692,0.5998,-92.05,-122.64,-191.94,-0.8484513821520245,0.5163451255844982,0.10084743901229938,-0.05785980862488852,-63.30570644776863,-6.39470184319007,11.747167411356804,2
1767484525.583162,2,right_wrist,-0.1669,0.792,0.591,169.96,-104.23,174.65,-0.6101839893734515,-0.3073686553116171,-0.45484074465159785,-0.5712441735799216,66.05779310727256,11.765580311601651,93.88907290017495,2
1767484525.6542678,1,left_wrist,0.2767,-0.7325,0.2889,-157.92,-106.05,-197.61,-0.8061926702144626,0.5599765373813043,0.1909954244904868,0.000635530186742106,-71.6216836833123,-17.979095976932406,12.932912719838102,2
1767484525.6542678,2,right_wrist,0.1986,0.8198,0.5266,185.92,-48.23,200.9,-0.496477805998306,-0.47678028575428455,-0.40241274330543775,-0.6035348633613168,76.997214693859,-10.132728033654619,93.05018498002337,2
1767484525.7315571,1,left_wrist,0.7886,-0.8603,0.1215,-78.89,-46.76,-203.84,-0.7146290578265857,0.5911686686767537,0.3442404934233595,0.1460253319547092,-85.08327895118272,-41.65622542160922,15.391350104808621,2
1767484525.7315571,2,right_wrist,0.4094,1.2293,0.2811,53.34,-72.1,184.52,-0.44495885114441086,-0.540006143158815,-0.3580231088764066,-0.6182430263654094,80.1426179347599,-20.432213512044957,91.27247849136535,2
1767484525.783703,1,left_wrist,0.7886,-0.8603,0.1215,-78.89,-46.76,-203.84,-0.6730735676293704,0.5827797700214689,0.4041225224736953,0.20982063540532128,-90.54921269078817,-52.05177951745469,17.857976141604503,2
1767484525.783703,2,right_wrist,0.5046,0.8911,0.2318,191.94,-22.96,197.26,-0.3457920081614395,-0.610510613132755,-0.3528133569792951,-0.6190536434598757,89.62656280574086,-30.78897421906452,91.02779792225085,2
1767484525.835026,1,left_wrist,1.0448,-0.6866,-0.0371,-68.74,-27.37,-180.88,-0.6297989905614234,0.5702107165655094,0.45322742507548913,0.2698108066054848,-97.35150624481705,-61.471826331666044,21.755461845827387,2
1767484525.835026,2,right_wrist,0.7403,1.0765,0.0415,84.7,-33.18,184.03,-0.2752631569812374,-0.6583053568266374,-0.3169830833092096,-0.6248087519216281,95.09941158405768,-40.40018562913331,88.62517354938778,2
1767484525.911972,1,left_wrist,1.1639,-0.7061,-0.0351,-17.71,-7.07,-165.48,-0.6056521454286784,0.5420097599760633,0.4902552659615459,0.3147390554495947,-101.09805208420818,-69.23324866311339,25.063510706173435,2
1767484525.911972,2,right_wrist,0.9448,0.8184,-0.0625,62.23,-11.06,146.86,-0.14600121539529495,-0.7148498615554978,-0.2544628366585668,-0.6347613609041259,105.90404506670481,-56.43036198036033,83.285365913831,2
1767484525.982273,1,left_wrist,1.1551,-0.6349,-0.0503,-23.24,-24.85,-114.73,-0.5542779781344287,0.5128460550401787,0.5433944686325854,0.3667250990107521,-124.44570556300259,-78.10590048886858,47.034916277016556,2
1767484525.982273,2,right_wrist,0.9467,0.8237,-0.0849,12.53,-10.99,111.65,-0.11533837899433301,-0.7282515533690125,-0.22394837819272947,-0.6373333956819038,109.54840337135211,-61.237093441421806,79.54634090335162,2
1767484526.049063,1,left_wrist,1.0033,-0.3289,-0.1181,-41.3,-4.9,-99.54,-0.529598814452875,0.5018964843853079,0.5574166294787507,0.39612083493843964,-144.29567650142027,-81.12886474870767,65.17333052442865,2
1767484526.049063,2,right_wrist,0.8984,0.5163,-0.1571,22.61,-11.34,93.94,-0.05573375452143854,-0.7505126283955624,-0.17169874071274663,-0.6357232775849767,121.56283588572256,-69.2439614832908,68.00100510537266,2
1767484526.104757,1,left_wrist,1.0658,-0.3245,-0.0991,-18.97,-3.85,-78.4,-0.5133099934406429,0.4896098475068223,0.5694541967388898,0.41535161691605255,-166.98020337029254,-82.45129320591232,87.20324855548996,2
1767484526.104757,2,right_wrist,0.9618,0.548,-0.1396,7.07,-13.37,76.58,-0.03664626981054425,-0.7583902904644666,-0.15075831615421162,-0.6330664644004937,128.46027530544336,-71.65406869895155,60.91628649654652,2
1767484526.1820412,1,left_wrist,0.9999,-0.1366,-0.1215,-25.83,-2.03,-43.05,-0.48262407393198437,0.48551365928808615,0.5775885637918823,0.4446818423129254,162.00357767189683,-81.61655798630296,115.47113530139204,2
1767484526.1820412,2,right_wrist,0.9579,0.4685,-0.1196,13.23,-4.41,62.09,-0.018629198747295485,-0.7621358612127583,-0.13608724404289183,-0.6326785471440701,134.73409480712021,-73.59790012654055,54.89300615269671,2
1767484526.253678,1,left_wrist,0.9999,-0.1366,-0.1215,-25.83,-2.03,-43.05,-0.47095869171053545,0.4826774329721278,0.5797414024602517,0.4572967446583874,151.31669468750763,-80.93933097760404,125.05059234864989,2
1767484526.253678,2,right_wrist,0.9233,0.3758,-0.1108,2.38,-3.71,34.72,-0.0020957922870565356,-0.7657382610851927,-0.11581848240379938,-0.6326346515158615,143.1121486281385,-75.55318812855458,46.18654723296951,2
1767484526.329099,1,left_wrist,0.9975,-0.0893,-0.1283,12.88,-1.26,-6.65,-0.4753051095672691,0.47744323473475564,0.5859827651390886,0.45028569751348646,152.62811480605123,-80.75590393354005,125.05497112962223,2
1767484526.329099,2,right_wrist,0.9321,0.3479,-0.1293,-1.05,-1.19,25.69,0.0012291500580593922,-0.7660223905809066,-0.10950323915417506,-0.6334171034425825,145.29205021599668,-76.0942955821286,43.75629694669367,2
1767484526.388177,1,left_wrist,0.9975,-0.0893,-0.1283,12.88,-1.26,-6.65,-0.47913227115107326,0.47562382019801913,0.587907762722245,0.4456217128156809,154.61355778685643,-80.84724556300611,123.77405640817139,2
1767484526.388177,2,right_wrist,0.9633,0.2874,-0.1332,-2.31,-7.14,11.62,0.0001468738305549963,-0.7670533270257264,-0.10739579661717896,-0.6325308805076663,145.83007819046026,-76.02504453121658,42.95775621508306,2
1767484526.449038,1,left_wrist,0.9804,-0.0356,-0.1259,3.78,2.31,5.67,-0.48450058108083777,0.4779868873581494,0.5845973600544276,0.44162614173460363,159.26250414947015,-81.36258865987406,119.33480191176652,2
1767484526.449038,2,right_wrist,0.9599,0.2255,-0.1371,1.47,-0.91,-2.1,-0.00519980971791399,-0.7648013017459151,-0.1105514093248806,-0.6346891496811128,142.64788369825627,-75.85314832863388,45.9621622324805,2
1767484526.502837,1,left_wrist,0.9697,-0.0039,-0.121,8.05,0.98,8.12,-0.49105755537418666,0.47992912693535267,0.5816412105566474,0.4361467787467831,165.29909996732994,-81.84086547876345,113.70679247273931,2
1767484526.502837,2,right_wrist,0.9716,0.1923,-0.1396,-0.21,-3.29,-5.25,-0.008757129375943492,-0.7633092408780575,-0.11346743431178193,-0.6359303867766958,140.46266438393067,-75.65831740067016,48.09669420719702,2
1767484526.587918,1,left_wrist,0.9921,0.0229,-0.1137,1.26,1.05,7.98,-0.5014510946350502,0.4807777696043187,0.57455606176929,0.43276421736064363,172.96430324997783,-82.90854593151336,106.3724455898628,2
1767484526.587918,2,right_wrist,0.9692,0.1757,-0.144,-7.63,-4.48,-8.68,-0.014977722312608521,-0.7618163842343029,-0.11471720768721236,-0.6373785584775725,137.89226860751316,-75.39665498819991,50.26242297996274,2
1767484526.665299,1,left_wrist,0.9921,0.0229,-0.1137,1.26,1.05,7.98,-0.5038826948757632,0.479674317364527,0.5724928485462282,0.4338971277031447,173.38864290522082,-83.31299999783747,105.96563530956719,2
1767484526.665299,2,right_wrist,0.9755,0.185,-0.1469,-3.36,0.42,-4.27,-0.021425796065870722,-0.7567434402580677,-0.11690753176045134,-0.642816404509878,133.37663485985348,-75.43991081478592,54.42901436420676,2
1767484526.7272499,1,left_wrist,0.9814,0.0078,-0.1225,-0.91,3.99,1.82,-0.5081408171797746,0.48114147699186344,0.5683659232350498,0.4327308243459534,178.46458745535693,-83.73580988785965,100.87796632561647,2
1767484526.7272499,2,right_wrist,0.9838,0.1713,-0.1405,-0.98,0.63,-4.34,-0.0219441096932765,-0.7543134822703961,-0.11684324832679228,-0.64566034556516,131.934439951333,-75.68072084105263,55.8214405576554,2
1767484526.781999,1,left_wrist,0.9965,-0.0288,-0.1118,-1.4,2.8,-0.07,-0.5107057935469772,0.48359993748483254,0.5655390040122384,0.43066962725860247,-176.3595189226394,-83.82164959854985,95.66374130435433,2
1767484526.781999,2,right_wrist,0.9697,0.1957,-0.1337,-2.94,0.35,-3.01,-0.02477583944752479,-0.7517139702173369,-0.11745528667163038,-0.6484724515294726,129.76175643324333,-75.72223111099113,57.812101513480165,2
1767484526.8364952,1,left_wrist,0.9965,-0.0288,-0.1118,-1.4,2.8,-0.07,-0.5128892897129683,0.486213954336226,0.5630187702104806,0.42842786031855495,-171.30990843669906,-83.7983230150741,90.57341801748787,2
1767484526.8364952,2,right_wrist,0.9706,0.1986,-0.123,-0.7,3.15,-3.64,-0.02662957563342348,-0.7482962625924285,-0.11868743094907445,-0.652117215557522,127.25984900787174,-75.84379194918745,60.26214187413611,2
1767484526.9005802,1,left_wrist,0.9911,-0.0195,-0.1039,-0.21,0.7,2.52,-0.5165861357169546,0.4872801394480039,0.559480632534946,0.42740876441979386,-165.9850139937193,-84.02944395683332,85.25395319582763,2
1767484526.9005802,2,right_wrist,0.9677,0.225,-0.1215,2.38,1.12,-3.78,-0.0321081182960657,-0.7427733682638319,-0.12474117146824784,-0.6570360966326105,122.44804157749721,-75.47708388763452,65.12406865391334,2
1767484526.9520729,1,left_wrist,0.9906,-0.042,-0.0927,1.05,-0.49,2.03,-0.520144121433908,0.4888857764853049,0.5565284751904457,0.425108041314565,-160.03231279811914,-84.04770350136975,79.37605931893664,2
1767484526.9520729,2,right_wrist,0.9692,0.2313,-0.1196,2.1,2.94,-6.02,-0.035550661869927815,-0.7395217439940903,-0.12916751393491324,-0.6596661988797237,119.69199658810562,-75.1256320477373,67.9636838275822,2
1767484527.03189,1,left_wrist,0.9862,-0.0161,-0.0883,-0.77,-0.35,1.47,-0.5183927119699246,0.4846026184330324,0.5573933162933067,0.4309779453009924,-166.4284217126743,-84.62525381964272,85.62750194230995,2
1767484527.03189,2,right_wrist,0.9701,0.2401,-0.1147,-1.82,2.94,-8.26,-0.04088173365257247,-0.7360297744040304,-0.13314699992529913,-0.6624656454905452,116.68899005588354,-74.64470674530999,70.8602092777449,2
1767484527.10351,1,left_wrist,0.9877,-0.0254,-0.0849,1.47,1.54,3.15,-0.5224967173819686,0.4844038227194847,0.5540693754470151,0.4305313508347239,-160.73301112672928,-84.93872783476886,80.0129609717878,2
1767484527.10351,2,right_wrist,0.9711,0.2118,-0.1054,-5.39,-0.42,-7.0,-0.041038830592635994,-0.7340308081585167,-0.129082036338781,-0.6654715733616104,115.54934147757538,-75.09608827123058,71.65016747274616,2
1767484527.182034,1,left_wrist,0.995,-0.0303,-0.0903,3.71,2.38,2.17,-0.522841368916069,0.4859485098357128,0.5554390534075057,0.4265892716515444,-159.01470330086923,-84.5105751688689,78.53290477462707,2
1767484527.182034,2,right_wrist,0.9682,0.2303,-0.1127,-5.53,1.96,-5.74,-0.04169811117335649,-0.7351288662241471,-0.12740353534923463,-0.6645413130491519,116.16095673397221,-75.11024253721054,70.84703081058694,2
1767484527.254511,1,left_wrist,0.9975,-0.0415,-0.0781,-2.66,2.1,3.64,-0.5262570053537163,0.48663967479268105,0.5511316476401766,0.42718766157654475,-153.00855402908672,-84.77622851782503,72.4001832808114,2
1767484527.254511,2,right_wrist,0.9672,0.2601,-0.0971,-4.69,-0.49,-3.99,-0.050759807899503094,-0.7308601047492738,-0.12832146282593762,-0.6684314111156787,112.39144402411529,-74.58644597732876,73.95378511194124,2
1767484527.3058162,1,left_wrist,0.9902,-0.0425,-0.083,-1.96,0.49,-0.84,-0.5248632879728092,0.4892512949130311,0.5515922488137704,0.4253206912587979,-153.04118445643883,-84.38302214072877,72.33777731872215,2
1767484527.3058162,2,right_wrist,0.9687,0.2518,-0.0952,-1.33,-0.63,-1.75,-0.05357836223566963,-0.7285567697227153,-0.1295983257851208,-0.6704764472709235,110.70264934475355,-74.38092348738643,75.51785184713724,2
1767484527.382257,1,left_wrist,0.9911,-0.0444,-0.0908,-2.1,-1.05,-1.75,-0.523472678349629,0.48990858003433135,0.5516581227018832,0.4261915694699331,-154.2961077965621,-84.35224650057839,73.42863537617735,2
1767484527.382257,2,right_wrist,0.9721,0.2542,-0.0976,-2.38,-0.84,-1.96,-0.054716363930683035,-0.7309737115197135,-0.12989761092325472,-0.667690170110157,111.99793603270051,-74.13592041922776,74.15568925057822,2
1767484527.451591,1,left_wrist,0.9984,-0.0561,-0.0849,-0.84,-1.4,-0.42,-0.525815275869183,0.4919327808960995,0.5491390445376434,0.42422487492688254,-149.44777064881262,-84.19486125279853,68.56746053964238,2
1767484527.451591,2,right_wrist,0.9745,0.2435,-0.1054,0.07,-3.29,-0.21,-0.048853348894799926,-0.7327686529907792,-0.1257634888130607,-0.6669685122833079,113.79272561905016,-74.83561870365492,72.49731210477454,2
1767484527.510726,1,left_wrist,0.9902,-0.0551,-0.0849,3.64,-0.63,-0.14,-0.529466241945805,0.49241472798852576,0.5471181463687858,0.42172854801845744,-144.3563238817246,-84.09390365706076,63.68619409642462,2
1767484527.510726,2,right_wrist,0.9711,0.2616,-0.0996,1.68,-3.22,-0.07,-0.05191435506227621,-0.7321919306946303,-0.1289765627741861,-0.666757019174972,113.0399212147554,-74.36470978353613,73.26607207006766,2
1767484527.581528,1,left_wrist,0.9882,-0.063,-0.0771,-0.84,-2.73,-1.26,-0.5282569680913625,0.49166297451575763,0.5483629817610698,0.4225045980665149,-146.5453087708239,-84.16166216449552,65.87554382985398,2
1767484527.581528,2,right_wrist,0.9701,0.2723,-0.0898,1.4,-3.43,0.21,-0.05423186372760625,-0.7311226350510595,-0.13114248657305588,-0.667323194327952,112.13962837478697,-74.06337304415304,74.15624539612429,2
1767484527.6515388,1,left_wrist,0.9882,-0.063,-0.0771,-0.84,-2.73,-1.26,-0.5301818613525356,0.49222175631974024,0.5463424066166698,0.42206031705264174,-143.31185874492675,-84.16354489741795,62.629987725375315,2
1767484527.6515388,2,right_wrist,0.9667,0.2635,-0.081,-0.7,-4.41,-1.82,-0.05741213845134945,-0.7279964969012545,-0.1320960960961347,-0.6702802162186391,109.99588679046765,-73.89510528808329,76.11880194442047,2
1767484527.7039192,1,left_wrist,0.9882,-0.0522,-0.0825,5.88,0.77,3.78,-0.529581913167406,0.4895982422895067,0.5490810827850126,0.4223109315665575,-146.3724537901086,-84.32117051234742,65.94963390268951,2
1767484527.7039192,2,right_wrist,0.9521,0.2752,-0.0781,-3.22,-3.22,-2.94,-0.06179538840857882,-0.7264279813760375,-0.13357036025732993,-0.6712992452744866,108.69774656623136,-73.49461692216371,77.18150349578487,2
1767484527.784509,1,left_wrist,0.9731,-0.0752,-0.0834,16.03,6.58,12.53,-0.5382545133845609,0.48799753374056537,0.548523069199807,0.4138392543487133,-137.57029314760427,-83.93089886271942,58.19672288735661,2
1767484527.784509,2,right_wrist,0.9453,0.3006,-0.0854,-24.43,-1.54,-8.33,-0.07570608520768622,-0.7245683863576392,-0.132136737668532,-0.6721674826350431,106.46399183232401,-72.56462317537896,78.16319760627036,2
1767484527.859183,1,left_wrist,0.9731,-0.0752,-0.0834,16.03,6.58,12.53,-0.5447165294509821,0.488638662185923,0.5476734916134127,0.40567216683425744,-131.34746244381805,-83.26921401424825,52.73490286877716,2
1767484527.859183,2,right_wrist,0.934,0.3367,-0.0659,-45.92,-3.57,-26.53,-0.11118772452827365,-0.7179554198052776,-0.1272807248989608,-0.675260632760157,100.81233896694233,-70.27272262064518,80.51124612077605,2
1767484527.9346151,1,left_wrist,0.9594,-0.3821,-0.0034,99.19,30.52,85.12,-0.6060299260210206,0.47688927823752836,0.5333972921141469,0.3475509658083851,-96.57057274938889,-77.95832151769312,24.79482835773214,2
1767484527.9346151,2,right_wrist,0.9023,0.3514,-0.0488,-93.38,-6.44,-49.77,-0.15867872037044659,-0.710010914864597,-0.11760185306762197,-0.675925564415045,95.33551324997899,-67.29541924780692,81.26917622679603,2
1767484528.0010822,1,left_wrist,0.9931,-0.51,0.1005,140.07,48.09,130.9,-0.6661964055584988,0.46242015466709585,0.5097937520453876,0.287158980625857,-80.76789450210293,-70.87774306496456,15.740812983750835,2
1767484528.0010822,2,right_wrist,0.8228,0.7525,0.1152,-114.66,7.21,-97.37,-0.2797660933224851,-0.67700992343119,-0.11011825486336282,-0.6717607212010958,83.60236131017916,-57.99076162472081,82.05965273683293,2
1767484528.052098,1,left_wrist,0.9994,-0.7676,0.2211,155.96,50.96,162.54,-0.7276961248725654,0.44581722144886043,0.47618832539908806,0.21201422984951152,-71.56395213788535,-61.89429809140685,14.257442636325964,2
1767484528.052098,2,right_wrist,0.8301,1.0326,0.2782,-152.74,28.56,-143.15,-0.36696225120737996,-0.6383414344893109,-0.11320015768544985,-0.6671166640872718,75.57018815978627,-50.22977324990772,82.42924134953077,2
1767484528.1268082,1,left_wrist,0.9043,-0.9755,0.6637,165.13,120.75,208.81,-0.8507976257401126,0.39075443388034575,0.3481521317191555,0.047375791468272116,-54.412390542612805,-39.00871672351999,14.264918060681342,2
1767484528.1268082,2,right_wrist,0.7652,1.1302,0.4973,-173.6,57.68,-178.01,-0.46412143923477905,-0.5787697906986392,-0.12287723390917263,-0.6591797967202279,66.78887035997208,-40.46374738945022,82.38909836583562,2
1767484528.181259,1,left_wrist,0.9043,-0.9755,0.6637,165.13,120.75,208.81,-0.8937371902223962,0.3590318309277776,0.266409377849442,-0.03682421197931223,-47.774296866695224,-26.728146297705344,16.73114735364297,2
1767484528.181259,2,right_wrist,0.7291,1.1463,0.7325,-191.1,106.89,-205.03,-0.563051201406946,-0.4908629989108666,-0.14155179072397306,-0.649607536468953,57.019957023398824,-28.576701237669205,82.41305336707198,2
1767484528.2319639,1,left_wrist,0.7047,-0.8179,0.9209,59.85,193.48,177.87,-0.917858245869423,0.35324198063954526,0.161927546236457,-0.08084437749897604,-44.024797421473494,-13.894674220819734,15.70761592839484,2
1767484528.2319639,2,right_wrist,0.7486,1.1458,0.9462,-169.61,152.67,-209.23,-0.6446278282407949,-0.3859473517295143,-0.17331215286223772,-0.6367593756049355,48.20976314718921,-15.549305096920826,82.30489214196848,2
1767484528.305751,1,left_wrist,0.7047,-0.8179,0.9209,59.85,193.48,177.87,-0.928529950542916,0.34502892634436233,0.05892987956720991,-0.12375152615067368,-40.95864807346768,-1.3775578565660254,15.69742729336302,2
1767484528.305751,2,right_wrist,0.5178,0.832,0.9062,-117.46,207.13,-155.47,-0.7295558564563434,-0.17100122409792792,-0.25539544583912727,-0.6109664474518178,34.69899705682214,9.421634039376901,82.83841338032911,2
1767484528.381373,1,left_wrist,0.2191,-0.611,0.9838,30.59,218.26,129.85,-0.9182560829199022,0.32149870519769314,-0.15214628207541758,-0.17405705267937877,-35.73601503590747,23.037700380088687,13.94868448559771,2
1767484528.381373,2,right_wrist,0.3504,0.631,0.8086,-90.44,207.55,-127.75,-0.7420364519658904,-0.07573228091497815,-0.30206003128797776,-0.5936381583756166,30.300217610789215,20.99975541439299,83.0660372594321,2
1767484528.4356182,1,left_wrist,-0.0127,-0.4792,0.6212,-19.32,226.66,97.65,-0.8892386749826299,0.33833131090792373,-0.24954847693527327,-0.18031101084999734,-38.3619036587724,34.45967235426682,10.610357061094104,2
1767484528.4356182,2,right_wrist,0.1601,0.5612,0.6861,-73.5,196.0,-95.83,-0.7394600194920181,0.007445228067273326,-0.3458607842643307,-0.5775151652207519,27.05369735361393,31.338953419277015,83.700780675458,2
1767484528.5029151,1,left_wrist,-0.1352,-0.3572,0.447,-24.36,199.08,77.14,-0.8557478451540295,0.3537733619399182,-0.33106550149290953,-0.18148186580816078,-42.454253215924155,44.02913599474894,6.096689422909048,2
1767484528.5029151,2,right_wrist,-0.2425,0.3787,0.4978,-32.06,143.64,-53.97,-0.7157339727377596,0.12263651833206511,-0.4188591469020842,-0.5451992110200372,24.428131385629182,47.16427762159242,85.39133157028492,2
1767484528.5803561,1,left_wrist,-0.3177,-0.2596,0.2782,9.73,142.66,62.23,-0.8039108758323668,0.34898857929852456,-0.44798149147088256,-0.17676780967460717,-48.60149579792744,57.52803848722979,-3.039672652646433,2
1767484528.5803561,2,right_wrist,-0.4548,0.303,0.5612,-32.62,116.9,-47.67,-0.7031319414727201,0.16572327838935025,-0.4427663934705256,-0.5311301052414492,23.223782157706115,53.00496258288604,85.83373124421603,2
1767484528.6309388,1,left_wrist,-0.6895,-0.3753,-0.1249,-52.64,118.09,16.1,-0.7681192690082966,0.37492421998490455,-0.48913580702573667,-0.17369738090182135,-59.3771327421003,61.8452023517878,-12.227628148289348,2
1767484528.6309388,2,right_wrist,-0.6437,0.283,0.6095,-51.52,101.01,-42.56,-0.6894510475472295,0.21005018893654534,-0.4562362163340241,-0.5219048630439873,20.636055136017447,58.03346943271244,85.78333048740325,2
1767484528.6820219,1,left_wrist,-0.5905,-0.0903,-0.5114,-13.86,33.67,0.56,-0.7557787732122755,0.3832566598850792,-0.5025309169325527,-0.17139269570903093,-63.7027959782773,62.99654973755564,-16.128059312944284,2
1767484528.6820219,2,right_wrist,-0.7779,0.3011,0.4494,-25.41,115.08,-28.56,-0.6680567124831748,0.24562327110044718,-0.4841271079428814,-0.508910975471104,21.842603576782324,63.746987458803176,88.28202857009964,2
1767484528.7590349,1,left_wrist,-0.7974,-0.388,0.1142,47.32,-41.79,-1.47,-0.7706701581673965,0.36716196189919,-0.4935664902846372,-0.1662880654547486,-58.81607208941308,61.98970643844527,-13.06103259329699,2
1767484528.7590349,2,right_wrist,-0.6978,-0.0268,-0.0747,-4.69,-2.24,-0.98,-0.6508847650524655,0.2645641094603931,-0.5225567771343025,-0.48300027875668633,27.06641139050039,69.36063256705125,92.0663890857028,2
1767484528.811158,1,left_wrist,-0.7974,-0.388,0.1142,47.32,-41.79,-1.47,-0.7850014497832805,0.35069416367337547,-0.4845223446507703,-0.1613208757033622,-54.18552516466553,60.909171999694756,-10.255834981315425,2
1767484528.811158,2,right_wrist,-0.934,0.1279,0.3118,12.81,-13.44,-1.26,-0.657436793748286,0.2619674593595756,-0.5194085518642585,-0.47892031561934895,25.34231501257214,69.04789394772048,89.72758208791109,2
1767484528.8842208,1,left_wrist,-0.8569,-0.3836,0.1806,11.76,-21.49,-7.49,-0.7889894614357345,0.3481103733794207,-0.4803294639186012,-0.15999501173680195,-53.1766704753403,60.38222102228448,-9.544450748667483,2
1767484528.8842208,2,right_wrist,-0.9165,0.0961,0.3719,-7.0,-22.19,1.75,-0.6636135582012034,0.2599178532095375,-0.5085318622505197,-0.48317191560613487,22.841585610445406,67.83592175495754,87.58746378155855,2
1767484528.952441,1,left_wrist,-0.8847,-0.4255,0.2582,8.82,-20.09,-8.89,-0.7933060641182139,0.3482154022846534,-0.47416143080722717,-0.15678794526317452,-52.67999025474743,59.48567411434549,-9.231859459933007,2
1767484528.952441,2,right_wrist,-0.9365,0.2216,0.3235,2.87,-17.43,4.97,-0.6638270229511036,0.24541102598054357,-0.5077856789606248,-0.4911830780570003,25.430807827522163,66.24085677297879,89.74604216273089,2
1767484529.0306938,1,left_wrist,-0.7642,-0.3475,0.1313,6.86,-52.15,-19.39,-0.8079641818199623,0.3472678398468226,-0.45051235598233225,-0.15374506629927562,-50.138938454631145,56.59263840058487,-6.722882491592257,2
1767484529.0306938,2,right_wrist,-0.8935,0.2216,0.2782,5.88,-25.62,4.41,-0.6668780116730062,0.23674999337783173,-0.5053649431967672,-0.4937908791891386,25.92544388804961,65.20902145576237,89.78769907608597,2
1767484529.081245,1,left_wrist,-0.6759,-0.345,0.02,-18.83,-81.48,-39.2,-0.8209836844476002,0.3578185852319594,-0.41688656595616724,-0.1554259986576137,-49.12388821014244,52.72546755978155,-4.084233411482302,2
1767484529.081245,2,right_wrist,-0.7754,0.1327,0.0952,35.42,-38.92,17.92,-0.6735061036387223,0.21578457126969997,-0.5061104445499679,-0.4936382937746753,27.909978695580985,63.479672473145236,89.9554858851823,2
1767484529.132648,1,left_wrist,-0.5856,-0.3206,0.1259,-22.12,-134.12,-62.44,-0.8423700383705042,0.3690895352582904,-0.3596858986267897,-0.15751726174465217,-47.326685276948865,46.240823032083796,-0.011345906013960834,2
