timestamp,node_id,node_name,ax,ay,az,gx,gy,gz,qw,qx,qy,qz,roll,pitch,yaw,rep_number
1767129970.013,1,left_wrist,-0.082,0.1318,-0.9736,0.77,-25.27,-2.66,-0.19448750510381016,0.8402107217946996,-0.42721126964873946,-0.2714978534442541,-173.03978423748313,38.491997432874754,-51.47008614306945,1
1767129970.013,2,right_wrist,-0.122,0.0176,-0.9653,1.19,-2.94,-0.56,0.05898897969276396,0.5761997031327112,0.8145834443073806,-0.031112933723882536,179.00052538507276,7.582718738577751,109.38602212565435,1
1767129970.033,1,left_wrist,-0.082,0.1318,-0.9736,0.77,-25.27,-2.66,-0.19448750510381016,0.8402107217946996,-0.42721126964873946,-0.2714978534442541,-173.03978423748313,38.491997432874754,-51.47008614306945,1
1767129970.033,2,right_wrist,-0.122,0.0176,-0.9653,1.19,-2.94,-0.56,0.05898897969276396,0.5761997031327112,0.8145834443073806,-0.031112933723882536,179.00052538507276,7.582718738577751,109.38602212565435,1
1767129970.055,1,left_wrist,-0.082,0.1318,-0.9736,0.77,-25.27,-2.66,-0.19448750510381016,0.8402107217946996,-0.42721126964873946,-0.2714978534442541,-173.03978423748313,38.491997432874754,-51.47008614306945,1
1767129970.055,2,right_wrist,-0.122,0.0176,-0.9653,1.19,-2.94,-0.56,0.05898897969276396,0.5761997031327112,0.8145834443073806,-0.031112933723882536,179.00052538507276,7.582718738577751,109.38602212565435,1
1767129970.07,1,left_wrist,-0.082,0.1318,-0.9736,0.77,-25.27,-2.66,-0.19448750510381016,0.8402107217946996,-0.42721126964873946,-0.2714978534442541,-173.03978423748313,38.491997432874754,-51.47008614306945,1
1767129970.07,2,right_wrist,-0.122,0.0176,-0.9653,1.19,-2.94,-0.56,0.05898897969276396,0.5761997031327112,0.8145834443073806,-0.031112933723882536,179.00052538507276,7.582718738577751,109.38602212565435,1
1767129970.087,1,left_wrist,-0.082,0.1318,-0.9736,0.77,-25.27,-2.66,-0.19448750510381016,0.8402107217946996,-0.42721126964873946,-0.2714978534442541,-173.03978423748313,38.491997432874754,-51.47008614306945,1
1767129970.087,2,right_wrist,-0.122,0.0176,-0.9653,1.19,-2.94,-0.56,0.05898897969276396,0.5761997031327112,0.8145834443073806,-0.031112933723882536,179.00052538507276,7.582718738577751,109.38602212565435,1
1767129970.103,1,left_wrist,-0.082,0.1318,-0.9736,0.77,-25.27,-2.66,-0.19448750510381016,0.8402107217946996,-0.42721126964873946,-0.2714978534442541,-173.03978423748313,38.491997432874754,-51.47008614306945,1
1767129970.103,2,right_wrist,-0.122,0.0176,-0.9653,1.19,-2.94,-0.56,0.05898897969276396,0.5761997031327112,0.8145834443073806,-0.031112933723882536,179.00052538507276,7.582718738577751,109.38602212565435,1
1767129970.118,1,left_wrist,-0.082,0.1318,-0.9736,0.77,-25.27,-2.66,-0.19448750510381016,0.8402107217946996,-0.42721126964873946,-0.2714978534442541,-173.03978423748313,38.491997432874754,-51.47008614306945,1
1767129970.118,2,right_wrist,-0.122,0.0176,-0.9653,1.19,-2.94,-0.56,0.05898897969276396,0.5761997031327112,0.8145834443073806,-0.031112933723882536,179.00052538507276,7.582718738577751,109.38602212565435,1
1767129970.134,1,left_wrist,-0.082,0.1318,-0.9736,0.77,-25.27,-2.66,-0.19448750510381016,0.8402107217946996,-0.42721126964873946,-0.2714978534442541,-173.03978423748313,38.491997432874754,-51.47008614306945,1
1767129970.134,2,right_wrist,-0.122,0.0176,-0.9653,1.19,-2.94,-0.56,0.05898897969276396,0.5761997031327112,0.8145834443073806,-0.031112933723882536,179.00052538507276,7.582718738577751,109.38602212565435,1
1767129970.148,1,left_wrist,-0.082,0.1318,-0.9736,0.77,-25.27,-2.66,-0.19448750510381016,0.8402107217946996,-0.42721126964873946,-0.2714978534442541,-173.03978423748313,38.491997432874754,-51.47008614306945,1
1767129970.148,2,right_wrist,-0.122,0.0176,-0.9653,1.19,-2.94,-0.56,0.05898897969276396,0.5761997031327112,0.8145834443073806,-0.031112933723882536,179.00052538507276,7.582718738577751,109.38602212565435,1
1767129970.164,1,left_wrist,-0.082,0.1318,-0.9736,0.77,-25.27,-2.66,-0.19448750510381016,0.8402107217946996,-0.42721126964873946,-0.2714978534442541,-173.03978423748313,38.491997432874754,-51.47008614306945,1
1767129970.164,2,right_wrist,-0.122,0.0176,-0.9653,1.19,-2.94,-0.56,0.05898897969276396,0.5761997031327112,0.8145834443073806,-0.031112933723882536,179.00052538507276,7.582718738577751,109.38602212565435,1
1767129970.18,1,left_wrist,-0.082,0.1318,-0.9736,0.77,-25.27,-2.66,-0.19448750510381016,0.8402107217946996,-0.42721126964873946,-0.2714978534442541,-173.03978423748313,38.491997432874754,-51.47008614306945,1
1767129970.18,2,right_wrist,-0.122,0.0176,-0.9653,1.19,-2.94,-0.56,0.05898897969276396,0.5761997031327112,0.8145834443073806,-0.031112933723882536,179.00052538507276,7.582718738577751,109.38602212565435,1
1767129970.196,1,left_wrist,-0.082,0.1318,-0.9736,0.77,-25.27,-2.66,-0.19448750510381016,0.8402107217946996,-0.42721126964873946,-0.2714978534442541,-173.03978423748313,38.491997432874754,-51.47008614306945,1
1767129970.196,2,right_wrist,-0.122,0.0176,-0.9653,1.19,-2.94,-0.56,0.05898897969276396,0.5761997031327112,0.8145834443073806,-0.031112933723882536,179.00052538507276,7.582718738577751,109.38602212565435,1
1767129970.213,1,left_wrist,-0.082,0.1318,-0.9736,0.77,-25.27,-2.66,-0.19448750510381016,0.8402107217946996,-0.42721126964873946,-0.2714978534442541,-173.03978423748313,38.491997432874754,-51.47008614306945,1
1767129970.213,2,right_wrist,-0.122,0.0176,-0.9653,1.19,-2.94,-0.56,0.05898897969276396,0.5761997031327112,0.8145834443073806,-0.031112933723882536,179.00052538507276,7.582718738577751,109.38602212565435,1
1767129970.24,1,left_wrist,-0.082,0.1318,-0.9736,0.77,-25.27,-2.66,-0.19448750510381016,0.8402107217946996,-0.42721126964873946,-0.2714978534442541,-173.03978423748313,38.491997432874754,-51.47008614306945,1
1767129970.24,2,right_wrist,-0.122,0.0176,-0.9653,1.19,-2.94,-0.56,0.05898897969276396,0.5761997031327112,0.8145834443073806,-0.031112933723882536,179.00052538507276,7.582718738577751,109.38602212565435,1
1767129970.264,1,left_wrist,-0.082,0.1318,-0.9736,0.77,-25.27,-2.66,-0.19448750510381016,0.8402107217946996,-0.42721126964873946,-0.2714978534442541,-173.03978423748313,38.491997432874754,-51.47008614306945,1
1767129970.264,2,right_wrist,-0.122,0.0176,-0.9653,1.19,-2.94,-0.56,0.05898897969276396,0.5761997031327112,0.8145834443073806,-0.031112933723882536,179.00052538507276,7.582718738577751,109.38602212565435,1
1767129970.287,1,left_wrist,-0.082,0.1318,-0.9736,0.77,-25.27,-2.66,-0.19448750510381016,0.8402107217946996,-0.42721126964873946,-0.2714978534442541,-173.03978423748313,38.491997432874754,-51.47008614306945,1
1767129970.287,2,right_wrist,-0.122,0.0176,-0.9653,1.19,-2.94,-0.56,0.05898897969276396,0.5761997031327112,0.8145834443073806,-0.031112933723882536,179.00052538507276,7.582718738577751,109.38602212565435,1
1767129970.311,1,left_wrist,-0.082,0.1318,-0.9736,0.77,-25.27,-2.66,-0.19448750510381016,0.8402107217946996,-0.42721126964873946,-0.2714978534442541,-173.03978423748313,38.491997432874754,-51.47008614306945,1
1767129970.311,2,right_wrist,-0.122,0.0176,-0.9653,1.19,-2.94,-0.56,0.05898897969276396,0.5761997031327112,0.8145834443073806,-0.031112933723882536,179.00052538507276,7.582718738577751,109.38602212565435,1
1767129970.337,1,left_wrist,-0.082,0.1318,-0.9736,0.77,-25.27,-2.66,-0.19448750510381016,0.8402107217946996,-0.42721126964873946,-0.2714978534442541,-173.03978423748313,38.491997432874754,-51.47008614306945,1
1767129970.337,2,right_wrist,-0.122,0.0176,-0.9653,1.19,-2.94,-0.56,0.05898897969276396,0.5761997031327112,0.8145834443073806,-0.031112933723882536,179.00052538507276,7.582718738577751,109.38602212565435,1
1767129970.366,1,left_wrist,-0.082,0.1318,-0.9736,0.77,-25.27,-2.66,-0.19448750510381016,0.8402107217946996,-0.42721126964873946,-0.2714978534442541,-173.03978423748313,38.491997432874754,-51.47008614306945,1
1767129970.366,2,right_wrist,-0.122,0.0176,-0.9653,1.19,-2.94,-0.56,0.05898897969276396,0.5761997031327112,0.8145834443073806,-0.031112933723882536,179.00052538507276,7.582718738577751,109.38602212565435,1
1767129970.396,1,left_wrist,-0.082,0.1318,-0.9736,0.77,-25.27,-2.66,-0.19448750510381016,0.8402107217946996,-0.42721126964873946,-0.2714978534442541,-173.03978423748313,38.491997432874754,-51.47008614306945,1
1767129970.396,2,right_wrist,-0.122,0.0176,-0.9653,1.19,-2.94,-0.56,0.05898897969276396,0.5761997031327112,0.8145834443073806,-0.031112933723882536,179.00052538507276,7.582718738577751,109.38602212565435,1
1767129970.425,1,left_wrist,-0.082,0.1318,-0.9736,0.77,-25.27,-2.66,-0.19448750510381016,0.8402107217946996,-0.42721126964873946,-0.2714978534442541,-173.03978423748313,38.491997432874754,-51.47008614306945,1
1767129970.425,2,right_wrist,-0.122,0.0176,-0.9653,1.19,-2.94,-0.56,0.05898897969276396,0.5761997031327112,0.8145834443073806,-0.031112933723882536,179.00052538507276,7.582718738577751,109.38602212565435,1
1767129970.448,1,left_wrist,-0.082,0.1318,-0.9736,0.77,-25.27,-2.66,-0.19448750510381016,0.8402107217946996,-0.42721126964873946,-0.2714978534442541,-173.03978423748313,38.491997432874754,-51.47008614306945,1
1767129970.448,2,right_wrist,-0.122,0.0176,-0.9653,1.19,-2.94,-0.56,0.05898897969276396,0.5761997031327112,0.8145834443073806,-0.031112933723882536,179.00052538507276,7.582718738577751,109.38602212565435,1
1767129970.469,1,left_wrist,-0.082,0.1318,-0.9736,0.77,-25.27,-2.66,-0.19448750510381016,0.8402107217946996,-0.42721126964873946,-0.2714978534442541,-173.03978423748313,38.491997432874754,-51.47008614306945,1
1767129970.469,2,right_wrist,-0.122,0.0176,-0.9653,1.19,-2.94,-0.56,0.05898897969276396,0.5761997031327112,0.8145834443073806,-0.031112933723882536,179.00052538507276,7.582718738577751,109.38602212565435,1
1767129970.492,1,left_wrist,-0.082,0.1318,-0.9736,0.77,-25.27,-2.66,-0.19448750510381016,0.8402107217946996,-0.42721126964873946,-0.2714978534442541,-173.03978423748313,38.491997432874754,-51.47008614306945,1
1767129970.492,2,right_wrist,-0.122,0.0176,-0.9653,1.19,-2.94,-0.56,0.05898897969276396,0.5761997031327112,0.8145834443073806,-0.031112933723882536,179.00052538507276,7.582718738577751,109.38602212565435,1
1767129970.518,1,left_wrist,-0.082,0.1318,-0.9736,0.77,-25.27,-2.66,-0.19448750510381016,0.8402107217946996,-0.42721126964873946,-0.2714978534442541,-173.03978423748313,38.491997432874754,-51.47008614306945,1
1767129970.518,2,right_wrist,-0.122,0.0176,-0.9653,1.19,-2.94,-0.56,0.05898897969276396,0.5761997031327112,0.8145834443073806,-0.031112933723882536,179.00052538507276,7.582718738577751,109.38602212565435,1
1767129970.545,1,left_wrist,-0.082,0.1318,-0.9736,0.77,-25.27,-2.66,-0.19448750510381016,0.8402107217946996,-0.42721126964873946,-0.2714978534442541,-173.03978423748313,38.491997432874754,-51.47008614306945,1
1767129970.545,2,right_wrist,-0.122,0.0176,-0.9653,1.19,-2.94,-0.56,0.05898897969276396,0.5761997031327112,0.8145834443073806,-0.031112933723882536,179.00052538507276,7.582718738577751,109.38602212565435,1
1767129970.578,1,left_wrist,-0.082,0.1318,-0.9736,0.77,-25.27,-2.66,-0.19448750510381016,0.8402107217946996,-0.42721126964873946,-0.2714978534442541,-173.03978423748313,38.491997432874754,-51.47008614306945,1
1767129970.578,2,right_wrist,-0.122,0.0176,-0.9653,1.19,-2.94,-0.56,0.05898897969276396,0.5761997031327112,0.8145834443073806,-0.031112933723882536,179.00052538507276,7.582718738577751,109.38602212565435,1
1767129970.607,1,left_wrist,-0.082,0.1318,-0.9736,0.77,-25.27,-2.66,-0.19448750510381016,0.8402107217946996,-0.42721126964873946,-0.2714978534442541,-173.03978423748313,38.491997432874754,-51.47008614306945,1
1767129970.607,2,right_wrist,-0.122,0.0176,-0.9653,1.19,-2.94,-0.56,0.05898897969276396,0.5761997031327112,0.8145834443073806,-0.031112933723882536,179.00052538507276,7.582718738577751,109.38602212565435,1
1767129970.62,1,left_wrist,-0.082,0.1318,-0.9736,0.77,-25.27,-2.66,-0.19448750510381016,0.8402107217946996,-0.42721126964873946,-0.2714978534442541,-173.03978423748313,38.491997432874754,-51.47008614306945,1
1767129970.62,2,right_wrist,-0.122,0.0176,-0.9653,1.19,-2.94,-0.56,0.05898897969276396,0.5761997031327112,0.8145834443073806,-0.031112933723882536,179.00052538507276,7.582718738577751,109.38602212565435,1
1767129970.634,1,left_wrist,-0.082,0.1318,-0.9736,0.77,-25.27,-2.66,-0.19448750510381016,0.8402107217946996,-0.42721126964873946,-0.2714978534442541,-173.03978423748313,38.491997432874754,-51.47008614306945,1
1767129970.634,2,right_wrist,-0.122,0.0176,-0.9653,1.19,-2.94,-0.56,0.05898897969276396,0.5761997031327112,0.8145834443073806,-0.031112933723882536,179.00052538507276,7.582718738577751,109.38602212565435,1
1767129970.648,1,left_wrist,-0.082,0.1318,-0.9736,0.77,-25.27,-2.66,-0.19448750510381016,0.8402107217946996,-0.42721126964873946,-0.2714978534442541,-173.03978423748313,38.491997432874754,-51.47008614306945,1
1767129970.648,2,right_wrist,-0.122,0.0176,-0.9653,1.19,-2.94,-0.56,0.05898897969276396,0.5761997031327112,0.8145834443073806,-0.031112933723882536,179.00052538507276,7.582718738577751,109.38602212565435,1
1767129970.662,1,left_wrist,-0.082,0.1318,-0.9736,0.77,-25.27,-2.66,-0.19448750510381016,0.8402107217946996,-0.42721126964873946,-0.2714978534442541,-173.03978423748313,38.491997432874754,-51.47008614306945,1
1767129970.662,2,right_wrist,-0.122,0.0176,-0.9653,1.19,-2.94,-0.56,0.05898897969276396,0.5761997031327112,0.8145834443073806,-0.031112933723882536,179.00052538507276,7.582718738577751,109.38602212565435,1
1767129970.677,1,left_wrist,-0.082,0.1318,-0.9736,0.77,-25.27,-2.66,-0.19448750510381016,0.8402107217946996,-0.42721126964873946,-0.2714978534442541,-173.03978423748313,38.491997432874754,-51.47008614306945,1
1767129970.677,2,right_wrist,-0.122,0.0176,-0.9653,1.19,-2.94,-0.56,0.05898897969276396,0.5761997031327112,0.8145834443073806,-0.031112933723882536,179.00052538507276,7.582718738577751,109.38602212565435,1
1767129970.692,1,left_wrist,-0.082,0.1318,-0.9736,0.77,-25.27,-2.66,-0.19448750510381016,0.8402107217946996,-0.42721126964873946,-0.2714978534442541,-173.03978423748313,38.491997432874754,-51.47008614306945,1
1767129970.692,2,right_wrist,-0.122,0.0176,-0.9653,1.19,-2.94,-0.56,0.05898897969276396,0.5761997031327112,0.8145834443073806,-0.031112933723882536,179.00052538507276,7.582718738577751,109.38602212565435,1
1767129970.711,1,left_wrist,-0.082,0.1318,-0.9736,0.77,-25.27,-2.66,-0.19448750510381016,0.8402107217946996,-0.42721126964873946,-0.2714978534442541,-173.03978423748313,38.491997432874754,-51.47008614306945,1
1767129970.711,2,right_wrist,-0.122,0.0176,-0.9653,1.19,-2.94,-0.56,0.05898897969276396,0.5761997031327112,0.8145834443073806,-0.031112933723882536,179.00052538507276,7.582718738577751,109.38602212565435,1
1767129970.729,1,left_wrist,-0.082,0.1318,-0.9736,0.77,-25.27,-2.66,-0.19448750510381016,0.8402107217946996,-0.42721126964873946,-0.2714978534442541,-173.03978423748313,38.491997432874754,-51.47008614306945,1
1767129970.729,2,right_wrist,-0.122,0.0176,-0.9653,1.19,-2.94,-0.56,0.05898897969276396,0.5761997031327112,0.8145834443073806,-0.031112933723882536,179.00052538507276,7.582718738577751,109.38602212565435,1
1767129970.746,1,left_wrist,-0.082,0.1318,-0.9736,0.77,-25.27,-2.66,-0.19448750510381016,0.8402107217946996,-0.42721126964873946,-0.2714978534442541,-173.03978423748313,38.491997432874754,-51.47008614306945,1
1767129970.746,2,right_wrist,-0.122,0.0176,-0.9653,1.19,-2.94,-0.56,0.05898897969276396,0.5761997031327112,0.8145834443073806,-0.031112933723882536,179.00052538507276,7.582718738577751,109.38602212565435,1
1767129970.769,1,left_wrist,-0.082,0.1318,-0.9736,0.77,-25.27,-2.66,-0.19448750510381016,0.8402107217946996,-0.42721126964873946,-0.2714978534442541,-173.03978423748313,38.491997432874754,-51.47008614306945,1
1767129970.769,2,right_wrist,-0.122,0.0176,-0.9653,1.19,-2.94,-0.56,0.05898897969276396,0.5761997031327112,0.8145834443073806,-0.031112933723882536,179.00052538507276,7.582718738577751,109.38602212565435,1
1767129970.789,1,left_wrist,-0.082,0.1318,-0.9736,0.77,-25.27,-2.66,-0.19448750510381016,0.8402107217946996,-0.42721126964873946,-0.2714978534442541,-173.03978423748313,38.491997432874754,-51.47008614306945,1
1767129970.789,2,right_wrist,-0.122,0.0176,-0.9653,1.19,-2.94,-0.56,0.05898897969276396,0.5761997031327112,0.8145834443073806,-0.031112933723882536,179.00052538507276,7.582718738577751,109.38602212565435,1
1767129970.811,1,left_wrist,-0.082,0.1318,-0.9736,0.77,-25.27,-2.66,-0.19448750510381016,0.8402107217946996,-0.42721126964873946,-0.2714978534442541,-173.03978423748313,38.491997432874754,-51.47008614306945,1
1767129970.811,2,right_wrist,-0.122,0.0176,-0.9653,1.19,-2.94,-0.56,0.05898897969276396,0.5761997031327112,0.8145834443073806,-0.031112933723882536,179.00052538507276,7.582718738577751,109.38602212565435,1
1767129970.831,1,left_wrist,-0.082,0.1318,-0.9736,0.77,-25.27,-2.66,-0.19448750510381016,0.8402107217946996,-0.42721126964873946,-0.2714978534442541,-173.03978423748313,38.491997432874754,-51.47008614306945,1
1767129970.831,2,right_wrist,-0.122,0.0176,-0.9653,1.19,-2.94,-0.56,0.05898897969276396,0.5761997031327112,0.8145834443073806,-0.031112933723882536,179.00052538507276,7.582718738577751,109.38602212565435,1
1767129970.853,1,left_wrist,-0.082,0.1318,-0.9736,0.77,-25.27,-2.66,-0.19448750510381016,0.8402107217946996,-0.42721126964873946,-0.2714978534442541,-173.03978423748313,38.491997432874754,-51.47008614306945,1
1767129970.853,2,right_wrist,-0.122,0.0176,-0.9653,1.19,-2.94,-0.56,0.05898897969276396,0.5761997031327112,0.8145834443073806,-0.031112933723882536,179.00052538507276,7.582718738577751,109.38602212565435,1
1767129970.875,1,left_wrist,-0.082,0.1318,-0.9736,0.77,-25.27,-2.66,-0.19448750510381016,0.8402107217946996,-0.42721126964873946,-0.2714978534442541,-173.03978423748313,38.491997432874754,-51.47008614306945,1
1767129970.875,2,right_wrist,-0.122,0.0176,-0.9653,1.19,-2.94,-0.56,0.05898897969276396,0.5761997031327112,0.8145834443073806,-0.031112933723882536,179.00052538507276,7.582718738577751,109.38602212565435,1
1767129970.897,1,left_wrist,-0.082,0.1318,-0.9736,0.77,-25.27,-2.66,-0.19448750510381016,0.8402107217946996,-0.42721126964873946,-0.2714978534442541,-173.03978423748313,38.491997432874754,-51.47008614306945,1
1767129970.897,2,right_wrist,-0.122,0.0176,-0.9653,1.19,-2.94,-0.56,0.05898897969276396,0.5761997031327112,0.8145834443073806,-0.031112933723882536,179.00052538507276,7.582718738577751,109.38602212565435,1
1767129970.919,1,left_wrist,-0.082,0.1318,-0.9736,0.77,-25.27,-2.66,-0.19448750510381016,0.8402107217946996,-0.42721126964873946,-0.2714978534442541,-173.03978423748313,38.491997432874754,-51.47008614306945,1
1767129970.919,2,right_wrist,-0.122,0.0176,-0.9653,1.19,-2.94,-0.56,0.05898897969276396,0.5761997031327112,0.8145834443073806,-0.031112933723882536,179.00052538507276,7.582718738577751,109.38602212565435,1
1767129970.941,1,left_wrist,-0.082,0.1318,-0.9736,0.77,-25.27,-2.66,-0.19448750510381016,0.8402107217946996,-0.42721126964873946,-0.2714978534442541,-173.03978423748313,38.491997432874754,-51.47008614306945,1
1767129970.941,2,right_wrist,-0.122,0.0176,-0.9653,1.19,-2.94,-0.56,0.05898897969276396,0.5761997031327112,0.8145834443073806,-0.031112933723882536,179.00052538507276,7.582718738577751,109.38602212565435,1
1767129970.963,1,left_wrist,-0.082,0.1318,-0.9736,0.77,-25.27,-2.66,-0.19448750510381016,0.8402107217946996,-0.42721126964873946,-0.2714978534442541,-173.03978423748313,38.491997432874754,-51.47008614306945,1
1767129970.963,2,right_wrist,-0.122,0.0176,-0.9653,1.19,-2.94,-0.56,0.05898897969276396,0.5761997031327112,0.8145834443073806,-0.031112933723882536,179.00052538507276,7.582718738577751,109.38602212565435,1
1767129970.985,1,left_wrist,-0.082,0.1318,-0.9736,0.77,-25.27,-2.66,-0.19448750510381016,0.8402107217946996,-0.42721126964873946,-0.2714978534442541,-173.03978423748313,38.491997432874754,-51.47008614306945,1
1767129970.985,2,right_wrist,-0.122,0.0176,-0.9653,1.19,-2.94,-0.56,0.05898897969276396,0.5761997031327112,0.8145834443073806,-0.031112933723882536,179.00052538507276,7.582718738577751,109.38602212565435,1
1767129971.007,1,left_wrist,-0.082,0.1318,-0.9736,0.77,-25.27,-2.66,-0.19448750510381016,0.8402107217946996,-0.42721126964873946,-0.2714978534442541,-173.03978423748313,38.491997432874754,-51.47008614306945,1
1767129971.007,2,right_wrist,-0.122,0.0176,-0.9653,1.19,-2.94,-0.56,0.05898897969276396,0.5761997031327112,0.8145834443073806,-0.031112933723882536,179.00052538507276,7.582718738577751,109.38602212565435,1
1767129971.029,1,left_wrist,-0.082,0.1318,-0.9736,0.77,-25.27,-2.66,-0.19448750510381016,0.8402107217946996,-0.42721126964873946,-0.2714978534442541,-173.03978423748313,38.491997432874754,-51.47008614306945,1
1767129971.029,2,right_wrist,-0.122,0.0176,-0.9653,1.19,-2.94,-0.56,0.05898897969276396,0.5761997031327112,0.8145834443073806,-0.031112933723882536,179.00052538507276,7.582718738577751,109.38602212565435,1
1767129971.051,1,left_wrist,-0.082,0.1318,-0.9736,0.77,-25.27,-2.66,-0.19448750510381016,0.8402107217946996,-0.42721126964873946,-0.2714978534442541,-173.03978423748313,38.491997432874754,-51.47008614306945,1
1767129971.051,2,right_wrist,-0.122,0.0176,-0.9653,1.19,-2.94,-0.56,0.05898897969276396,0.5761997031327112,0.8145834443073806,-0.031112933723882536,179.00052538507276,7.582718738577751,109.38602212565435,1
1767129971.074,1,left_wrist,-0.082,0.1318,-0.9736,0.77,-25.27,-2.66,-0.19448750510381016,0.8402107217946996,-0.42721126964873946,-0.2714978534442541,-173.03978423748313,38.491997432874754,-51.47008614306945,1
1767129971.074,2,right_wrist,-0.122,0.0176,-0.9653,1.19,-2.94,-0.56,0.05898897969276396,0.5761997031327112,0.8145834443073806,-0.031112933723882536,179.00052538507276,7.582718738577751,109.38602212565435,1
1767129971.096,1,left_wrist,-0.082,0.1318,-0.9736,0.77,-25.27,-2.66,-0.19448750510381016,0.8402107217946996,-0.42721126964873946,-0.2714978534442541,-173.03978423748313,38.491997432874754,-51.47008614306945,1
1767129971.096,2,right_wrist,-0.122,0.0176,-0.9653,1.19,-2.94,-0.56,0.05898897969276396,0.5761997031327112,0.8145834443073806,-0.031112933723882536,179.00052538507276,7.582718738577751,109.38602212565435,1
1767129971.118,1,left_wrist,-0.082,0.1318,-0.9736,0.77,-25.27,-2.66,-0.19448750510381016,0.8402107217946996,-0.42721126964873946,-0.2714978534442541,-173.03978423748313,38.491997432874754,-51.47008614306945,1
1767129971.118,2,right_wrist,-0.122,0.0176,-0.9653,1.19,-2.94,-0.56,0.05898897969276396,0.5761997031327112,0.8145834443073806,-0.031112933723882536,179.00052538507276,7.582718738577751,109.38602212565435,1
1767129971.141,1,left_wrist,-0.082,0.1318,-0.9736,0.77,-25.27,-2.66,-0.19448750510381016,0.8402107217946996,-0.42721126964873946,-0.2714978534442541,-173.03978423748313,38.491997432874754,-51.47008614306945,1
1767129971.141,2,right_wrist,-0.122,0.0176,-0.9653,1.19,-2.94,-0.56,0.05898897969276396,0.5761997031327112,0.8145834443073806,-0.031112933723882536,179.00052538507276,7.582718738577751,109.38602212565435,1
1767129971.163,1,left_wrist,-0.082,0.1318,-0.9736,0.77,-25.27,-2.66,-0.19448750510381016,0.8402107217946996,-0.42721126964873946,-0.2714978534442541,-173.03978423748313,38.491997432874754,-51.47008614306945,1
1767129971.163,2,right_wrist,-0.122,0.0176,-0.9653,1.19,-2.94,-0.56,0.05898897969276396,0.5761997031327112,0.8145834443073806,-0.031112933723882536,179.00052538507276,7.582718738577751,109.38602212565435,1
1767129971.185,1,left_wrist,-0.082,0.1318,-0.9736,0.77,-25.27,-2.66,-0.19448750510381016,0.8402107217946996,-0.42721126964873946,-0.2714978534442541,-173.03978423748313,38.491997432874754,-51.47008614306945,1
1767129971.185,2,right_wrist,-0.122,0.0176,-0.9653,1.19,-2.94,-0.56,0.05898897969276396,0.5761997031327112,0.8145834443073806,-0.031112933723882536,179.00052538507276,7.582718738577751,109.38602212565435,1
1767129971.208,1,left_wrist,-0.082,0.1318,-0.9736,0.77,-25.27,-2.66,-0.19448750510381016,0.8402107217946996,-0.42721126964873946,-0.2714978534442541,-173.03978423748313,38.491997432874754,-51.47008614306945,1
1767129971.208,2,right_wrist,-0.122,0.0176,-0.9653,1.19,-2.94,-0.56,0.05898897969276396,0.5761997031327112,0.8145834443073806,-0.031112933723882536,179.00052538507276,7.582718738577751,109.38602212565435,1
1767129971.23,1,left_wrist,-0.082,0.1318,-0.9736,0.77,-25.27,-2.66,-0.19448750510381016,0.8402107217946996,-0.42721126964873946,-0.2714978534442541,-173.03978423748313,38.491997432874754,-51.47008614306945,1
1767129971.23,2,right_wrist,-0.122,0.0176,-0.9653,1.19,-2.94,-0.56,0.05898897969276396,0.5761997031327112,0.8145834443073806,-0.031112933723882536,179.00052538507276,7.582718738577751,109.38602212565435,1
1767129971.259,1,left_wrist,-0.082,0.1318,-0.9736,0.77,-25.27,-2.66,-0.19448750510381016,0.8402107217946996,-0.42721126964873946,-0.2714978534442541,-173.03978423748313,38.491997432874754,-51.47008614306945,1
1767129971.259,2,right_wrist,-0.122,0.0176,-0.9653,1.19,-2.94,-0.56,0.05898897969276396,0.5761997031327112,0.8145834443073806,-0.031112933723882536,179.00052538507276,7.582718738577751,109.38602212565435,1
1767129971.29,1,left_wrist,-0.082,0.1318,-0.9736,0.77,-25.27,-2.66,-0.19448750510381016,0.8402107217946996,-0.42721126964873946,-0.2714978534442541,-173.03978423748313,38.491997432874754,-51.47008614306945,1
1767129971.29,2,right_wrist,-0.122,0.0176,-0.9653,1.19,-2.94,-0.56,0.05898897969276396,0.5761997031327112,0.8145834443073806,-0.031112933723882536,179.00052538507276,7.582718738577751,109.38602212565435,1
1767129971.314,1,left_wrist,-0.082,0.1318,-0.9736,0.77,-25.27,-2.66,-0.19448750510381016,0.8402107217946996,-0.42721126964873946,-0.2714978534442541,-173.03978423748313,38.491997432874754,-51.47008614306945,1
1767129971.314,2,right_wrist,-0.122,0.0176,-0.9653,1.19,-2.94,-0.56,0.05898897969276396,0.5761997031327112,0.8145834443073806,-0.031112933723882536,179.00052538507276,7.582718738577751,109.38602212565435,1
1767129971.336,1,left_wrist,-0.082,0.1318,-0.9736,0.77,-25.27,-2.66,-0.19448750510381016,0.8402107217946996,-0.42721126964873946,-0.2714978534442541,-173.03978423748313,38.491997432874754,-51.47008614306945,1
1767129971.336,2,right_wrist,-0.122,0.0176,-0.9653,1.19,-2.94,-0.56,0.05898897969276396,0.5761997031327112,0.8145834443073806,-0.031112933723882536,179.00052538507276,7.582718738577751,109.38602212565435,1
1767129971.36,1,left_wrist,-0.082,0.1318,-0.9736,0.77,-25.27,-2.66,-0.19448750510381016,0.8402107217946996,-0.42721126964873946,-0.2714978534442541,-173.03978423748313,38.491997432874754,-51.47008614306945,1
1767129971.36,2,right_wrist,-0.122,0.0176,-0.9653,1.19,-2.94,-0.56,0.05898897969276396,0.5761997031327112,0.8145834443073806,-0.031112933723882536,179.00052538507276,7.582718738577751,109.38602212565435,1
1767129971.385,1,left_wrist,-0.082,0.1318,-0.9736,0.77,-25.27,-2.66,-0.19448750510381016,0.8402107217946996,-0.42721126964873946,-0.2714978534442541,-173.03978423748313,38.491997432874754,-51.47008614306945,1
1767129971.385,2,right_wrist,-0.122,0.0176,-0.9653,1.19,-2.94,-0.56,0.05898897969276396,0.5761997031327112,0.8145834443073806,-0.031112933723882536,179.00052538507276,7.582718738577751,109.38602212565435,1
1767129971.414,1,left_wrist,-0.082,0.1318,-0.9736,0.77,-25.27,-2.66,-0.19448750510381016,0.8402107217946996,-0.42721126964873946,-0.2714978534442541,-173.03978423748313,38.491997432874754,-51.47008614306945,1
1767129971.414,2,right_wrist,-0.122,0.0176,-0.9653,1.19,-2.94,-0.56,0.05898897969276396,0.5761997031327112,0.8145834443073806,-0.031112933723882536,179.00052538507276,7.582718738577751,109.38602212565435,1
1767129971.443,1,left_wrist,-0.082,0.1318,-0.9736,0.77,-25.27,-2.66,-0.19448750510381016,0.8402107217946996,-0.42721126964873946,-0.2714978534442541,-173.03978423748313,38.491997432874754,-51.47008614306945,1
1767129971.443,2,right_wrist,-0.122,0.0176,-0.9653,1.19,-2.94,-0.56,0.05898897969276396,0.5761997031327112,0.8145834443073806,-0.031112933723882536,179.00052538507276,7.582718738577751,109.38602212565435,1
1767129971.473,1,left_wrist,-0.082,0.1318,-0.9736,0.77,-25.27,-2.66,-0.19448750510381016,0.8402107217946996,-0.42721126964873946,-0.2714978534442541,-173.03978423748313,38.491997432874754,-51.47008614306945,1
1767129971.473,2,right_wrist,-0.122,0.0176,-0.9653,1.19,-2.94,-0.56,0.05898897969276396,0.5761997031327112,0.8145834443073806,-0.031112933723882536,179.00052538507276,7.582718738577751,109.38602212565435,1
1767129971.496,1,left_wrist,-0.082,0.1318,-0.9736,0.77,-25.27,-2.66,-0.19448750510381016,0.8402107217946996,-0.42721126964873946,-0.2714978534442541,-173.03978423748313,38.491997432874754,-51.47008614306945,1
1767129971.496,2,right_wrist,-0.122,0.0176,-0.9653,1.19,-2.94,-0.56,0.05898897969276396,0.5761997031327112,0.8145834443073806,-0.031112933723882536,179.00052538507276,7.582718738577751,109.38602212565435,1
1767129971.518,1,left_wrist,-0.082,0.1318,-0.9736,0.77,-25.27,-2.66,-0.19448750510381016,0.8402107217946996,-0.42721126964873946,-0.2714978534442541,-173.03978423748313,38.491997432874754,-51.47008614306945,1
1767129971.518,2,right_wrist,-0.122,0.0176,-0.9653,1.19,-2.94,-0.56,0.05898897969276396,0.5761997031327112,0.8145834443073806,-0.031112933723882536,179.00052538507276,7.582718738577751,109.38602212565435,1
1767129971.541,1,left_wrist,-0.082,0.1318,-0.9736,0.77,-25.27,-2.66,-0.19448750510381016,0.8402107217946996,-0.42721126964873946,-0.2714978534442541,-173.03978423748313,38.491997432874754,-51.47008614306945,1
1767129971.541,2,right_wrist,-0.122,0.0176,-0.9653,1.19,-2.94,-0.56,0.05898897969276396,0.5761997031327112,0.8145834443073806,-0.031112933723882536,179.00052538507276,7.582718738577751,109.38602212565435,1
1767129971.568,1,left_wrist,-0.082,0.1318,-0.9736,0.77,-25.27,-2.66,-0.19448750510381016,0.8402107217946996,-0.42721126964873946,-0.2714978534442541,-173.03978423748313,38.491997432874754,-51.47008614306945,1
1767129971.568,2,right_wrist,-0.122,0.0176,-0.9653,1.19,-2.94,-0.56,0.05898897969276396,0.5761997031327112,0.8145834443073806,-0.031112933723882536,179.00052538507276,7.582718738577751,109.38602212565435,1
1767129971.594,1,left_wrist,-0.082,0.1318,-0.9736,0.77,-25.27,-2.66,-0.19448750510381016,0.8402107217946996,-0.42721126964873946,-0.2714978534442541,-173.03978423748313,38.491997432874754,-51.47008614306945,1
1767129971.594,2,right_wrist,-0.122,0.0176,-0.9653,1.19,-2.94,-0.56,0.05898897969276396,0.5761997031327112,0.8145834443073806,-0.031112933723882536,179.00052538507276,7.582718738577751,109.38602212565435,1
1767129971.623,1,left_wrist,-0.082,0.1318,-0.9736,0.77,-25.27,-2.66,-0.19448750510381016,0.8402107217946996,-0.42721126964873946,-0.2714978534442541,-173.03978423748313,38.491997432874754,-51.47008614306945,1
1767129971.623,2,right_wrist,-0.122,0.0176,-0.9653,1.19,-2.94,-0.56,0.05898897969276396,0.5761997031327112,0.8145834443073806,-0.031112933723882536,179.00052538507276,7.582718738577751,109.38602212565435,1
1767129971.637,1,left_wrist,-0.082,0.1318,-0.9736,0.77,-25.27,-2.66,-0.19448750510381016,0.8402107217946996,-0.42721126964873946,-0.2714978534442541,-173.03978423748313,38.491997432874754,-51.47008614306945,1
1767129971.637,2,right_wrist,-0.122,0.0176,-0.9653,1.19,-2.94,-0.56,0.05898897969276396,0.5761997031327112,0.8145834443073806,-0.031112933723882536,179.00052538507276,7.582718738577751,109.38602212565435,1
1767129971.651,1,left_wrist,-0.082,0.1318,-0.9736,0.77,-25.27,-2.66,-0.19448750510381016,0.8402107217946996,-0.42721126964873946,-0.2714978534442541,-173.03978423748313,38.491997432874754,-51.47008614306945,1
1767129971.651,2,right_wrist,-0.122,0.0176,-0.9653,1.19,-2.94,-0.56,0.05898897969276396,0.5761997031327112,0.8145834443073806,-0.031112933723882536,179.00052538507276,7.582718738577751,109.38602212565435,1
1767129971.665,1,left_wrist,-0.082,0.1318,-0.9736,0.77,-25.27,-2.66,-0.19448750510381016,0.8402107217946996,-0.42721126964873946,-0.2714978534442541,-173.03978423748313,38.491997432874754,-51.47008614306945,1
1767129971.665,2,right_wrist,-0.122,0.0176,-0.9653,1.19,-2.94,-0.56,0.05898897969276396,0.5761997031327112,0.8145834443073806,-0.031112933723882536,179.00052538507276,7.582718738577751,109.38602212565435,1
1767129971.68,1,left_wrist,-0.082,0.1318,-0.9736,0.77,-25.27,-2.66,-0.19448750510381016,0.8402107217946996,-0.42721126964873946,-0.2714978534442541,-173.03978423748313,38.491997432874754,-51.47008614306945,2
1767129971.68,2,right_wrist,-0.122,0.0176,-0.9653,1.19,-2.94,-0.56,0.05898897969276396,0.5761997031327112,0.8145834443073806,-0.031112933723882536,179.00052538507276,7.582718738577751,109.38602212565435,2
1767129971.695,1,left_wrist,-0.082,0.1318,-0.9736,0.77,-25.27,-2.66,-0.19448750510381016,0.8402107217946996,-0.42721126964873946,-0.2714978534442541,-173.03978423748313,38.491997432874754,-51.47008614306945,2
1767129971.695,2,right_wrist,-0.122,0.0176,-0.9653,1.19,-2.94,-0.56,0.05898897969276396,0.5761997031327112,0.8145834443073806,-0.031112933723882536,179.00052538507276,7.582718738577751,109.38602212565435,2
1767129971.715,1,left_wrist,-0.082,0.1318,-0.9736,0.77,-25.27,-2.66,-0.19448750510381016,0.8402107217946996,-0.42721126964873946,-0.2714978534442541,-173.03978423748313,38.491997432874754,-51.47008614306945,2
1767129971.715,2,right_wrist,-0.122,0.0176,-0.9653,1.19,-2.94,-0.56,0.05898897969276396,0.5761997031327112,0.8145834443073806,-0.031112933723882536,179.00052538507276,7.582718738577751,109.38602212565435,2
1767129971.732,1,left_wrist,-0.082,0.1318,-0.9736,0.77,-25.27,-2.66,-0.19448750510381016,0.8402107217946996,-0.42721126964873946,-0.2714978534442541,-173.03978423748313,38.491997432874754,-51.47008614306945,2
1767129971.732,2,right_wrist,-0.122,0.0176,-0.9653,1.19,-2.94,-0.56,0.05898897969276396,0.5761997031327112,0.8145834443073806,-0.031112933723882536,179.00052538507276,7.582718738577751,109.38602212565435,2
1767129971.749,1,left_wrist,-0.082,0.1318,-0.9736,0.77,-25.27,-2.66,-0.19448750510381016,0.8402107217946996,-0.42721126964873946,-0.2714978534442541,-173.03978423748313,38.491997432874754,-51.47008614306945,2
1767129971.749,2,right_wrist,-0.122,0.0176,-0.9653,1.19,-2.94,-0.56,0.05898897969276396,0.5761997031327112,0.8145834443073806,-0.031112933723882536,179.00052538507276,7.582718738577751,109.38602212565435,2
1767129971.766,1,left_wrist,-0.082,0.1318,-0.9736,0.77,-25.27,-2.66,-0.19448750510381016,0.8402107217946996,-0.42721126964873946,-0.2714978534442541,-173.03978423748313,38.491997432874754,-51.47008614306945,2
1767129971.766,2,right_wrist,-0.122,0.0176,-0.9653,1.19,-2.94,-0.56,0.05898897969276396,0.5761997031327112,0.8145834443073806,-0.031112933723882536,179.00052538507276,7.582718738577751,109.38602212565435,2
1767129971.784,1,left_wrist,-0.082,0.1318,-0.9736,0.77,-25.27,-2.66,-0.19448750510381016,0.8402107217946996,-0.42721126964873946,-0.2714978534442541,-173.03978423748313,38.491997432874754,-51.47008614306945,2
1767129971.784,2,right_wrist,-0.122,0.0176,-0.9653,1.19,-2.94,-0.56,0.05898897969276396,0.5761997031327112,0.8145834443073806,-0.031112933723882536,179.00052538507276,7.582718738577751,109.38602212565435,2
1767129971.804,1,left_wrist,-0.082,0.1318,-0.9736,0.77,-25.27,-2.66,-0.19448750510381016,0.8402107217946996,-0.42721126964873946,-0.2714978534442541,-173.03978423748313,38.491997432874754,-51.47008614306945,2
1767129971.804,2,right_wrist,-0.122,0.0176,-0.9653,1.19,-2.94,-0.56,0.05898897969276396,0.5761997031327112,0.8145834443073806,-0.031112933723882536,179.00052538507276,7.582718738577751,109.38602212565435,2
1767129971.824,1,left_wrist,-0.082,0.1318,-0.9736,0.77,-25.27,-2.66,-0.19448750510381016,0.8402107217946996,-0.42721126964873946,-0.2714978534442541,-173.03978423748313,38.491997432874754,-51.47008614306945,2
1767129971.824,2,right_wrist,-0.122,0.0176,-0.9653,1.19,-2.94,-0.56,0.05898897969276396,0.5761997031327112,0.8145834443073806,-0.031112933723882536,179.00052538507276,7.582718738577751,109.38602212565435,2
1767129971.845,1,left_wrist,-0.082,0.1318,-0.9736,0.77,-25.27,-2.66,-0.19448750510381016,0.8402107217946996,-0.42721126964873946,-0.2714978534442541,-173.03978423748313,38.491997432874754,-51.47008614306945,2
1767129971.845,2,right_wrist,-0.122,0.0176,-0.9653,1.19,-2.94,-0.56,0.05898897969276396,0.5761997031327112,0.8145834443073806,-0.031112933723882536,179.00052538507276,7.582718738577751,109.38602212565435,2
1767129971.867,1,left_wrist,-0.082,0.1318,-0.9736,0.77,-25.27,-2.66,-0.19448750510381016,0.8402107217946996,-0.42721126964873946,-0.2714978534442541,-173.03978423748313,38.491997432874754,-51.47008614306945,2
1767129971.867,2,right_wrist,-0.122,0.0176,-0.9653,1.19,-2.94,-0.56,0.05898897969276396,0.5761997031327112,0.8145834443073806,-0.031112933723882536,179.00052538507276,7.582718738577751,109.38602212565435,2
1767129971.889,1,left_wrist,-0.082,0.1318,-0.9736,0.77,-25.27,-2.66,-0.19448750510381016,0.8402107217946996,-0.42721126964873946,-0.2714978534442541,-173.03978423748313,38.491997432874754,-51.47008614306945,2
1767129971.889,2,right_wrist,-0.122,0.0176,-0.9653,1.19,-2.94,-0.56,0.05898897969276396,0.5761997031327112,0.8145834443073806,-0.031112933723882536,179.00052538507276,7.582718738577751,109.38602212565435,2
1767129971.903,1,left_wrist,-0.082,0.1318,-0.9736,0.77,-25.27,-2.66,-0.19448750510381016,0.8402107217946996,-0.42721126964873946,-0.2714978534442541,-173.03978423748313,38.491997432874754,-51.47008614306945,2
1767129971.903,2,right_wrist,-0.122,0.0176,-0.9653,1.19,-2.94,-0.56,0.05898897969276396,0.5761997031327112,0.8145834443073806,-0.031112933723882536,179.00052538507276,7.582718738577751,109.38602212565435,2
1767129971.917,1,left_wrist,-0.082,0.1318,-0.9736,0.77,-25.27,-2.66,-0.19448750510381016,0.8402107217946996,-0.42721126964873946,-0.2714978534442541,-173.03978423748313,38.491997432874754,-51.47008614306945,2
1767129971.917,2,right_wrist,-0.122,0.0176,-0.9653,1.19,-2.94,-0.56,0.05898897969276396,0.5761997031327112,0.8145834443073806,-0.031112933723882536,179.00052538507276,7.582718738577751,109.38602212565435,2
1767129971.932,1,left_wrist,-0.082,0.1318,-0.9736,0.77,-25.27,-2.66,-0.19448750510381016,0.8402107217946996,-0.42721126964873946,-0.2714978534442541,-173.03978423748313,38.491997432874754,-51.47008614306945,2
1767129971.932,2,right_wrist,-0.122,0.0176,-0.9653,1.19,-2.94,-0.56,0.05898897969276396,0.5761997031327112,0.8145834443073806,-0.031112933723882536,179.00052538507276,7.582718738577751,109.38602212565435,2
1767129971.946,1,left_wrist,-0.082,0.1318,-0.9736,0.77,-25.27,-2.66,-0.19448750510381016,0.8402107217946996,-0.42721126964873946,-0.2714978534442541,-173.03978423748313,38.491997432874754,-51.47008614306945,2
1767129971.946,2,right_wrist,-0.122,0.0176,-0.9653,1.19,-2.94,-0.56,0.05898897969276396,0.5761997031327112,0.8145834443073806,-0.031112933723882536,179.00052538507276,7.582718738577751,109.38602212565435,2
1767129971.96,1,left_wrist,-0.082,0.1318,-0.9736,0.77,-25.27,-2.66,-0.19448750510381016,0.8402107217946996,-0.42721126964873946,-0.2714978534442541,-173.03978423748313,38.491997432874754,-51.47008614306945,2
1767129971.96,2,right_wrist,-0.122,0.0176,-0.9653,1.19,-2.94,-0.56,0.05898897969276396,0.5761997031327112,0.8145834443073806,-0.031112933723882536,179.00052538507276,7.582718738577751,109.38602212565435,2
1767129971.975,1,left_wrist,-0.082,0.1318,-0.9736,0.77,-25.27,-2.66,-0.19448750510381016,0.8402107217946996,-0.42721126964873946,-0.2714978534442541,-173.03978423748313,38.491997432874754,-51.47008614306945,2
1767129971.975,2,right_wrist,-0.122,0.0176,-0.9653,1.19,-2.94,-0.56,0.05898897969276396,0.5761997031327112,0.8145834443073806,-0.031112933723882536,179.00052538507276,7.582718738577751,109.38602212565435,2
1767129971.993,1,left_wrist,-0.082,0.1318,-0.9736,0.77,-25.27,-2.66,-0.19448750510381016,0.8402107217946996,-0.42721126964873946,-0.2714978534442541,-173.03978423748313,38.491997432874754,-51.47008614306945,2
1767129971.993,2,right_wrist,-0.122,0.0176,-0.9653,1.19,-2.94,-0.56,0.05898897969276396,0.5761997031327112,0.8145834443073806,-0.031112933723882536,179.00052538507276,7.582718738577751,109.38602212565435,2
1767129972.01,1,left_wrist,-0.082,0.1318,-0.9736,0.77,-25.27,-2.66,-0.19448750510381016,0.8402107217946996,-0.42721126964873946,-0.2714978534442541,-173.03978423748313,38.491997432874754,-51.47008614306945,2
1767129972.01,2,right_wrist,-0.122,0.0176,-0.9653,1.19,-2.94,-0.56,0.05898897969276396,0.5761997031327112,0.8145834443073806,-0.031112933723882536,179.00052538507276,7.582718738577751,109.38602212565435,2
1767129972.027,1,left_wrist,-0.082,0.1318,-0.9736,0.77,-25.27,-2.66,-0.19448750510381016,0.8402107217946996,-0.42721126964873946,-0.2714978534442541,-173.03978423748313,38.491997432874754,-51.47008614306945,2
1767129972.027,2,right_wrist,-0.122,0.0176,-0.9653,1.19,-2.94,-0.56,0.05898897969276396,0.5761997031327112,0.8145834443073806,-0.031112933723882536,179.00052538507276,7.582718738577751,109.38602212565435,2
1767129972.045,1,left_wrist,-0.082,0.1318,-0.9736,0.77,-25.27,-2.66,-0.19448750510381016,0.8402107217946996,-0.42721126964873946,-0.2714978534442541,-173.03978423748313,38.491997432874754,-51.47008614306945,2
1767129972.045,2,right_wrist,-0.122,0.0176,-0.9653,1.19,-2.94,-0.56,0.05898897969276396,0.5761997031327112,0.8145834443073806,-0.031112933723882536,179.00052538507276,7.582718738577751,109.38602212565435,2
1767129972.064,1,left_wrist,-0.082,0.1318,-0.9736,0.77,-25.27,-2.66,-0.19448750510381016,0.8402107217946996,-0.42721126964873946,-0.2714978534442541,-173.03978423748313,38.491997432874754,-51.47008614306945,2
1767129972.064,2,right_wrist,-0.122,0.0176,-0.9653,1.19,-2.94,-0.56,0.05898897969276396,0.5761997031327112,0.8145834443073806,-0.031112933723882536,179.00052538507276,7.582718738577751,109.38602212565435,2
1767129972.084,1,left_wrist,-0.082,0.1318,-0.9736,0.77,-25.27,-2.66,-0.19448750510381016,0.8402107217946996,-0.42721126964873946,-0.2714978534442541,-173.03978423748313,38.491997432874754,-51.47008614306945,2
1767129972.084,2,right_wrist,-0.122,0.0176,-0.9653,1.19,-2.94,-0.56,0.05898897969276396,0.5761997031327112,0.8145834443073806,-0.031112933723882536,179.00052538507276,7.582718738577751,109.38602212565435,2
1767129972.106,1,left_wrist,-0.082,0.1318,-0.9736,0.77,-25.27,-2.66,-0.19448750510381016,0.8402107217946996,-0.42721126964873946,-0.2714978534442541,-173.03978423748313,38.491997432874754,-51.47008614306945,2
1767129972.106,2,right_wrist,-0.122,0.0176,-0.9653,1.19,-2.94,-0.56,0.05898897969276396,0.5761997031327112,0.8145834443073806,-0.031112933723882536,179.00052538507276,7.582718738577751,109.38602212565435,2
1767129972.119,1,left_wrist,-0.082,0.1318,-0.9736,0.77,-25.27,-2.66,-0.19448750510381016,0.8402107217946996,-0.42721126964873946,-0.2714978534442541,-173.03978423748313,38.491997432874754,-51.47008614306945,2
1767129972.119,2,right_wrist,-0.122,0.0176,-0.9653,1.19,-2.94,-0.56,0.05898897969276396,0.5761997031327112,0.8145834443073806,-0.031112933723882536,179.00052538507276,7.582718738577751,109.38602212565435,2
1767129972.134,1,left_wrist,-0.082,0.1318,-0.9736,0.77,-25.27,-2.66,-0.19448750510381016,0.8402107217946996,-0.42721126964873946,-0.2714978534442541,-173.03978423748313,38.491997432874754,-51.47008614306945,2
1767129972.134,2,right_wrist,-0.122,0.0176,-0.9653,1.19,-2.94,-0.56,0.05898897969276396,0.5761997031327112,0.8145834443073806,-0.031112933723882536,179.00052538507276,7.582718738577751,109.38602212565435,2
1767129972.148,1,left_wrist,-0.082,0.1318,-0.9736,0.77,-25.27,-2.66,-0.19448750510381016,0.8402107217946996,-0.42721126964873946,-0.2714978534442541,-173.03978423748313,38.491997432874754,-51.47008614306945,2
1767129972.148,2,right_wrist,-0.122,0.0176,-0.9653,1.19,-2.94,-0.56,0.05898897969276396,0.5761997031327112,0.8145834443073806,-0.031112933723882536,179.00052538507276,7.582718738577751,109.38602212565435,2
1767129972.162,1,left_wrist,-0.082,0.1318,-0.9736,0.77,-25.27,-2.66,-0.19448750510381016,0.8402107217946996,-0.42721126964873946,-0.2714978534442541,-173.03978423748313,38.491997432874754,-51.47008614306945,2
1767129972.162,2,right_wrist,-0.122,0.0176,-0.9653,1.19,-2.94,-0.56,0.05898897969276396,0.5761997031327112,0.8145834443073806,-0.031112933723882536,179.00052538507276,7.582718738577751,109.38602212565435,2
1767129972.175,1,left_wrist,-0.082,0.1318,-0.9736,0.77,-25.27,-2.66,-0.19448750510381016,0.8402107217946996,-0.42721126964873946,-0.2714978534442541,-173.03978423748313,38.491997432874754,-51.47008614306945,2
1767129972.175,2,right_wrist,-0.122,0.0176,-0.9653,1.19,-2.94,-0.56,0.05898897969276396,0.5761997031327112,0.8145834443073806,-0.031112933723882536,179.00052538507276,7.582718738577751,109.38602212565435,2
1767129972.192,1,left_wrist,-0.082,0.1318,-0.9736,0.77,-25.27,-2.66,-0.19448750510381016,0.8402107217946996,-0.42721126964873946,-0.2714978534442541,-173.03978423748313,38.491997432874754,-51.47008614306945,2
1767129972.192,2,right_wrist,-0.122,0.0176,-0.9653,1.19,-2.94,-0.56,0.05898897969276396,0.5761997031327112,0.8145834443073806,-0.031112933723882536,179.00052538507276,7.582718738577751,109.38602212565435,2
1767129972.21,1,left_wrist,-0.082,0.1318,-0.9736,0.77,-25.27,-2.66,-0.19448750510381016,0.8402107217946996,-0.42721126964873946,-0.2714978534442541,-173.03978423748313,38.491997432874754,-51.47008614306945,2
1767129972.21,2,right_wrist,-0.122,0.0176,-0.9653,1.19,-2.94,-0.56,0.05898897969276396,0.5761997031327112,0.8145834443073806,-0.031112933723882536,179.00052538507276,7.582718738577751,109.38602212565435,2
1767129972.227,1,left_wrist,-0.082,0.1318,-0.9736,0.77,-25.27,-2.66,-0.19448750510381016,0.8402107217946996,-0.42721126964873946,-0.2714978534442541,-173.03978423748313,38.491997432874754,-51.47008614306945,2
1767129972.227,2,right_wrist,-0.122,0.0176,-0.9653,1.19,-2.94,-0.56,0.05898897969276396,0.5761997031327112,0.8145834443073806,-0.031112933723882536,179.00052538507276,7.582718738577751,109.38602212565435,2
1767129972.243,1,left_wrist,-0.082,0.1318,-0.9736,0.77,-25.27,-2.66,-0.19448750510381016,0.8402107217946996,-0.42721126964873946,-0.2714978534442541,-173.03978423748313,38.491997432874754,-51.47008614306945,2
1767129972.243,2,right_wrist,-0.122,0.0176,-0.9653,1.19,-2.94,-0.56,0.05898897969276396,0.5761997031327112,0.8145834443073806,-0.031112933723882536,179.00052538507276,7.582718738577751,109.38602212565435,2
1767129972.271,1,left_wrist,-0.082,0.1318,-0.9736,0.77,-25.27,-2.66,-0.19448750510381016,0.8402107217946996,-0.42721126964873946,-0.2714978534442541,-173.03978423748313,38.491997432874754,-51.47008614306945,2
1767129972.271,2,right_wrist,-0.122,0.0176,-0.9653,1.19,-2.94,-0.56,0.05898897969276396,0.5761997031327112,0.8145834443073806,-0.031112933723882536,179.00052538507276,7.582718738577751,109.38602212565435,2
1767129972.301,1,left_wrist,-0.082,0.1318,-0.9736,0.77,-25.27,-2.66,-0.19448750510381016,0.8402107217946996,-0.42721126964873946,-0.2714978534442541,-173.03978423748313,38.491997432874754,-51.47008614306945,2
1767129972.301,2,right_wrist,-0.122,0.0176,-0.9653,1.19,-2.94,-0.56,0.05898897969276396,0.5761997031327112,0.8145834443073806,-0.031112933723882536,179.00052538507276,7.582718738577751,109.38602212565435,2
1767129972.331,1,left_wrist,-0.082,0.1318,-0.9736,0.77,-25.27,-2.66,-0.19448750510381016,0.8402107217946996,-0.42721126964873946,-0.2714978534442541,-173.03978423748313,38.491997432874754,-51.47008614306945,2
1767129972.331,2,right_wrist,-0.122,0.0176,-0.9653,1.19,-2.94,-0.56,0.05898897969276396,0.5761997031327112,0.8145834443073806,-0.031112933723882536,179.00052538507276,7.582718738577751,109.38602212565435,2
1767129972.361,1,left_wrist,-0.082,0.1318,-0.9736,0.77,-25.27,-2.66,-0.19448750510381016,0.8402107217946996,-0.42721126964873946,-0.2714978534442541,-173.03978423748313,38.491997432874754,-51.47008614306945,2
1767129972.361,2,right_wrist,-0.122,0.0176,-0.9653,1.19,-2.94,-0.56,0.05898897969276396,0.5761997031327112,0.8145834443073806,-0.031112933723882536,179.00052538507276,7.582718738577751,109.38602212565435,2
1767129972.391,1,left_wrist,-0.082,0.1318,-0.9736,0.77,-25.27,-2.66,-0.19448750510381016,0.8402107217946996,-0.42721126964873946,-0.2714978534442541,-173.03978423748313,38.491997432874754,-51.47008614306945,2
1767129972.391,2,right_wrist,-0.122,0.0176,-0.9653,1.19,-2.94,-0.56,0.05898897969276396,0.5761997031327112,0.8145834443073806,-0.031112933723882536,179.00052538507276,7.582718738577751,109.38602212565435,2
1767129972.415,1,left_wrist,-0.082,0.1318,-0.9736,0.77,-25.27,-2.66,-0.19448750510381016,0.8402107217946996,-0.42721126964873946,-0.2714978534442541,-173.03978423748313,38.491997432874754,-51.47008614306945,2
1767129972.415,2,right_wrist,-0.122,0.0176,-0.9653,1.19,-2.94,-0.56,0.05898897969276396,0.5761997031327112,0.8145834443073806,-0.031112933723882536,179.00052538507276,7.582718738577751,109.38602212565435,2
1767129972.439,1,left_wrist,-0.082,0.1318,-0.9736,0.77,-25.27,-2.66,-0.19448750510381016,0.8402107217946996,-0.42721126964873946,-0.2714978534442541,-173.03978423748313,38.491997432874754,-51.47008614306945,2
1767129972.439,2,right_wrist,-0.122,0.0176,-0.9653,1.19,-2.94,-0.56,0.05898897969276396,0.5761997031327112,0.8145834443073806,-0.031112933723882536,179.00052538507276,7.582718738577751,109.38602212565435,2
1767129972.464,1,left_wrist,-0.082,0.1318,-0.9736,0.77,-25.27,-2.66,-0.19448750510381016,0.8402107217946996,-0.42721126964873946,-0.2714978534442541,-173.03978423748313,38.491997432874754,-51.47008614306945,2
1767129972.464,2,right_wrist,-0.122,0.0176,-0.9653,1.19,-2.94,-0.56,0.05898897969276396,0.5761997031327112,0.8145834443073806,-0.031112933723882536,179.00052538507276,7.582718738577751,109.38602212565435,2
1767129972.488,1,left_wrist,-0.082,0.1318,-0.9736,0.77,-25.27,-2.66,-0.19448750510381016,0.8402107217946996,-0.42721126964873946,-0.2714978534442541,-173.03978423748313,38.491997432874754,-51.47008614306945,2
1767129972.488,2,right_wrist,-0.122,0.0176,-0.9653,1.19,-2.94,-0.56,0.05898897969276396,0.5761997031327112,0.8145834443073806,-0.031112933723882536,179.00052538507276,7.582718738577751,109.38602212565435,2
1767129972.521,1,left_wrist,-0.082,0.1318,-0.9736,0.77,-25.27,-2.66,-0.19448750510381016,0.8402107217946996,-0.42721126964873946,-0.2714978534442541,-173.03978423748313,38.491997432874754,-51.47008614306945,2
1767129972.521,2,right_wrist,-0.122,0.0176,-0.9653,1.19,-2.94,-0.56,0.05898897969276396,0.5761997031327112,0.8145834443073806,-0.031112933723882536,179.00052538507276,7.582718738577751,109.38602212565435,2
1767129972.545,1,left_wrist,-0.082,0.1318,-0.9736,0.77,-25.27,-2.66,-0.19448750510381016,0.8402107217946996,-0.42721126964873946,-0.2714978534442541,-173.03978423748313,38.491997432874754,-51.47008614306945,2
1767129972.545,2,right_wrist,-0.122,0.0176,-0.9653,1.19,-2.94,-0.56,0.05898897969276396,0.5761997031327112,0.8145834443073806,-0.031112933723882536,179.00052538507276,7.582718738577751,109.38602212565435,2
1767129972.569,1,left_wrist,-0.082,0.1318,-0.9736,0.77,-25.27,-2.66,-0.19448750510381016,0.8402107217946996,-0.42721126964873946,-0.2714978534442541,-173.03978423748313,38.491997432874754,-51.47008614306945,2
1767129972.569,2,right_wrist,-0.122,0.0176,-0.9653,1.19,-2.94,-0.56,0.05898897969276396,0.5761997031327112,0.8145834443073806,-0.031112933723882536,179.00052538507276,7.582718738577751,109.38602212565435,2
1767129972.592,1,left_wrist,-0.082,0.1318,-0.9736,0.77,-25.27,-2.66,-0.19448750510381016,0.8402107217946996,-0.42721126964873946,-0.2714978534442541,-173.03978423748313,38.491997432874754,-51.47008614306945,2
1767129972.592,2,right_wrist,-0.122,0.0176,-0.9653,1.19,-2.94,-0.56,0.05898897969276396,0.5761997031327112,0.8145834443073806,-0.031112933723882536,179.00052538507276,7.582718738577751,109.38602212565435,2
1767129972.618,1,left_wrist,-0.082,0.1318,-0.9736,0.77,-25.27,-2.66,-0.19448750510381016,0.8402107217946996,-0.42721126964873946,-0.2714978534442541,-173.03978423748313,38.491997432874754,-51.47008614306945,2
1767129972.618,2,right_wrist,-0.122,0.0176,-0.9653,1.19,-2.94,-0.56,0.05898897969276396,0.5761997031327112,0.8145834443073806,-0.031112933723882536,179.00052538507276,7.582718738577751,109.38602212565435,2
1767129972.643,1,left_wrist,-0.082,0.1318,-0.9736,0.77,-25.27,-2.66,-0.19448750510381016,0.8402107217946996,-0.42721126964873946,-0.2714978534442541,-173.03978423748313,38.491997432874754,-51.47008614306945,2
1767129972.643,2,right_wrist,-0.122,0.0176,-0.9653,1.19,-2.94,-0.56,0.05898897969276396,0.5761997031327112,0.8145834443073806,-0.031112933723882536,179.00052538507276,7.582718738577751,109.38602212565435,2
1767129972.662,1,left_wrist,-0.082,0.1318,-0.9736,0.77,-25.27,-2.66,-0.19448750510381016,0.8402107217946996,-0.42721126964873946,-0.2714978534442541,-173.03978423748313,38.491997432874754,-51.47008614306945,2
1767129972.662,2,right_wrist,-0.122,0.0176,-0.9653,1.19,-2.94,-0.56,0.05898897969276396,0.5761997031327112,0.8145834443073806,-0.031112933723882536,179.00052538507276,7.582718738577751,109.38602212565435,2
1767129972.683,1,left_wrist,-0.082,0.1318,-0.9736,0.77,-25.27,-2.66,-0.19448750510381016,0.8402107217946996,-0.42721126964873946,-0.2714978534442541,-173.03978423748313,38.491997432874754,-51.47008614306945,2
1767129972.683,2,right_wrist,-0.122,0.0176,-0.9653,1.19,-2.94,-0.56,0.05898897969276396,0.5761997031327112,0.8145834443073806,-0.031112933723882536,179.00052538507276,7.582718738577751,109.38602212565435,2
1767129972.703,1,left_wrist,-0.082,0.1318,-0.9736,0.77,-25.27,-2.66,-0.19448750510381016,0.8402107217946996,-0.42721126964873946,-0.2714978534442541,-173.03978423748313,38.491997432874754,-51.47008614306945,2
1767129972.703,2,right_wrist,-0.122,0.0176,-0.9653,1.19,-2.94,-0.56,0.05898897969276396,0.5761997031327112,0.8145834443073806,-0.031112933723882536,179.00052538507276,7.582718738577751,109.38602212565435,2
1767129972.715,1,left_wrist,-0.082,0.1318,-0.9736,0.77,-25.27,-2.66,-0.19448750510381016,0.8402107217946996,-0.42721126964873946,-0.2714978534442541,-173.03978423748313,38.491997432874754,-51.47008614306945,2
1767129972.715,2,right_wrist,-0.122,0.0176,-0.9653,1.19,-2.94,-0.56,0.05898897969276396,0.5761997031327112,0.8145834443073806,-0.031112933723882536,179.00052538507276,7.582718738577751,109.38602212565435,2
1767129972.727,1,left_wrist,-0.082,0.1318,-0.9736,0.77,-25.27,-2.66,-0.19448750510381016,0.8402107217946996,-0.42721126964873946,-0.2714978534442541,-173.03978423748313,38.491997432874754,-51.47008614306945,2
1767129972.727,2,right_wrist,-0.122,0.0176,-0.9653,1.19,-2.94,-0.56,0.05898897969276396,0.5761997031327112,0.8145834443073806,-0.031112933723882536,179.00052538507276,7.582718738577751,109.38602212565435,2
1767129972.742,1,left_wrist,-0.082,0.1318,-0.9736,0.77,-25.27,-2.66,-0.19448750510381016,0.8402107217946996,-0.42721126964873946,-0.2714978534442541,-173.03978423748313,38.491997432874754,-51.47008614306945,2
1767129972.742,2,right_wrist,-0.122,0.0176,-0.9653,1.19,-2.94,-0.56,0.05898897969276396,0.5761997031327112,0.8145834443073806,-0.031112933723882536,179.00052538507276,7.582718738577751,109.38602212565435,2
1767129972.759,1,left_wrist,-0.082,0.1318,-0.9736,0.77,-25.27,-2.66,-0.19448750510381016,0.8402107217946996,-0.42721126964873946,-0.2714978534442541,-173.03978423748313,38.491997432874754,-51.47008614306945,2
1767129972.759,2,right_wrist,-0.122,0.0176,-0.9653,1.19,-2.94,-0.56,0.05898897969276396,0.5761997031327112,0.8145834443073806,-0.031112933723882536,179.00052538507276,7.582718738577751,109.38602212565435,2
1767129972.776,1,left_wrist,-0.082,0.1318,-0.9736,0.77,-25.27,-2.66,-0.19448750510381016,0.8402107217946996,-0.42721126964873946,-0.2714978534442541,-173.03978423748313,38.491997432874754,-51.47008614306945,2
1767129972.776,2,right_wrist,-0.122,0.0176,-0.9653,1.19,-2.94,-0.56,0.05898897969276396,0.5761997031327112,0.8145834443073806,-0.031112933723882536,179.00052538507276,7.582718738577751,109.38602212565435,2
1767129972.792,1,left_wrist,-0.082,0.1318,-0.9736,0.77,-25.27,-2.66,-0.19448750510381016,0.8402107217946996,-0.42721126964873946,-0.2714978534442541,-173.03978423748313,38.491997432874754,-51.47008614306945,2
1767129972.792,2,right_wrist,-0.122,0.0176,-0.9653,1.19,-2.94,-0.56,0.05898897969276396,0.5761997031327112,0.8145834443073806,-0.031112933723882536,179.00052538507276,7.582718738577751,109.38602212565435,2
1767129972.809,1,left_wrist,-0.082,0.1318,-0.9736,0.77,-25.27,-2.66,-0.19448750510381016,0.8402107217946996,-0.42721126964873946,-0.2714978534442541,-173.03978423748313,38.491997432874754,-51.47008614306945,2
1767129972.809,2,right_wrist,-0.122,0.0176,-0.9653,1.19,-2.94,-0.56,0.05898897969276396,0.5761997031327112,0.8145834443073806,-0.031112933723882536,179.00052538507276,7.582718738577751,109.38602212565435,2
1767129972.826,1,left_wrist,-0.082,0.1318,-0.9736,0.77,-25.27,-2.66,-0.19448750510381016,0.8402107217946996,-0.42721126964873946,-0.2714978534442541,-173.03978423748313,38.491997432874754,-51.47008614306945,2
1767129972.826,2,right_wrist,-0.122,0.0176,-0.9653,1.19,-2.94,-0.56,0.05898897969276396,0.5761997031327112,0.8145834443073806,-0.031112933723882536,179.00052538507276,7.582718738577751,109.38602212565435,2
1767129972.844,1,left_wrist,-0.082,0.1318,-0.9736,0.77,-25.27,-2.66,-0.19448750510381016,0.8402107217946996,-0.42721126964873946,-0.2714978534442541,-173.03978423748313,38.491997432874754,-51.47008614306945,2
1767129972.844,2,right_wrist,-0.122,0.0176,-0.9653,1.19,-2.94,-0.56,0.05898897969276396,0.5761997031327112,0.8145834443073806,-0.031112933723882536,179.00052538507276,7.582718738577751,109.38602212565435,2
1767129972.863,1,left_wrist,-0.082,0.1318,-0.9736,0.77,-25.27,-2.66,-0.19448750510381016,0.8402107217946996,-0.42721126964873946,-0.2714978534442541,-173.03978423748313,38.491997432874754,-51.47008614306945,2
1767129972.863,2,right_wrist,-0.122,0.0176,-0.9653,1.19,-2.94,-0.56,0.05898897969276396,0.5761997031327112,0.8145834443073806,-0.031112933723882536,179.00052538507276,7.582718738577751,109.38602212565435,2
1767129972.88,1,left_wrist,-0.082,0.1318,-0.9736,0.77,-25.27,-2.66,-0.19448750510381016,0.8402107217946996,-0.42721126964873946,-0.2714978534442541,-173.03978423748313,38.491997432874754,-51.47008614306945,2
1767129972.88,2,right_wrist,-0.122,0.0176,-0.9653,1.19,-2.94,-0.56,0.05898897969276396,0.5761997031327112,0.8145834443073806,-0.031112933723882536,179.00052538507276,7.582718738577751,109.38602212565435,2
1767129972.901,1,left_wrist,-0.082,0.1318,-0.9736,0.77,-25.27,-2.66,-0.19448750510381016,0.8402107217946996,-0.42721126964873946,-0.2714978534442541,-173.03978423748313,38.491997432874754,-51.47008614306945,2
1767129972.901,2,right_wrist,-0.122,0.0176,-0.9653,1.19,-2.94,-0.56,0.05898897969276396,0.5761997031327112,0.8145834443073806,-0.031112933723882536,179.00052538507276,7.582718738577751,109.38602212565435,2
1767129972.922,1,left_wrist,-0.082,0.1318,-0.9736,0.77,-25.27,-2.66,-0.19448750510381016,0.8402107217946996,-0.42721126964873946,-0.2714978534442541,-173.03978423748313,38.491997432874754,-51.47008614306945,2
1767129972.922,2,right_wrist,-0.122,0.0176,-0.9653,1.19,-2.94,-0.56,0.05898897969276396,0.5761997031327112,0.8145834443073806,-0.031112933723882536,179.00052538507276,7.582718738577751,109.38602212565435,2
1767129972.935,1,left_wrist,-0.082,0.1318,-0.9736,0.77,-25.27,-2.66,-0.19448750510381016,0.8402107217946996,-0.42721126964873946,-0.2714978534442541,-173.03978423748313,38.491997432874754,-51.47008614306945,2
1767129972.935,2,right_wrist,-0.122,0.0176,-0.9653,1.19,-2.94,-0.56,0.05898897969276396,0.5761997031327112,0.8145834443073806,-0.031112933723882536,179.00052538507276,7.582718738577751,109.38602212565435,2
1767129972.948,1,left_wrist,-0.082,0.1318,-0.9736,0.77,-25.27,-2.66,-0.19448750510381016,0.8402107217946996,-0.42721126964873946,-0.2714978534442541,-173.03978423748313,38.491997432874754,-51.47008614306945,2
1767129972.948,2,right_wrist,-0.122,0.0176,-0.9653,1.19,-2.94,-0.56,0.05898897969276396,0.5761997031327112,0.8145834443073806,-0.031112933723882536,179.00052538507276,7.582718738577751,109.38602212565435,2
1767129972.961,1,left_wrist,-0.082,0.1318,-0.9736,0.77,-25.27,-2.66,-0.19448750510381016,0.8402107217946996,-0.42721126964873946,-0.2714978534442541,-173.03978423748313,38.491997432874754,-51.47008614306945,2
1767129972.961,2,right_wrist,-0.122,0.0176,-0.9653,1.19,-2.94,-0.56,0.05898897969276396,0.5761997031327112,0.8145834443073806,-0.031112933723882536,179.00052538507276,7.582718738577751,109.38602212565435,2
1767129972.975,1,left_wrist,-0.082,0.1318,-0.9736,0.77,-25.27,-2.66,-0.19448750510381016,0.8402107217946996,-0.42721126964873946,-0.2714978534442541,-173.03978423748313,38.491997432874754,-51.47008614306945,2
1767129972.975,2,right_wrist,-0.122,0.0176,-0.9653,1.19,-2.94,-0.56,0.05898897969276396,0.5761997031327112,0.8145834443073806,-0.031112933723882536,179.00052538507276,7.582718738577751,109.38602212565435,2
1767129972.991,1,left_wrist,-0.082,0.1318,-0.9736,0.77,-25.27,-2.66,-0.19448750510381016,0.8402107217946996,-0.42721126964873946,-0.2714978534442541,-173.03978423748313,38.491997432874754,-51.47008614306945,2
1767129972.991,2,right_wrist,-0.122,0.0176,-0.9653,1.19,-2.94,-0.56,0.05898897969276396,0.5761997031327112,0.8145834443073806,-0.031112933723882536,179.00052538507276,7.582718738577751,109.38602212565435,2
1767129973.008,1,left_wrist,-0.082,0.1318,-0.9736,0.77,-25.27,-2.66,-0.19448750510381016,0.8402107217946996,-0.42721126964873946,-0.2714978534442541,-173.03978423748313,38.491997432874754,-51.47008614306945,2
1767129973.008,2,right_wrist,-0.122,0.0176,-0.9653,1.19,-2.94,-0.56,0.05898897969276396,0.5761997031327112,0.8145834443073806,-0.031112933723882536,179.00052538507276,7.582718738577751,109.38602212565435,2
1767129973.027,1,left_wrist,-0.082,0.1318,-0.9736,0.77,-25.27,-2.66,-0.19448750510381016,0.8402107217946996,-0.42721126964873946,-0.2714978534442541,-173.03978423748313,38.491997432874754,-51.47008614306945,2
1767129973.027,2,right_wrist,-0.122,0.0176,-0.9653,1.19,-2.94,-0.56,0.05898897969276396,0.5761997031327112,0.8145834443073806,-0.031112933723882536,179.00052538507276,7.582718738577751,109.38602212565435,2
1767129973.043,1,left_wrist,-0.082,0.1318,-0.9736,0.77,-25.27,-2.66,-0.19448750510381016,0.8402107217946996,-0.42721126964873946,-0.2714978534442541,-173.03978423748313,38.491997432874754,-51.47008614306945,2
1767129973.043,2,right_wrist,-0.122,0.0176,-0.9653,1.19,-2.94,-0.56,0.05898897969276396,0.5761997031327112,0.8145834443073806,-0.031112933723882536,179.00052538507276,7.582718738577751,109.38602212565435,2
1767129973.06,1,left_wrist,-0.082,0.1318,-0.9736,0.77,-25.27,-2.66,-0.19448750510381016,0.8402107217946996,-0.42721126964873946,-0.2714978534442541,-173.03978423748313,38.491997432874754,-51.47008614306945,2
1767129973.06,2,right_wrist,-0.122,0.0176,-0.9653,1.19,-2.94,-0.56,0.05898897969276396,0.5761997031327112,0.8145834443073806,-0.031112933723882536,179.00052538507276,7.582718738577751,109.38602212565435,2
1767129973.08,1,left_wrist,-0.082,0.1318,-0.9736,0.77,-25.27,-2.66,-0.19448750510381016,0.8402107217946996,-0.42721126964873946,-0.2714978534442541,-173.03978423748313,38.491997432874754,-51.47008614306945,2
1767129973.08,2,right_wrist,-0.122,0.0176,-0.9653,1.19,-2.94,-0.56,0.05898897969276396,0.5761997031327112,0.8145834443073806,-0.031112933723882536,179.00052538507276,7.582718738577751,109.38602212565435,2
1767129973.099,1,left_wrist,-0.082,0.1318,-0.9736,0.77,-25.27,-2.66,-0.19448750510381016,0.8402107217946996,-0.42721126964873946,-0.2714978534442541,-173.03978423748313,38.491997432874754,-51.47008614306945,2
1767129973.099,2,right_wrist,-0.122,0.0176,-0.9653,1.19,-2.94,-0.56,0.05898897969276396,0.5761997031327112,0.8145834443073806,-0.031112933723882536,179.00052538507276,7.582718738577751,109.38602212565435,2
1767129973.118,1,left_wrist,-0.082,0.1318,-0.9736,0.77,-25.27,-2.66,-0.19448750510381016,0.8402107217946996,-0.42721126964873946,-0.2714978534442541,-173.03978423748313,38.491997432874754,-51.47008614306945,2
1767129973.118,2,right_wrist,-0.122,0.0176,-0.9653,1.19,-2.94,-0.56,0.05898897969276396,0.5761997031327112,0.8145834443073806,-0.031112933723882536,179.00052538507276,7.582718738577751,109.38602212565435,2
1767129973.139,1,left_wrist,-0.082,0.1318,-0.9736,0.77,-25.27,-2.66,-0.19448750510381016,0.8402107217946996,-0.42721126964873946,-0.2714978534442541,-173.03978423748313,38.491997432874754,-51.47008614306945,2
1767129973.139,2,right_wrist,-0.122,0.0176,-0.9653,1.19,-2.94,-0.56,0.05898897969276396,0.5761997031327112,0.8145834443073806,-0.031112933723882536,179.00052538507276,7.582718738577751,109.38602212565435,2
1767129973.153,1,left_wrist,-0.082,0.1318,-0.9736,0.77,-25.27,-2.66,-0.19448750510381016,0.8402107217946996,-0.42721126964873946,-0.2714978534442541,-173.03978423748313,38.491997432874754,-51.47008614306945,2
1767129973.153,2,right_wrist,-0.122,0.0176,-0.9653,1.19,-2.94,-0.56,0.05898897969276396,0.5761997031327112,0.8145834443073806,-0.031112933723882536,179.00052538507276,7.582718738577751,109.38602212565435,2
1767129973.166,1,left_wrist,-0.082,0.1318,-0.9736,0.77,-25.27,-2.66,-0.19448750510381016,0.8402107217946996,-0.42721126964873946,-0.2714978534442541,-173.03978423748313,38.491997432874754,-51.47008614306945,2
1767129973.166,2,right_wrist,-0.122,0.0176,-0.9653,1.19,-2.94,-0.56,0.05898897969276396,0.5761997031327112,0.8145834443073806,-0.031112933723882536,179.00052538507276,7.582718738577751,109.38602212565435,2
1767129973.18,1,left_wrist,-0.082,0.1318,-0.9736,0.77,-25.27,-2.66,-0.19448750510381016,0.8402107217946996,-0.42721126964873946,-0.2714978534442541,-173.03978423748313,38.491997432874754,-51.47008614306945,2
1767129973.18,2,right_wrist,-0.122,0.0176,-0.9653,1.19,-2.94,-0.56,0.05898897969276396,0.5761997031327112,0.8145834443073806,-0.031112933723882536,179.00052538507276,7.582718738577751,109.38602212565435,2
1767129973.194,1,left_wrist,-0.082,0.1318,-0.9736,0.77,-25.27,-2.66,-0.19448750510381016,0.8402107217946996,-0.42721126964873946,-0.2714978534442541,-173.03978423748313,38.491997432874754,-51.47008614306945,2
1767129973.194,2,right_wrist,-0.122,0.0176,-0.9653,1.19,-2.94,-0.56,0.05898897969276396,0.5761997031327112,0.8145834443073806,-0.031112933723882536,179.00052538507276,7.582718738577751,109.38602212565435,2
1767129973.209,1,left_wrist,-0.082,0.1318,-0.9736,0.77,-25.27,-2.66,-0.19448750510381016,0.8402107217946996,-0.42721126964873946,-0.2714978534442541,-173.03978423748313,38.491997432874754,-51.47008614306945,2
1767129973.209,2,right_wrist,-0.122,0.0176,-0.9653,1.19,-2.94,-0.56,0.05898897969276396,0.5761997031327112,0.8145834443073806,-0.031112933723882536,179.00052538507276,7.582718738577751,109.38602212565435,2
1767129973.225,1,left_wrist,-0.082,0.1318,-0.9736,0.77,-25.27,-2.66,-0.19448750510381016,0.8402107217946996,-0.42721126964873946,-0.2714978534442541,-173.03978423748313,38.491997432874754,-51.47008614306945,2
1767129973.225,2,right_wrist,-0.122,0.0176,-0.9653,1.19,-2.94,-0.56,0.05898897969276396,0.5761997031327112,0.8145834443073806,-0.031112933723882536,179.00052538507276,7.582718738577751,109.38602212565435,2
1767129973.418,1,left_wrist,-0.082,0.1318,-0.9736,0.77,-25.27,-2.66,-0.19448750510381016,0.8402107217946996,-0.42721126964873946,-0.2714978534442541,-173.03978423748313,38.491997432874754,-51.47008614306945,3
1767129973.418,2,right_wrist,-0.122,0.0176,-0.9653,1.19,-2.94,-0.56,0.05898897969276396,0.5761997031327112,0.8145834443073806,-0.031112933723882536,179.00052538507276,7.582718738577751,109.38602212565435,3
1767129973.44,1,left_wrist,-0.082,0.1318,-0.9736,0.77,-25.27,-2.66,-0.19448750510381016,0.8402107217946996,-0.42721126964873946,-0.2714978534442541,-173.03978423748313,38.491997432874754,-51.47008614306945,3
1767129973.44,2,right_wrist,-0.122,0.0176,-0.9653,1.19,-2.94,-0.56,0.05898897969276396,0.5761997031327112,0.8145834443073806,-0.031112933723882536,179.00052538507276,7.582718738577751,109.38602212565435,3
1767129973.466,1,left_wrist,-0.082,0.1318,-0.9736,0.77,-25.27,-2.66,-0.19448750510381016,0.8402107217946996,-0.42721126964873946,-0.2714978534442541,-173.03978423748313,38.491997432874754,-51.47008614306945,3
1767129973.466,2,right_wrist,-0.122,0.0176,-0.9653,1.19,-2.94,-0.56,0.05898897969276396,0.5761997031327112,0.8145834443073806,-0.031112933723882536,179.00052538507276,7.582718738577751,109.38602212565435,3
1767129973.492,1,left_wrist,-0.082,0.1318,-0.9736,0.77,-25.27,-2.66,-0.19448750510381016,0.8402107217946996,-0.42721126964873946,-0.2714978534442541,-173.03978423748313,38.491997432874754,-51.47008614306945,3
1767129973.492,2,right_wrist,-0.122,0.0176,-0.9653,1.19,-2.94,-0.56,0.05898897969276396,0.5761997031327112,0.8145834443073806,-0.031112933723882536,179.00052538507276,7.582718738577751,109.38602212565435,3
1767129973.523,1,left_wrist,-0.082,0.1318,-0.9736,0.77,-25.27,-2.66,-0.19448750510381016,0.8402107217946996,-0.42721126964873946,-0.2714978534442541,-173.03978423748313,38.491997432874754,-51.47008614306945,3
1767129973.523,2,right_wrist,-0.122,0.0176,-0.9653,1.19,-2.94,-0.56,0.05898897969276396,0.5761997031327112,0.8145834443073806,-0.031112933723882536,179.00052538507276,7.582718738577751,109.38602212565435,3
1767129973.545,1,left_wrist,-0.082,0.1318,-0.9736,0.77,-25.27,-2.66,-0.19448750510381016,0.8402107217946996,-0.42721126964873946,-0.2714978534442541,-173.03978423748313,38.491997432874754,-51.47008614306945,3
1767129973.545,2,right_wrist,-0.122,0.0176,-0.9653,1.19,-2.94,-0.56,0.05898897969276396,0.5761997031327112,0.8145834443073806,-0.031112933723882536,179.00052538507276,7.582718738577751,109.38602212565435,3
1767129973.57,1,left_wrist,-0.082,0.1318,-0.9736,0.77,-25.27,-2.66,-0.19448750510381016,0.8402107217946996,-0.42721126964873946,-0.2714978534442541,-173.03978423748313,38.491997432874754,-51.47008614306945,3
1767129973.57,2,right_wrist,-0.122,0.0176,-0.9653,1.19,-2.94,-0.56,0.05898897969276396,0.5761997031327112,0.8145834443073806,-0.031112933723882536,179.00052538507276,7.582718738577751,109.38602212565435,3
1767129973.592,1,left_wrist,-0.082,0.1318,-0.9736,0.77,-25.27,-2.66,-0.19448750510381016,0.8402107217946996,-0.42721126964873946,-0.2714978534442541,-173.03978423748313,38.491997432874754,-51.47008614306945,3
1767129973.592,2,right_wrist,-0.122,0.0176,-0.9653,1.19,-2.94,-0.56,0.05898897969276396,0.5761997031327112,0.8145834443073806,-0.031112933723882536,179.00052538507276,7.582718738577751,109.38602212565435,3
1767129973.617,1,left_wrist,-0.082,0.1318,-0.9736,0.77,-25.27,-2.66,-0.19448750510381016,0.8402107217946996,-0.42721126964873946,-0.2714978534442541,-173.03978423748313,38.491997432874754,-51.47008614306945,3
1767129973.617,2,right_wrist,-0.122,0.0176,-0.9653,1.19,-2.94,-0.56,0.05898897969276396,0.5761997031327112,0.8145834443073806,-0.031112933723882536,179.00052538507276,7.582718738577751,109.38602212565435,3
1767129973.639,1,left_wrist,-0.082,0.1318,-0.9736,0.77,-25.27,-2.66,-0.19448750510381016,0.8402107217946996,-0.42721126964873946,-0.2714978534442541,-173.03978423748313,38.491997432874754,-51.47008614306945,3
1767129973.639,2,right_wrist,-0.122,0.0176,-0.9653,1.19,-2.94,-0.56,0.05898897969276396,0.5761997031327112,0.8145834443073806,-0.031112933723882536,179.00052538507276,7.582718738577751,109.38602212565435,3
1767129973.657,1,left_wrist,-0.082,0.1318,-0.9736,0.77,-25.27,-2.66,-0.19448750510381016,0.8402107217946996,-0.42721126964873946,-0.2714978534442541,-173.03978423748313,38.491997432874754,-51.47008614306945,3
1767129973.657,2,right_wrist,-0.122,0.0176,-0.9653,1.19,-2.94,-0.56,0.05898897969276396,0.5761997031327112,0.8145834443073806,-0.031112933723882536,179.00052538507276,7.582718738577751,109.38602212565435,3
1767129973.679,1,left_wrist,-0.082,0.1318,-0.9736,0.77,-25.27,-2.66,-0.19448750510381016,0.8402107217946996,-0.42721126964873946,-0.2714978534442541,-173.03978423748313,38.491997432874754,-51.47008614306945,3
1767129973.679,2,right_wrist,-0.122,0.0176,-0.9653,1.19,-2.94,-0.56,0.05898897969276396,0.5761997031327112,0.8145834443073806,-0.031112933723882536,179.00052538507276,7.582718738577751,109.38602212565435,3
1767129973.699,1,left_wrist,-0.082,0.1318,-0.9736,0.77,-25.27,-2.66,-0.19448750510381016,0.8402107217946996,-0.42721126964873946,-0.2714978534442541,-173.03978423748313,38.491997432874754,-51.47008614306945,3
1767129973.699,2,right_wrist,-0.122,0.0176,-0.9653,1.19,-2.94,-0.56,0.05898897969276396,0.5761997031327112,0.8145834443073806,-0.031112933723882536,179.00052538507276,7.582718738577751,109.38602212565435,3
1767129973.719,1,left_wrist,-0.082,0.1318,-0.9736,0.77,-25.27,-2.66,-0.19448750510381016,0.8402107217946996,-0.42721126964873946,-0.2714978534442541,-173.03978423748313,38.491997432874754,-51.47008614306945,3
1767129973.719,2,right_wrist,-0.122,0.0176,-0.9653,1.19,-2.94,-0.56,0.05898897969276396,0.5761997031327112,0.8145834443073806,-0.031112933723882536,179.00052538507276,7.582718738577751,109.38602212565435,3
1767129973.742,1,left_wrist,-0.082,0.1318,-0.9736,0.77,-25.27,-2.66,-0.19448750510381016,0.8402107217946996,-0.42721126964873946,-0.2714978534442541,-173.03978423748313,38.491997432874754,-51.47008614306945,3
1767129973.742,2,right_wrist,-0.122,0.0176,-0.9653,1.19,-2.94,-0.56,0.05898897969276396,0.5761997031327112,0.8145834443073806,-0.031112933723882536,179.00052538507276,7.582718738577751,109.38602212565435,3
1767129973.764,1,left_wrist,-0.082,0.1318,-0.9736,0.77,-25.27,-2.66,-0.19448750510381016,0.8402107217946996,-0.42721126964873946,-0.2714978534442541,-173.03978423748313,38.491997432874754,-51.47008614306945,3
1767129973.764,2,right_wrist,-0.122,0.0176,-0.9653,1.19,-2.94,-0.56,0.05898897969276396,0.5761997031327112,0.8145834443073806,-0.031112933723882536,179.00052538507276,7.582718738577751,109.38602212565435,3
1767129973.784,1,left_wrist,-0.082,0.1318,-0.9736,0.77,-25.27,-2.66,-0.19448750510381016,0.8402107217946996,-0.42721126964873946,-0.2714978534442541,-173.03978423748313,38.491997432874754,-51.47008614306945,3
1767129973.784,2,right_wrist,-0.122,0.0176,-0.9653,1.19,-2.94,-0.56,0.05898897969276396,0.5761997031327112,0.8145834443073806,-0.031112933723882536,179.00052538507276,7.582718738577751,109.38602212565435,3
1767129973.806,1,left_wrist,-0.082,0.1318,-0.9736,0.77,-25.27,-2.66,-0.19448750510381016,0.8402107217946996,-0.42721126964873946,-0.2714978534442541,-173.03978423748313,38.491997432874754,-51.47008614306945,3
1767129973.806,2,right_wrist,-0.122,0.0176,-0.9653,1.19,-2.94,-0.56,0.05898897969276396,0.5761997031327112,0.8145834443073806,-0.031112933723882536,179.00052538507276,7.582718738577751,109.38602212565435,3
1767129973.821,1,left_wrist,-0.082,0.1318,-0.9736,0.77,-25.27,-2.66,-0.19448750510381016,0.8402107217946996,-0.42721126964873946,-0.2714978534442541,-173.03978423748313,38.491997432874754,-51.47008614306945,3
1767129973.821,2,right_wrist,-0.122,0.0176,-0.9653,1.19,-2.94,-0.56,0.05898897969276396,0.5761997031327112,0.8145834443073806,-0.031112933723882536,179.00052538507276,7.582718738577751,109.38602212565435,3
1767129973.836,1,left_wrist,-0.082,0.1318,-0.9736,0.77,-25.27,-2.66,-0.19448750510381016,0.8402107217946996,-0.42721126964873946,-0.2714978534442541,-173.03978423748313,38.491997432874754,-51.47008614306945,3
1767129973.836,2,right_wrist,-0.122,0.0176,-0.9653,1.19,-2.94,-0.56,0.05898897969276396,0.5761997031327112,0.8145834443073806,-0.031112933723882536,179.00052538507276,7.582718738577751,109.38602212565435,3
1767129973.849,1,left_wrist,-0.082,0.1318,-0.9736,0.77,-25.27,-2.66,-0.19448750510381016,0.8402107217946996,-0.42721126964873946,-0.2714978534442541,-173.03978423748313,38.491997432874754,-51.47008614306945,3
1767129973.849,2,right_wrist,-0.122,0.0176,-0.9653,1.19,-2.94,-0.56,0.05898897969276396,0.5761997031327112,0.8145834443073806,-0.031112933723882536,179.00052538507276,7.582718738577751,109.38602212565435,3
1767129973.863,1,left_wrist,-0.082,0.1318,-0.9736,0.77,-25.27,-2.66,-0.19448750510381016,0.8402107217946996,-0.42721126964873946,-0.2714978534442541,-173.03978423748313,38.491997432874754,-51.47008614306945,3
1767129973.863,2,right_wrist,-0.122,0.0176,-0.9653,1.19,-2.94,-0.56,0.05898897969276396,0.5761997031327112,0.8145834443073806,-0.031112933723882536,179.00052538507276,7.582718738577751,109.38602212565435,3
1767129973.876,1,left_wrist,-0.082,0.1318,-0.9736,0.77,-25.27,-2.66,-0.19448750510381016,0.8402107217946996,-0.42721126964873946,-0.2714978534442541,-173.03978423748313,38.491997432874754,-51.47008614306945,3
1767129973.876,2,right_wrist,-0.122,0.0176,-0.9653,1.19,-2.94,-0.56,0.05898897969276396,0.5761997031327112,0.8145834443073806,-0.031112933723882536,179.00052538507276,7.582718738577751,109.38602212565435,3
1767129973.892,1,left_wrist,-0.082,0.1318,-0.9736,0.77,-25.27,-2.66,-0.19448750510381016,0.8402107217946996,-0.42721126964873946,-0.2714978534442541,-173.03978423748313,38.491997432874754,-51.47008614306945,3
1767129973.892,2,right_wrist,-0.122,0.0176,-0.9653,1.19,-2.94,-0.56,0.05898897969276396,0.5761997031327112,0.8145834443073806,-0.031112933723882536,179.00052538507276,7.582718738577751,109.38602212565435,3
1767129973.909,1,left_wrist,-0.082,0.1318,-0.9736,0.77,-25.27,-2.66,-0.19448750510381016,0.8402107217946996,-0.42721126964873946,-0.2714978534442541,-173.03978423748313,38.491997432874754,-51.47008614306945,3
1767129973.909,2,right_wrist,-0.122,0.0176,-0.9653,1.19,-2.94,-0.56,0.05898897969276396,0.5761997031327112,0.8145834443073806,-0.031112933723882536,179.00052538507276,7.582718738577751,109.38602212565435,3
1767129973.927,1,left_wrist,-0.082,0.1318,-0.9736,0.77,-25.27,-2.66,-0.19448750510381016,0.8402107217946996,-0.42721126964873946,-0.2714978534442541,-173.03978423748313,38.491997432874754,-51.47008614306945,3
1767129973.927,2,right_wrist,-0.122,0.0176,-0.9653,1.19,-2.94,-0.56,0.05898897969276396,0.5761997031327112,0.8145834443073806,-0.031112933723882536,179.00052538507276,7.582718738577751,109.38602212565435,3
1767129973.943,1,left_wrist,-0.082,0.1318,-0.9736,0.77,-25.27,-2.66,-0.19448750510381016,0.8402107217946996,-0.42721126964873946,-0.2714978534442541,-173.03978423748313,38.491997432874754,-51.47008614306945,3
1767129973.943,2,right_wrist,-0.122,0.0176,-0.9653,1.19,-2.94,-0.56,0.05898897969276396,0.5761997031327112,0.8145834443073806,-0.031112933723882536,179.00052538507276,7.582718738577751,109.38602212565435,3
1767129973.963,1,left_wrist,-0.082,0.1318,-0.9736,0.77,-25.27,-2.66,-0.19448750510381016,0.8402107217946996,-0.42721126964873946,-0.2714978534442541,-173.03978423748313,38.491997432874754,-51.47008614306945,3
1767129973.963,2,right_wrist,-0.122,0.0176,-0.9653,1.19,-2.94,-0.56,0.05898897969276396,0.5761997031327112,0.8145834443073806,-0.031112933723882536,179.00052538507276,7.582718738577751,109.38602212565435,3
1767129973.981,1,left_wrist,-0.082,0.1318,-0.9736,0.77,-25.27,-2.66,-0.19448750510381016,0.8402107217946996,-0.42721126964873946,-0.2714978534442541,-173.03978423748313,38.491997432874754,-51.47008614306945,3
1767129973.981,2,right_wrist,-0.122,0.0176,-0.9653,1.19,-2.94,-0.56,0.05898897969276396,0.5761997031327112,0.8145834443073806,-0.031112933723882536,179.00052538507276,7.582718738577751,109.38602212565435,3
1767129974.001,1,left_wrist,-0.082,0.1318,-0.9736,0.77,-25.27,-2.66,-0.19448750510381016,0.8402107217946996,-0.42721126964873946,-0.2714978534442541,-173.03978423748313,38.491997432874754,-51.47008614306945,3
1767129974.001,2,right_wrist,-0.122,0.0176,-0.9653,1.19,-2.94,-0.56,0.05898897969276396,0.5761997031327112,0.8145834443073806,-0.031112933723882536,179.00052538507276,7.582718738577751,109.38602212565435,3
1767129974.022,1,left_wrist,-0.082,0.1318,-0.9736,0.77,-25.27,-2.66,-0.19448750510381016,0.8402107217946996,-0.42721126964873946,-0.2714978534442541,-173.03978423748313,38.491997432874754,-51.47008614306945,3
1767129974.022,2,right_wrist,-0.122,0.0176,-0.9653,1.19,-2.94,-0.56,0.05898897969276396,0.5761997031327112,0.8145834443073806,-0.031112933723882536,179.00052538507276,7.582718738577751,109.38602212565435,3
1767129974.035,1,left_wrist,-0.082,0.1318,-0.9736,0.77,-25.27,-2.66,-0.19448750510381016,0.8402107217946996,-0.42721126964873946,-0.2714978534442541,-173.03978423748313,38.491997432874754,-51.47008614306945,3
1767129974.035,2,right_wrist,-0.122,0.0176,-0.9653,1.19,-2.94,-0.56,0.05898897969276396,0.5761997031327112,0.8145834443073806,-0.031112933723882536,179.00052538507276,7.582718738577751,109.38602212565435,3
1767129974.049,1,left_wrist,-0.082,0.1318,-0.9736,0.77,-25.27,-2.66,-0.19448750510381016,0.8402107217946996,-0.42721126964873946,-0.2714978534442541,-173.03978423748313,38.491997432874754,-51.47008614306945,3
1767129974.049,2,right_wrist,-0.122,0.0176,-0.9653,1.19,-2.94,-0.56,0.05898897969276396,0.5761997031327112,0.8145834443073806,-0.031112933723882536,179.00052538507276,7.582718738577751,109.38602212565435,3
1767129974.065,1,left_wrist,-0.082,0.1318,-0.9736,0.77,-25.27,-2.66,-0.19448750510381016,0.8402107217946996,-0.42721126964873946,-0.2714978534442541,-173.03978423748313,38.491997432874754,-51.47008614306945,3
1767129974.065,2,right_wrist,-0.122,0.0176,-0.9653,1.19,-2.94,-0.56,0.05898897969276396,0.5761997031327112,0.8145834443073806,-0.031112933723882536,179.00052538507276,7.582718738577751,109.38602212565435,3
1767129974.08,1,left_wrist,-0.082,0.1318,-0.9736,0.77,-25.27,-2.66,-0.19448750510381016,0.8402107217946996,-0.42721126964873946,-0.2714978534442541,-173.03978423748313,38.491997432874754,-51.47008614306945,3
1767129974.08,2,right_wrist,-0.122,0.0176,-0.9653,1.19,-2.94,-0.56,0.05898897969276396,0.5761997031327112,0.8145834443073806,-0.031112933723882536,179.00052538507276,7.582718738577751,109.38602212565435,3
1767129974.094,1,left_wrist,-0.082,0.1318,-0.9736,0.77,-25.27,-2.66,-0.19448750510381016,0.8402107217946996,-0.42721126964873946,-0.2714978534442541,-173.03978423748313,38.491997432874754,-51.47008614306945,3
1767129974.094,2,right_wrist,-0.122,0.0176,-0.9653,1.19,-2.94,-0.56,0.05898897969276396,0.5761997031327112,0.8145834443073806,-0.031112933723882536,179.00052538507276,7.582718738577751,109.38602212565435,3
1767129974.108,1,left_wrist,-0.082,0.1318,-0.9736,0.77,-25.27,-2.66,-0.19448750510381016,0.8402107217946996,-0.42721126964873946,-0.2714978534442541,-173.03978423748313,38.491997432874754,-51.47008614306945,3
1767129974.108,2,right_wrist,-0.122,0.0176,-0.9653,1.19,-2.94,-0.56,0.05898897969276396,0.5761997031327112,0.8145834443073806,-0.031112933723882536,179.00052538507276,7.582718738577751,109.38602212565435,3
1767129974.127,1,left_wrist,-0.082,0.1318,-0.9736,0.77,-25.27,-2.66,-0.19448750510381016,0.8402107217946996,-0.42721126964873946,-0.2714978534442541,-173.03978423748313,38.491997432874754,-51.47008614306945,3
1767129974.127,2,right_wrist,-0.122,0.0176,-0.9653,1.19,-2.94,-0.56,0.05898897969276396,0.5761997031327112,0.8145834443073806,-0.031112933723882536,179.00052538507276,7.582718738577751,109.38602212565435,3
1767129974.144,1,left_wrist,-0.082,0.1318,-0.9736,0.77,-25.27,-2.66,-0.19448750510381016,0.8402107217946996,-0.42721126964873946,-0.2714978534442541,-173.03978423748313,38.491997432874754,-51.47008614306945,3
1767129974.144,2,right_wrist,-0.122,0.0176,-0.9653,1.19,-2.94,-0.56,0.05898897969276396,0.5761997031327112,0.8145834443073806,-0.031112933723882536,179.00052538507276,7.582718738577751,109.38602212565435,3
1767129974.16,1,left_wrist,-0.082,0.1318,-0.9736,0.77,-25.27,-2.66,-0.19448750510381016,0.8402107217946996,-0.42721126964873946,-0.2714978534442541,-173.03978423748313,38.491997432874754,-51.47008614306945,3
1767129974.16,2,right_wrist,-0.122,0.0176,-0.9653,1.19,-2.94,-0.56,0.05898897969276396,0.5761997031327112,0.8145834443073806,-0.031112933723882536,179.00052538507276,7.582718738577751,109.38602212565435,3
1767129974.18,1,left_wrist,-0.082,0.1318,-0.9736,0.77,-25.27,-2.66,-0.19448750510381016,0.8402107217946996,-0.42721126964873946,-0.2714978534442541,-173.03978423748313,38.491997432874754,-51.47008614306945,3
1767129974.18,2,right_wrist,-0.122,0.0176,-0.9653,1.19,-2.94,-0.56,0.05898897969276396,0.5761997031327112,0.8145834443073806,-0.031112933723882536,179.00052538507276,7.582718738577751,109.38602212565435,3
1767129974.199,1,left_wrist,-0.082,0.1318,-0.9736,0.77,-25.27,-2.66,-0.19448750510381016,0.8402107217946996,-0.42721126964873946,-0.2714978534442541,-173.03978423748313,38.491997432874754,-51.47008614306945,3
1767129974.199,2,right_wrist,-0.122,0.0176,-0.9653,1.19,-2.94,-0.56,0.05898897969276396,0.5761997031327112,0.8145834443073806,-0.031112933723882536,179.00052538507276,7.582718738577751,109.38602212565435,3
1767129974.22,1,left_wrist,-0.082,0.1318,-0.9736,0.77,-25.27,-2.66,-0.19448750510381016,0.8402107217946996,-0.42721126964873946,-0.2714978534442541,-173.03978423748313,38.491997432874754,-51.47008614306945,3
1767129974.22,2,right_wrist,-0.122,0.0176,-0.9653,1.19,-2.94,-0.56,0.05898897969276396,0.5761997031327112,0.8145834443073806,-0.031112933723882536,179.00052538507276,7.582718738577751,109.38602212565435,3
1767129974.233,1,left_wrist,-0.082,0.1318,-0.9736,0.77,-25.27,-2.66,-0.19448750510381016,0.8402107217946996,-0.42721126964873946,-0.2714978534442541,-173.03978423748313,38.491997432874754,-51.47008614306945,3
1767129974.233,2,right_wrist,-0.122,0.0176,-0.9653,1.19,-2.94,-0.56,0.05898897969276396,0.5761997031327112,0.8145834443073806,-0.031112933723882536,179.00052538507276,7.582718738577751,109.38602212565435,3
1767129974.247,1,left_wrist,-0.082,0.1318,-0.9736,0.77,-25.27,-2.66,-0.19448750510381016,0.8402107217946996,-0.42721126964873946,-0.2714978534442541,-173.03978423748313,38.491997432874754,-51.47008614306945,3
1767129974.247,2,right_wrist,-0.122,0.0176,-0.9653,1.19,-2.94,-0.56,0.05898897969276396,0.5761997031327112,0.8145834443073806,-0.031112933723882536,179.00052538507276,7.582718738577751,109.38602212565435,3
1767129974.261,1,left_wrist,-0.082,0.1318,-0.9736,0.77,-25.27,-2.66,-0.19448750510381016,0.8402107217946996,-0.42721126964873946,-0.2714978534442541,-173.03978423748313,38.491997432874754,-51.47008614306945,3
1767129974.261,2,right_wrist,-0.122,0.0176,-0.9653,1.19,-2.94,-0.56,0.05898897969276396,0.5761997031327112,0.8145834443073806,-0.031112933723882536,179.00052538507276,7.582718738577751,109.38602212565435,3
1767129974.283,1,left_wrist,-0.082,0.1318,-0.9736,0.77,-25.27,-2.66,-0.19448750510381016,0.8402107217946996,-0.42721126964873946,-0.2714978534442541,-173.03978423748313,38.491997432874754,-51.47008614306945,3
1767129974.283,2,right_wrist,-0.122,0.0176,-0.9653,1.19,-2.94,-0.56,0.05898897969276396,0.5761997031327112,0.8145834443073806,-0.031112933723882536,179.00052538507276,7.582718738577751,109.38602212565435,3
1767129974.306,1,left_wrist,-0.082,0.1318,-0.9736,0.77,-25.27,-2.66,-0.19448750510381016,0.8402107217946996,-0.42721126964873946,-0.2714978534442541,-173.03978423748313,38.491997432874754,-51.47008614306945,3
1767129974.306,2,right_wrist,-0.122,0.0176,-0.9653,1.19,-2.94,-0.56,0.05898897969276396,0.5761997031327112,0.8145834443073806,-0.031112933723882536,179.00052538507276,7.582718738577751,109.38602212565435,3
1767129974.333,1,left_wrist,-0.082,0.1318,-0.9736,0.77,-25.27,-2.66,-0.19448750510381016,0.8402107217946996,-0.42721126964873946,-0.2714978534442541,-173.03978423748313,38.491997432874754,-51.47008614306945,3
1767129974.333,2,right_wrist,-0.122,0.0176,-0.9653,1.19,-2.94,-0.56,0.05898897969276396,0.5761997031327112,0.8145834443073806,-0.031112933723882536,179.00052538507276,7.582718738577751,109.38602212565435,3
1767129974.362,1,left_wrist,-0.082,0.1318,-0.9736,0.77,-25.27,-2.66,-0.19448750510381016,0.8402107217946996,-0.42721126964873946,-0.2714978534442541,-173.03978423748313,38.491997432874754,-51.47008614306945,3
1767129974.362,2,right_wrist,-0.122,0.0176,-0.9653,1.19,-2.94,-0.56,0.05898897969276396,0.5761997031327112,0.8145834443073806,-0.031112933723882536,179.00052538507276,7.582718738577751,109.38602212565435,3
1767129974.391,1,left_wrist,-0.082,0.1318,-0.9736,0.77,-25.27,-2.66,-0.19448750510381016,0.8402107217946996,-0.42721126964873946,-0.2714978534442541,-173.03978423748313,38.491997432874754,-51.47008614306945,3
1767129974.391,2,right_wrist,-0.122,0.0176,-0.9653,1.19,-2.94,-0.56,0.05898897969276396,0.5761997031327112,0.8145834443073806,-0.031112933723882536,179.00052538507276,7.582718738577751,109.38602212565435,3
1767129974.413,1,left_wrist,-0.082,0.1318,-0.9736,0.77,-25.27,-2.66,-0.19448750510381016,0.8402107217946996,-0.42721126964873946,-0.2714978534442541,-173.03978423748313,38.491997432874754,-51.47008614306945,3
1767129974.413,2,right_wrist,-0.122,0.0176,-0.9653,1.19,-2.94,-0.56,0.05898897969276396,0.5761997031327112,0.8145834443073806,-0.031112933723882536,179.00052538507276,7.582718738577751,109.38602212565435,3
1767129974.435,1,left_wrist,-0.082,0.1318,-0.9736,0.77,-25.27,-2.66,-0.19448750510381016,0.8402107217946996,-0.42721126964873946,-0.2714978534442541,-173.03978423748313,38.491997432874754,-51.47008614306945,3
1767129974.435,2,right_wrist,-0.122,0.0176,-0.9653,1.19,-2.94,-0.56,0.05898897969276396,0.5761997031327112,0.8145834443073806,-0.031112933723882536,179.00052538507276,7.582718738577751,109.38602212565435,3
1767129974.457,1,left_wrist,-0.082,0.1318,-0.9736,0.77,-25.27,-2.66,-0.19448750510381016,0.8402107217946996,-0.42721126964873946,-0.2714978534442541,-173.03978423748313,38.491997432874754,-51.47008614306945,3
1767129974.457,2,right_wrist,-0.122,0.0176,-0.9653,1.19,-2.94,-0.56,0.05898897969276396,0.5761997031327112,0.8145834443073806,-0.031112933723882536,179.00052538507276,7.582718738577751,109.38602212565435,3
1767129974.482,1,left_wrist,-0.082,0.1318,-0.9736,0.77,-25.27,-2.66,-0.19448750510381016,0.8402107217946996,-0.42721126964873946,-0.2714978534442541,-173.03978423748313,38.491997432874754,-51.47008614306945,3
1767129974.482,2,right_wrist,-0.122,0.0176,-0.9653,1.19,-2.94,-0.56,0.05898897969276396,0.5761997031327112,0.8145834443073806,-0.031112933723882536,179.00052538507276,7.582718738577751,109.38602212565435,3
1767129974.508,1,left_wrist,-0.082,0.1318,-0.9736,0.77,-25.27,-2.66,-0.19448750510381016,0.8402107217946996,-0.42721126964873946,-0.2714978534442541,-173.03978423748313,38.491997432874754,-51.47008614306945,3
1767129974.508,2,right_wrist,-0.122,0.0176,-0.9653,1.19,-2.94,-0.56,0.05898897969276396,0.5761997031327112,0.8145834443073806,-0.031112933723882536,179.00052538507276,7.582718738577751,109.38602212565435,3
1767129974.536,1,left_wrist,-0.082,0.1318,-0.9736,0.77,-25.27,-2.66,-0.19448750510381016,0.8402107217946996,-0.42721126964873946,-0.2714978534442541,-173.03978423748313,38.491997432874754,-51.47008614306945,3
1767129974.536,2,right_wrist,-0.122,0.0176,-0.9653,1.19,-2.94,-0.56,0.05898897969276396,0.5761997031327112,0.8145834443073806,-0.031112933723882536,179.00052538507276,7.582718738577751,109.38602212565435,3
1767129974.558,1,left_wrist,-0.082,0.1318,-0.9736,0.77,-25.27,-2.66,-0.19448750510381016,0.8402107217946996,-0.42721126964873946,-0.2714978534442541,-173.03978423748313,38.491997432874754,-51.47008614306945,3
1767129974.558,2,right_wrist,-0.122,0.0176,-0.9653,1.19,-2.94,-0.56,0.05898897969276396,0.5761997031327112,0.8145834443073806,-0.031112933723882536,179.00052538507276,7.582718738577751,109.38602212565435,3
1767129974.581,1,left_wrist,-0.082,0.1318,-0.9736,0.77,-25.27,-2.66,-0.19448750510381016,0.8402107217946996,-0.42721126964873946,-0.2714978534442541,-173.03978423748313,38.491997432874754,-51.47008614306945,3
1767129974.581,2,right_wrist,-0.122,0.0176,-0.9653,1.19,-2.94,-0.56,0.05898897969276396,0.5761997031327112,0.8145834443073806,-0.031112933723882536,179.00052538507276,7.582718738577751,109.38602212565435,3
1767129974.603,1,left_wrist,-0.082,0.1318,-0.9736,0.77,-25.27,-2.66,-0.19448750510381016,0.8402107217946996,-0.42721126964873946,-0.2714978534442541,-173.03978423748313,38.491997432874754,-51.47008614306945,3
1767129974.603,2,right_wrist,-0.122,0.0176,-0.9653,1.19,-2.94,-0.56,0.05898897969276396,0.5761997031327112,0.8145834443073806,-0.031112933723882536,179.00052538507276,7.582718738577751,109.38602212565435,3
1767129974.622,1,left_wrist,-0.082,0.1318,-0.9736,0.77,-25.27,-2.66,-0.19448750510381016,0.8402107217946996,-0.42721126964873946,-0.2714978534442541,-173.03978423748313,38.491997432874754,-51.47008614306945,3
1767129974.622,2,right_wrist,-0.122,0.0176,-0.9653,1.19,-2.94,-0.56,0.05898897969276396,0.5761997031327112,0.8145834443073806,-0.031112933723882536,179.00052538507276,7.582718738577751,109.38602212565435,3
1767129974.638,1,left_wrist,-0.082,0.1318,-0.9736,0.77,-25.27,-2.66,-0.19448750510381016,0.8402107217946996,-0.42721126964873946,-0.2714978534442541,-173.03978423748313,38.491997432874754,-51.47008614306945,3
1767129974.638,2,right_wrist,-0.122,0.0176,-0.9653,1.19,-2.94,-0.56,0.05898897969276396,0.5761997031327112,0.8145834443073806,-0.031112933723882536,179.00052538507276,7.582718738577751,109.38602212565435,3
1767129974.654,1,left_wrist,-0.082,0.1318,-0.9736,0.77,-25.27,-2.66,-0.19448750510381016,0.8402107217946996,-0.42721126964873946,-0.2714978534442541,-173.03978423748313,38.491997432874754,-51.47008614306945,3
1767129974.654,2,right_wrist,-0.122,0.0176,-0.9653,1.19,-2.94,-0.56,0.05898897969276396,0.5761997031327112,0.8145834443073806,-0.031112933723882536,179.00052538507276,7.582718738577751,109.38602212565435,3
1767129974.671,1,left_wrist,-0.082,0.1318,-0.9736,0.77,-25.27,-2.66,-0.19448750510381016,0.8402107217946996,-0.42721126964873946,-0.2714978534442541,-173.03978423748313,38.491997432874754,-51.47008614306945,3
1767129974.671,2,right_wrist,-0.122,0.0176,-0.9653,1.19,-2.94,-0.56,0.05898897969276396,0.5761997031327112,0.8145834443073806,-0.031112933723882536,179.00052538507276,7.582718738577751,109.38602212565435,3
1767129974.689,1,left_wrist,-0.082,0.1318,-0.9736,0.77,-25.27,-2.66,-0.19448750510381016,0.8402107217946996,-0.42721126964873946,-0.2714978534442541,-173.03978423748313,38.491997432874754,-51.47008614306945,3
1767129974.689,2,right_wrist,-0.122,0.0176,-0.9653,1.19,-2.94,-0.56,0.05898897969276396,0.5761997031327112,0.8145834443073806,-0.031112933723882536,179.00052538507276,7.582718738577751,109.38602212565435,3
1767129974.71,1,left_wrist,-0.082,0.1318,-0.9736,0.77,-25.27,-2.66,-0.19448750510381016,0.8402107217946996,-0.42721126964873946,-0.2714978534442541,-173.03978423748313,38.491997432874754,-51.47008614306945,3
1767129974.71,2,right_wrist,-0.122,0.0176,-0.9653,1.19,-2.94,-0.56,0.05898897969276396,0.5761997031327112,0.8145834443073806,-0.031112933723882536,179.00052538507276,7.582718738577751,109.38602212565435,3
1767129974.729,1,left_wrist,-0.082,0.1318,-0.9736,0.77,-25.27,-2.66,-0.19448750510381016,0.8402107217946996,-0.42721126964873946,-0.2714978534442541,-173.03978423748313,38.491997432874754,-51.47008614306945,3
1767129974.729,2,right_wrist,-0.122,0.0176,-0.9653,1.19,-2.94,-0.56,0.05898897969276396,0.5761997031327112,0.8145834443073806,-0.031112933723882536,179.00052538507276,7.582718738577751,109.38602212565435,3
1767129974.75,1,left_wrist,-0.082,0.1318,-0.9736,0.77,-25.27,-2.66,-0.19448750510381016,0.8402107217946996,-0.42721126964873946,-0.2714978534442541,-173.03978423748313,38.491997432874754,-51.47008614306945,3
1767129974.75,2,right_wrist,-0.122,0.0176,-0.9653,1.19,-2.94,-0.56,0.05898897969276396,0.5761997031327112,0.8145834443073806,-0.031112933723882536,179.00052538507276,7.582718738577751,109.38602212565435,3
1767129974.771,1,left_wrist,-0.082,0.1318,-0.9736,0.77,-25.27,-2.66,-0.19448750510381016,0.8402107217946996,-0.42721126964873946,-0.2714978534442541,-173.03978423748313,38.491997432874754,-51.47008614306945,3
1767129974.771,2,right_wrist,-0.122,0.0176,-0.9653,1.19,-2.94,-0.56,0.05898897969276396,0.5761997031327112,0.8145834443073806,-0.031112933723882536,179.00052538507276,7.582718738577751,109.38602212565435,3
1767129974.784,1,left_wrist,-0.082,0.1318,-0.9736,0.77,-25.27,-2.66,-0.19448750510381016,0.8402107217946996,-0.42721126964873946,-0.2714978534442541,-173.03978423748313,38.491997432874754,-51.47008614306945,3
1767129974.784,2,right_wrist,-0.122,0.0176,-0.9653,1.19,-2.94,-0.56,0.05898897969276396,0.5761997031327112,0.8145834443073806,-0.031112933723882536,179.00052538507276,7.582718738577751,109.38602212565435,3
1767129974.797,1,left_wrist,-0.082,0.1318,-0.9736,0.77,-25.27,-2.66,-0.19448750510381016,0.8402107217946996,-0.42721126964873946,-0.2714978534442541,-173.03978423748313,38.491997432874754,-51.47008614306945,3
1767129974.797,2,right_wrist,-0.122,0.0176,-0.9653,1.19,-2.94,-0.56,0.05898897969276396,0.5761997031327112,0.8145834443073806,-0.031112933723882536,179.00052538507276,7.582718738577751,109.38602212565435,3
1767129974.81,1,left_wrist,-0.082,0.1318,-0.9736,0.77,-25.27,-2.66,-0.19448750510381016,0.8402107217946996,-0.42721126964873946,-0.2714978534442541,-173.03978423748313,38.491997432874754,-51.47008614306945,3
1767129974.81,2,right_wrist,-0.122,0.0176,-0.9653,1.19,-2.94,-0.56,0.05898897969276396,0.5761997031327112,0.8145834443073806,-0.031112933723882536,179.00052538507276,7.582718738577751,109.38602212565435,3
1767129974.825,1,left_wrist,-0.082,0.1318,-0.9736,0.77,-25.27,-2.66,-0.19448750510381016,0.8402107217946996,-0.42721126964873946,-0.2714978534442541,-173.03978423748313,38.491997432874754,-51.47008614306945,3
1767129974.825,2,right_wrist,-0.122,0.0176,-0.9653,1.19,-2.94,-0.56,0.05898897969276396,0.5761997031327112,0.8145834443073806,-0.031112933723882536,179.00052538507276,7.582718738577751,109.38602212565435,3
1767129974.842,1,left_wrist,-0.082,0.1318,-0.9736,0.77,-25.27,-2.66,-0.19448750510381016,0.8402107217946996,-0.42721126964873946,-0.2714978534442541,-173.03978423748313,38.491997432874754,-51.47008614306945,3
1767129974.842,2,right_wrist,-0.122,0.0176,-0.9653,1.19,-2.94,-0.56,0.05898897969276396,0.5761997031327112,0.8145834443073806,-0.031112933723882536,179.00052538507276,7.582718738577751,109.38602212565435,3
1767129974.861,1,left_wrist,-0.082,0.1318,-0.9736,0.77,-25.27,-2.66,-0.19448750510381016,0.8402107217946996,-0.42721126964873946,-0.2714978534442541,-173.03978423748313,38.491997432874754,-51.47008614306945,3
1767129974.861,2,right_wrist,-0.122,0.0176,-0.9653,1.19,-2.94,-0.56,0.05898897969276396,0.5761997031327112,0.8145834443073806,-0.031112933723882536,179.00052538507276,7.582718738577751,109.38602212565435,3
1767129974.876,1,left_wrist,-0.082,0.1318,-0.9736,0.77,-25.27,-2.66,-0.19448750510381016,0.8402107217946996,-0.42721126964873946,-0.2714978534442541,-173.03978423748313,38.491997432874754,-51.47008614306945,3
1767129974.876,2,right_wrist,-0.122,0.0176,-0.9653,1.19,-2.94,-0.56,0.05898897969276396,0.5761997031327112,0.8145834443073806,-0.031112933723882536,179.00052538507276,7.582718738577751,109.38602212565435,3
1767129974.894,1,left_wrist,-0.082,0.1318,-0.9736,0.77,-25.27,-2.66,-0.19448750510381016,0.8402107217946996,-0.42721126964873946,-0.2714978534442541,-173.03978423748313,38.491997432874754,-51.47008614306945,3
1767129974.894,2,right_wrist,-0.122,0.0176,-0.9653,1.19,-2.94,-0.56,0.05898897969276396,0.5761997031327112,0.8145834443073806,-0.031112933723882536,179.00052538507276,7.582718738577751,109.38602212565435,3
1767129974.909,1,left_wrist,-0.082,0.1318,-0.9736,0.77,-25.27,-2.66,-0.19448750510381016,0.8402107217946996,-0.42721126964873946,-0.2714978534442541,-173.03978423748313,38.491997432874754,-51.47008614306945,3
1767129974.909,2,right_wrist,-0.122,0.0176,-0.9653,1.19,-2.94,-0.56,0.05898897969276396,0.5761997031327112,0.8145834443073806,-0.031112933723882536,179.00052538507276,7.582718738577751,109.38602212565435,3
1767129974.93,1,left_wrist,-0.082,0.1318,-0.9736,0.77,-25.27,-2.66,-0.19448750510381016,0.8402107217946996,-0.42721126964873946,-0.2714978534442541,-173.03978423748313,38.491997432874754,-51.47008614306945,3
1767129974.93,2,right_wrist,-0.122,0.0176,-0.9653,1.19,-2.94,-0.56,0.05898897969276396,0.5761997031327112,0.8145834443073806,-0.031112933723882536,179.00052538507276,7.582718738577751,109.38602212565435,3
1767129974.948,1,left_wrist,-0.082,0.1318,-0.9736,0.77,-25.27,-2.66,-0.19448750510381016,0.8402107217946996,-0.42721126964873946,-0.2714978534442541,-173.03978423748313,38.491997432874754,-51.47008614306945,3
1767129974.948,2,right_wrist,-0.122,0.0176,-0.9653,1.19,-2.94,-0.56,0.05898897969276396,0.5761997031327112,0.8145834443073806,-0.031112933723882536,179.00052538507276,7.582718738577751,109.38602212565435,3
1767129974.968,1,left_wrist,-0.082,0.1318,-0.9736,0.77,-25.27,-2.66,-0.19448750510381016,0.8402107217946996,-0.42721126964873946,-0.2714978534442541,-173.03978423748313,38.491997432874754,-51.47008614306945,3
1767129974.968,2,right_wrist,-0.122,0.0176,-0.9653,1.19,-2.94,-0.56,0.05898897969276396,0.5761997031327112,0.8145834443073806,-0.031112933723882536,179.00052538507276,7.582718738577751,109.38602212565435,3
1767129974.988,1,left_wrist,-0.082,0.1318,-0.9736,0.77,-25.27,-2.66,-0.19448750510381016,0.8402107217946996,-0.42721126964873946,-0.2714978534442541,-173.03978423748313,38.491997432874754,-51.47008614306945,3
1767129974.988,2,right_wrist,-0.122,0.0176,-0.9653,1.19,-2.94,-0.56,0.05898897969276396,0.5761997031327112,0.8145834443073806,-0.031112933723882536,179.00052538507276,7.582718738577751,109.38602212565435,3
1767129975.001,1,left_wrist,-0.082,0.1318,-0.9736,0.77,-25.27,-2.66,-0.19448750510381016,0.8402107217946996,-0.42721126964873946,-0.2714978534442541,-173.03978423748313,38.491997432874754,-51.47008614306945,3
1767129975.001,2,right_wrist,-0.122,0.0176,-0.9653,1.19,-2.94,-0.56,0.05898897969276396,0.5761997031327112,0.8145834443073806,-0.031112933723882536,179.00052538507276,7.582718738577751,109.38602212565435,3
1767129975.014,1,left_wrist,-0.082,0.1318,-0.9736,0.77,-25.27,-2.66,-0.19448750510381016,0.8402107217946996,-0.42721126964873946,-0.2714978534442541,-173.03978423748313,38.491997432874754,-51.47008614306945,3
1767129975.014,2,right_wrist,-0.122,0.0176,-0.9653,1.19,-2.94,-0.56,0.05898897969276396,0.5761997031327112,0.8145834443073806,-0.031112933723882536,179.00052538507276,7.582718738577751,109.38602212565435,3
1767129975.027,1,left_wrist,-0.082,0.1318,-0.9736,0.77,-25.27,-2.66,-0.19448750510381016,0.8402107217946996,-0.42721126964873946,-0.2714978534442541,-173.03978423748313,38.491997432874754,-51.47008614306945,3
1767129975.027,2,right_wrist,-0.122,0.0176,-0.9653,1.19,-2.94,-0.56,0.05898897969276396,0.5761997031327112,0.8145834443073806,-0.031112933723882536,179.00052538507276,7.582718738577751,109.38602212565435,3
1767129975.042,1,left_wrist,-0.082,0.1318,-0.9736,0.77,-25.27,-2.66,-0.19448750510381016,0.8402107217946996,-0.42721126964873946,-0.2714978534442541,-173.03978423748313,38.491997432874754,-51.47008614306945,3
1767129975.042,2,right_wrist,-0.122,0.0176,-0.9653,1.19,-2.94,-0.56,0.05898897969276396,0.5761997031327112,0.8145834443073806,-0.031112933723882536,179.00052538507276,7.582718738577751,109.38602212565435,3
1767129975.058,1,left_wrist,-0.082,0.1318,-0.9736,0.77,-25.27,-2.66,-0.19448750510381016,0.8402107217946996,-0.42721126964873946,-0.2714978534442541,-173.03978423748313,38.491997432874754,-51.47008614306945,3
1767129975.058,2,right_wrist,-0.122,0.0176,-0.9653,1.19,-2.94,-0.56,0.05898897969276396,0.5761997031327112,0.8145834443073806,-0.031112933723882536,179.00052538507276,7.582718738577751,109.38602212565435,3
1767129975.075,1,left_wrist,-0.082,0.1318,-0.9736,0.77,-25.27,-2.66,-0.19448750510381016,0.8402107217946996,-0.42721126964873946,-0.2714978534442541,-173.03978423748313,38.491997432874754,-51.47008614306945,3
1767129975.075,2,right_wrist,-0.122,0.0176,-0.9653,1.19,-2.94,-0.56,0.05898897969276396,0.5761997031327112,0.8145834443073806,-0.031112933723882536,179.00052538507276,7.582718738577751,109.38602212565435,3
1767129975.093,1,left_wrist,-0.082,0.1318,-0.9736,0.77,-25.27,-2.66,-0.19448750510381016,0.8402107217946996,-0.42721126964873946,-0.2714978534442541,-173.03978423748313,38.491997432874754,-51.47008614306945,3
1767129975.093,2,right_wrist,-0.122,0.0176,-0.9653,1.19,-2.94,-0.56,0.05898897969276396,0.5761997031327112,0.8145834443073806,-0.031112933723882536,179.00052538507276,7.582718738577751,109.38602212565435,3
1767129975.11,1,left_wrist,-0.082,0.1318,-0.9736,0.77,-25.27,-2.66,-0.19448750510381016,0.8402107217946996,-0.42721126964873946,-0.2714978534442541,-173.03978423748313,38.491997432874754,-51.47008614306945,3
1767129975.11,2,right_wrist,-0.122,0.0176,-0.9653,1.19,-2.94,-0.56,0.05898897969276396,0.5761997031327112,0.8145834443073806,-0.031112933723882536,179.00052538507276,7.582718738577751,109.38602212565435,3
1767129975.128,1,left_wrist,-0.082,0.1318,-0.9736,0.77,-25.27,-2.66,-0.19448750510381016,0.8402107217946996,-0.42721126964873946,-0.2714978534442541,-173.03978423748313,38.491997432874754,-51.47008614306945,3
1767129975.128,2,right_wrist,-0.122,0.0176,-0.9653,1.19,-2.94,-0.56,0.05898897969276396,0.5761997031327112,0.8145834443073806,-0.031112933723882536,179.00052538507276,7.582718738577751,109.38602212565435,3
1767129975.147,1,left_wrist,-0.082,0.1318,-0.9736,0.77,-25.27,-2.66,-0.19448750510381016,0.8402107217946996,-0.42721126964873946,-0.2714978534442541,-173.03978423748313,38.491997432874754,-51.47008614306945,3
1767129975.147,2,right_wrist,-0.122,0.0176,-0.9653,1.19,-2.94,-0.56,0.05898897969276396,0.5761997031327112,0.8145834443073806,-0.031112933723882536,179.00052538507276,7.582718738577751,109.38602212565435,3
1767129975.165,1,left_wrist,-0.082,0.1318,-0.9736,0.77,-25.27,-2.66,-0.19448750510381016,0.8402107217946996,-0.42721126964873946,-0.2714978534442541,-173.03978423748313,38.491997432874754,-51.47008614306945,3
1767129975.165,2,right_wrist,-0.122,0.0176,-0.9653,1.19,-2.94,-0.56,0.05898897969276396,0.5761997031327112,0.8145834443073806,-0.031112933723882536,179.00052538507276,7.582718738577751,109.38602212565435,3
1767129975.184,1,left_wrist,-0.082,0.1318,-0.9736,0.77,-25.27,-2.66,-0.19448750510381016,0.8402107217946996,-0.42721126964873946,-0.2714978534442541,-173.03978423748313,38.491997432874754,-51.47008614306945,3
1767129975.184,2,right_wrist,-0.122,0.0176,-0.9653,1.19,-2.94,-0.56,0.05898897969276396,0.5761997031327112,0.8145834443073806,-0.031112933723882536,179.00052538507276,7.582718738577751,109.38602212565435,3
1767129975.205,1,left_wrist,-0.082,0.1318,-0.9736,0.77,-25.27,-2.66,-0.19448750510381016,0.8402107217946996,-0.42721126964873946,-0.2714978534442541,-173.03978423748313,38.491997432874754,-51.47008614306945,3
1767129975.205,2,right_wrist,-0.122,0.0176,-0.9653,1.19,-2.94,-0.56,0.05898897969276396,0.5761997031327112,0.8145834443073806,-0.031112933723882536,179.00052538507276,7.582718738577751,109.38602212565435,3
1767129975.218,1,left_wrist,-0.082,0.1318,-0.9736,0.77,-25.27,-2.66,-0.19448750510381016,0.8402107217946996,-0.42721126964873946,-0.2714978534442541,-173.03978423748313,38.491997432874754,-51.47008614306945,3
1767129975.218,2,right_wrist,-0.122,0.0176,-0.9653,1.19,-2.94,-0.56,0.05898897969276396,0.5761997031327112,0.8145834443073806,-0.031112933723882536,179.00052538507276,7.582718738577751,109.38602212565435,3
1767129975.231,1,left_wrist,-0.082,0.1318,-0.9736,0.77,-25.27,-2.66,-0.19448750510381016,0.8402107217946996,-0.42721126964873946,-0.2714978534442541,-173.03978423748313,38.491997432874754,-51.47008614306945,3
1767129975.231,2,right_wrist,-0.122,0.0176,-0.9653,1.19,-2.94,-0.56,0.05898897969276396,0.5761997031327112,0.8145834443073806,-0.031112933723882536,179.00052538507276,7.582718738577751,109.38602212565435,3
1767129975.245,1,left_wrist,-0.082,0.1318,-0.9736,0.77,-25.27,-2.66,-0.19448750510381016,0.8402107217946996,-0.42721126964873946,-0.2714978534442541,-173.03978423748313,38.491997432874754,-51.47008614306945,3
1767129975.245,2,right_wrist,-0.122,0.0176,-0.9653,1.19,-2.94,-0.56,0.05898897969276396,0.5761997031327112,0.8145834443073806,-0.031112933723882536,179.00052538507276,7.582718738577751,109.38602212565435,3
1767129975.259,1,left_wrist,-0.082,0.1318,-0.9736,0.77,-25.27,-2.66,-0.19448750510381016,0.8402107217946996,-0.42721126964873946,-0.2714978534442541,-173.03978423748313,38.491997432874754,-51.47008614306945,3
1767129975.259,2,right_wrist,-0.122,0.0176,-0.9653,1.19,-2.94,-0.56,0.05898897969276396,0.5761997031327112,0.8145834443073806,-0.031112933723882536,179.00052538507276,7.582718738577751,109.38602212565435,3
1767129975.275,1,left_wrist,-0.082,0.1318,-0.9736,0.77,-25.27,-2.66,-0.19448750510381016,0.8402107217946996,-0.42721126964873946,-0.2714978534442541,-173.03978423748313,38.491997432874754,-51.47008614306945,3
1767129975.275,2,right_wrist,-0.122,0.0176,-0.9653,1.19,-2.94,-0.56,0.05898897969276396,0.5761997031327112,0.8145834443073806,-0.031112933723882536,179.00052538507276,7.582718738577751,109.38602212565435,3
1767129975.297,1,left_wrist,-0.082,0.1318,-0.9736,0.77,-25.27,-2.66,-0.19448750510381016,0.8402107217946996,-0.42721126964873946,-0.2714978534442541,-173.03978423748313,38.491997432874754,-51.47008614306945,3
1767129975.297,2,right_wrist,-0.122,0.0176,-0.9653,1.19,-2.94,-0.56,0.05898897969276396,0.5761997031327112,0.8145834443073806,-0.031112933723882536,179.00052538507276,7.582718738577751,109.38602212565435,3
1767129975.321,1,left_wrist,-0.082,0.1318,-0.9736,0.77,-25.27,-2.66,-0.19448750510381016,0.8402107217946996,-0.42721126964873946,-0.2714978534442541,-173.03978423748313,38.491997432874754,-51.47008614306945,3
1767129975.321,2,right_wrist,-0.122,0.0176,-0.9653,1.19,-2.94,-0.56,0.05898897969276396,0.5761997031327112,0.8145834443073806,-0.031112933723882536,179.00052538507276,7.582718738577751,109.38602212565435,3
1767129975.349,1,left_wrist,-0.082,0.1318,-0.9736,0.77,-25.27,-2.66,-0.19448750510381016,0.8402107217946996,-0.42721126964873946,-0.2714978534442541,-173.03978423748313,38.491997432874754,-51.47008614306945,3
1767129975.349,2,right_wrist,-0.122,0.0176,-0.9653,1.19,-2.94,-0.56,0.05898897969276396,0.5761997031327112,0.8145834443073806,-0.031112933723882536,179.00052538507276,7.582718738577751,109.38602212565435,3
1767129975.378,1,left_wrist,-0.082,0.1318,-0.9736,0.77,-25.27,-2.66,-0.19448750510381016,0.8402107217946996,-0.42721126964873946,-0.2714978534442541,-173.03978423748313,38.491997432874754,-51.47008614306945,3
1767129975.378,2,right_wrist,-0.122,0.0176,-0.9653,1.19,-2.94,-0.56,0.05898897969276396,0.5761997031327112,0.8145834443073806,-0.031112933723882536,179.00052538507276,7.582718738577751,109.38602212565435,3
1767129975.407,1,left_wrist,-0.082,0.1318,-0.9736,0.77,-25.27,-2.66,-0.19448750510381016,0.8402107217946996,-0.42721126964873946,-0.2714978534442541,-173.03978423748313,38.491997432874754,-51.47008614306945,3
1767129975.407,2,right_wrist,-0.122,0.0176,-0.9653,1.19,-2.94,-0.56,0.05898897969276396,0.5761997031327112,0.8145834443073806,-0.031112933723882536,179.00052538507276,7.582718738577751,109.38602212565435,3
1767129975.429,1,left_wrist,-0.082,0.1318,-0.9736,0.77,-25.27,-2.66,-0.19448750510381016,0.8402107217946996,-0.42721126964873946,-0.2714978534442541,-173.03978423748313,38.491997432874754,-51.47008614306945,3
1767129975.429,2,right_wrist,-0.122,0.0176,-0.9653,1.19,-2.94,-0.56,0.05898897969276396,0.5761997031327112,0.8145834443073806,-0.031112933723882536,179.00052538507276,7.582718738577751,109.38602212565435,3
1767129975.451,1,left_wrist,-0.082,0.1318,-0.9736,0.77,-25.27,-2.66,-0.19448750510381016,0.8402107217946996,-0.42721126964873946,-0.2714978534442541,-173.03978423748313,38.491997432874754,-51.47008614306945,3
1767129975.451,2,right_wrist,-0.122,0.0176,-0.9653,1.19,-2.94,-0.56,0.05898897969276396,0.5761997031327112,0.8145834443073806,-0.031112933723882536,179.00052538507276,7.582718738577751,109.38602212565435,3
1767129975.473,1,left_wrist,-0.082,0.1318,-0.9736,0.77,-25.27,-2.66,-0.19448750510381016,0.8402107217946996,-0.42721126964873946,-0.2714978534442541,-173.03978423748313,38.491997432874754,-51.47008614306945,3
1767129975.473,2,right_wrist,-0.122,0.0176,-0.9653,1.19,-2.94,-0.56,0.05898897969276396,0.5761997031327112,0.8145834443073806,-0.031112933723882536,179.00052538507276,7.582718738577751,109.38602212565435,3
1767129975.497,1,left_wrist,-0.082,0.1318,-0.9736,0.77,-25.27,-2.66,-0.19448750510381016,0.8402107217946996,-0.42721126964873946,-0.2714978534442541,-173.03978423748313,38.491997432874754,-51.47008614306945,3
1767129975.497,2,right_wrist,-0.122,0.0176,-0.9653,1.19,-2.94,-0.56,0.05898897969276396,0.5761997031327112,0.8145834443073806,-0.031112933723882536,179.00052538507276,7.582718738577751,109.38602212565435,3
1767129975.522,1,left_wrist,-0.082,0.1318,-0.9736,0.77,-25.27,-2.66,-0.19448750510381016,0.8402107217946996,-0.42721126964873946,-0.2714978534442541,-173.03978423748313,38.491997432874754,-51.47008614306945,3
1767129975.522,2,right_wrist,-0.122,0.0176,-0.9653,1.19,-2.94,-0.56,0.05898897969276396,0.5761997031327112,0.8145834443073806,-0.031112933723882536,179.00052538507276,7.582718738577751,109.38602212565435,3
1767129975.551,1,left_wrist,-0.082,0.1318,-0.9736,0.77,-25.27,-2.66,-0.19448750510381016,0.8402107217946996,-0.42721126964873946,-0.2714978534442541,-173.03978423748313,38.491997432874754,-51.47008614306945,3
1767129975.551,2,right_wrist,-0.122,0.0176,-0.9653,1.19,-2.94,-0.56,0.05898897969276396,0.5761997031327112,0.8145834443073806,-0.031112933723882536,179.00052538507276,7.582718738577751,109.38602212565435,3
1767129975.581,1,left_wrist,-0.082,0.1318,-0.9736,0.77,-25.27,-2.66,-0.19448750510381016,0.8402107217946996,-0.42721126964873946,-0.2714978534442541,-173.03978423748313,38.491997432874754,-51.47008614306945,3
1767129975.581,2,right_wrist,-0.122,0.0176,-0.9653,1.19,-2.94,-0.56,0.05898897969276396,0.5761997031327112,0.8145834443073806,-0.031112933723882536,179.00052538507276,7.582718738577751,109.38602212565435,3
1767129975.61,1,left_wrist,-0.082,0.1318,-0.9736,0.77,-25.27,-2.66,-0.19448750510381016,0.8402107217946996,-0.42721126964873946,-0.2714978534442541,-173.03978423748313,38.491997432874754,-51.47008614306945,3
1767129975.61,2,right_wrist,-0.122,0.0176,-0.9653,1.19,-2.94,-0.56,0.05898897969276396,0.5761997031327112,0.8145834443073806,-0.031112933723882536,179.00052538507276,7.582718738577751,109.38602212565435,3
1767129975.641,1,left_wrist,-0.082,0.1318,-0.9736,0.77,-25.27,-2.66,-0.19448750510381016,0.8402107217946996,-0.42721126964873946,-0.2714978534442541,-173.03978423748313,38.491997432874754,-51.47008614306945,3
1767129975.641,2,right_wrist,-0.122,0.0176,-0.9653,1.19,-2.94,-0.56,0.05898897969276396,0.5761997031327112,0.8145834443073806,-0.031112933723882536,179.00052538507276,7.582718738577751,109.38602212565435,3
1767129975.66,1,left_wrist,-0.082,0.1318,-0.9736,0.77,-25.27,-2.66,-0.19448750510381016,0.8402107217946996,-0.42721126964873946,-0.2714978534442541,-173.03978423748313,38.491997432874754,-51.47008614306945,3
1767129975.66,2,right_wrist,-0.122,0.0176,-0.9653,1.19,-2.94,-0.56,0.05898897969276396,0.5761997031327112,0.8145834443073806,-0.031112933723882536,179.00052538507276,7.582718738577751,109.38602212565435,3
1767129975.672,1,left_wrist,-0.082,0.1318,-0.9736,0.77,-25.27,-2.66,-0.19448750510381016,0.8402107217946996,-0.42721126964873946,-0.2714978534442541,-173.03978423748313,38.491997432874754,-51.47008614306945,3
1767129975.672,2,right_wrist,-0.122,0.0176,-0.9653,1.19,-2.94,-0.56,0.05898897969276396,0.5761997031327112,0.8145834443073806,-0.031112933723882536,179.00052538507276,7.582718738577751,109.38602212565435,3
1767129975.685,1,left_wrist,-0.082,0.1318,-0.9736,0.77,-25.27,-2.66,-0.19448750510381016,0.8402107217946996,-0.42721126964873946,-0.2714978534442541,-173.03978423748313,38.491997432874754,-51.47008614306945,3
1767129975.685,2,right_wrist,-0.122,0.0176,-0.9653,1.19,-2.94,-0.56,0.05898897969276396,0.5761997031327112,0.8145834443073806,-0.031112933723882536,179.00052538507276,7.582718738577751,109.38602212565435,3
1767129975.699,1,left_wrist,-0.082,0.1318,-0.9736,0.77,-25.27,-2.66,-0.19448750510381016,0.8402107217946996,-0.42721126964873946,-0.2714978534442541,-173.03978423748313,38.491997432874754,-51.47008614306945,3
1767129975.699,2,right_wrist,-0.122,0.0176,-0.9653,1.19,-2.94,-0.56,0.05898897969276396,0.5761997031327112,0.8145834443073806,-0.031112933723882536,179.00052538507276,7.582718738577751,109.38602212565435,3
1767129975.712,1,left_wrist,-0.082,0.1318,-0.9736,0.77,-25.27,-2.66,-0.19448750510381016,0.8402107217946996,-0.42721126964873946,-0.2714978534442541,-173.03978423748313,38.491997432874754,-51.47008614306945,3
1767129975.712,2,right_wrist,-0.122,0.0176,-0.9653,1.19,-2.94,-0.56,0.05898897969276396,0.5761997031327112,0.8145834443073806,-0.031112933723882536,179.00052538507276,7.582718738577751,109.38602212565435,3
1767129975.725,1,left_wrist,-0.082,0.1318,-0.9736,0.77,-25.27,-2.66,-0.19448750510381016,0.8402107217946996,-0.42721126964873946,-0.2714978534442541,-173.03978423748313,38.491997432874754,-51.47008614306945,3
1767129975.725,2,right_wrist,-0.122,0.0176,-0.9653,1.19,-2.94,-0.56,0.05898897969276396,0.5761997031327112,0.8145834443073806,-0.031112933723882536,179.00052538507276,7.582718738577751,109.38602212565435,3
1767129975.742,1,left_wrist,-0.082,0.1318,-0.9736,0.77,-25.27,-2.66,-0.19448750510381016,0.8402107217946996,-0.42721126964873946,-0.2714978534442541,-173.03978423748313,38.491997432874754,-51.47008614306945,3
1767129975.742,2,right_wrist,-0.122,0.0176,-0.9653,1.19,-2.94,-0.56,0.05898897969276396,0.5761997031327112,0.8145834443073806,-0.031112933723882536,179.00052538507276,7.582718738577751,109.38602212565435,3
1767129975.76,1,left_wrist,-0.082,0.1318,-0.9736,0.77,-25.27,-2.66,-0.19448750510381016,0.8402107217946996,-0.42721126964873946,-0.2714978534442541,-173.03978423748313,38.491997432874754,-51.47008614306945,3
1767129975.76,2,right_wrist,-0.122,0.0176,-0.9653,1.19,-2.94,-0.56,0.05898897969276396,0.5761997031327112,0.8145834443073806,-0.031112933723882536,179.00052538507276,7.582718738577751,109.38602212565435,3
1767129975.776,1,left_wrist,-0.082,0.1318,-0.9736,0.77,-25.27,-2.66,-0.19448750510381016,0.8402107217946996,-0.42721126964873946,-0.2714978534442541,-173.03978423748313,38.491997432874754,-51.47008614306945,3
1767129975.776,2,right_wrist,-0.122,0.0176,-0.9653,1.19,-2.94,-0.56,0.05898897969276396,0.5761997031327112,0.8145834443073806,-0.031112933723882536,179.00052538507276,7.582718738577751,109.38602212565435,3
1767129975.793,1,left_wrist,-0.082,0.1318,-0.9736,0.77,-25.27,-2.66,-0.19448750510381016,0.8402107217946996,-0.42721126964873946,-0.2714978534442541,-173.03978423748313,38.491997432874754,-51.47008614306945,3
1767129975.793,2,right_wrist,-0.122,0.0176,-0.9653,1.19,-2.94,-0.56,0.05898897969276396,0.5761997031327112,0.8145834443073806,-0.031112933723882536,179.00052538507276,7.582718738577751,109.38602212565435,3
1767129975.813,1,left_wrist,-0.082,0.1318,-0.9736,0.77,-25.27,-2.66,-0.19448750510381016,0.8402107217946996,-0.42721126964873946,-0.2714978534442541,-173.03978423748313,38.491997432874754,-51.47008614306945,3
1767129975.813,2,right_wrist,-0.122,0.0176,-0.9653,1.19,-2.94,-0.56,0.05898897969276396,0.5761997031327112,0.8145834443073806,-0.031112933723882536,179.00052538507276,7.582718738577751,109.38602212565435,3
1767129975.83,1,left_wrist,-0.082,0.1318,-0.9736,0.77,-25.27,-2.66,-0.19448750510381016,0.8402107217946996,-0.42721126964873946,-0.2714978534442541,-173.03978423748313,38.491997432874754,-51.47008614306945,3
1767129975.83,2,right_wrist,-0.122,0.0176,-0.9653,1.19,-2.94,-0.56,0.05898897969276396,0.5761997031327112,0.8145834443073806,-0.031112933723882536,179.00052538507276,7.582718738577751,109.38602212565435,3
1767129975.85,1,left_wrist,-0.082,0.1318,-0.9736,0.77,-25.27,-2.66,-0.19448750510381016,0.8402107217946996,-0.42721126964873946,-0.2714978534442541,-173.03978423748313,38.491997432874754,-51.47008614306945,3
