timestamp,node_id,node_name,ax,ay,az,gx,gy,gz,qw,qx,qy,qz,roll,pitch,yaw,rep_number
1767470993.32367,1,left_wrist,0.3382,-0.551,1.18,57.26,238.7,114.94,-0.8891622434988768,0.1388587290862401,-0.14872388976412462,0.4098657862105923,-21.907418027297204,8.664738909512375,-51.175437152528914,1
1767470993.32367,2,right_wrist,0.2591,1.0341,0.935,-71.19,181.86,-181.44,0.8357153269594074,0.4062423166592991,0.09764519059631624,-0.356388115954819,43.115850226897315,26.92135295853425,-35.38730848287799,1
1767470993.3790941,1,left_wrist,0.0512,-0.3992,0.955,0.84,244.23,73.22,-0.8691533490872398,0.03351366547134214,-0.3291429511068421,0.3675788456015774,-21.025513785843728,33.19659997943928,-52.18069473721064,1
1767470993.3790941,2,right_wrist,-0.0337,0.6949,0.7174,-39.41,190.05,-146.44,0.809040220459181,0.41233791710259526,0.1940240049271913,-0.37119543277209943,41.8219996618035,38.32068778882551,-34.167620310625544,1
1767470993.471183,1,left_wrist,-0.1044,-0.2674,0.7452,-14.84,222.53,58.03,-0.8431341589122381,-0.0031500089996452274,-0.41140366963208524,0.3462107568113805,-22.909947958902965,44.10042376767503,-54.03261266090264,1
1767470993.471183,2,right_wrist,-0.2713,0.4163,0.3455,-32.83,162.89,-97.58,0.7504386199542633,0.41585488954107735,0.35649718546907083,-0.3698869358041046,42.02405778279168,57.4260315792218,-28.712877511749152,1
1767470993.5216231,1,left_wrist,-0.2625,-0.2923,0.5558,-8.54,197.96,48.72,-0.8126721049648474,-0.035921703306507256,-0.4810859278103521,0.3268486057893104,-25.599530222446692,53.650077144901815,-56.92656872306335,1
1767470993.5216231,2,right_wrist,-0.426,0.244,0.1425,-30.38,123.9,-74.69,0.7223030858433667,0.41693528369960764,0.4144465044192719,-0.3642489757873372,44.20865728642744,64.48179883406196,-24.78572224228342,1
1767470993.575686,1,left_wrist,-0.4363,-0.3109,0.3479,-22.75,170.45,43.47,-0.7806058697872023,-0.05683349900308239,-0.5423594864458193,0.3054023852347247,-30.902094313347398,61.81803698401398,-61.527357969020734,1
1767470993.575686,2,right_wrist,-0.5592,0.2396,0.0878,-16.38,94.08,-53.41,0.6976099179583101,0.41955235979578515,0.4567484272677075,-0.358743771993973,48.15777410583254,69.7660173112098,-19.819816736518867,1
1767470993.6293938,1,left_wrist,-0.6588,-0.1996,0.0122,-4.55,85.75,23.66,-0.7290889513995373,-0.08861503494690828,-0.6205769258148651,0.27470157566831066,-44.68608593434621,72.47714782227422,-74.81871035490596,1
1767470993.6293938,2,right_wrist,-0.5592,0.2396,0.0878,-16.38,94.08,-53.41,0.6725094319611992,0.4216689687376359,0.4964791853307936,-0.3513328382890441,55.25503669086301,74.5936961262895,-11.69485640414445,1
1767470993.72161,1,left_wrist,-0.7515,-0.2035,-0.0869,2.45,42.63,14.21,-0.7166581413057485,-0.09829636722464014,-0.6360667270960685,0.26862250719536523,-49.50238611373614,74.68624225538571,-79.85438989968272,1
1767470993.72161,2,right_wrist,-0.9165,0.202,0.02,-11.9,12.04,-3.85,0.6587079009726811,0.4227993632285205,0.5207537238728985,-0.3408227673178994,63.6404215837098,76.96906881331297,-2.2002655369976476,1
1767470993.7815769,1,left_wrist,-0.9389,-0.2084,0.141,-2.17,3.01,-0.42,-0.7097744744026303,-0.10144089746028004,-0.6437273468328789,0.26747905104591935,-53.06161453334331,75.48204001788427,-83.55475821471799,1
1767470993.7815769,2,right_wrist,-0.936,0.1796,0.0449,9.66,5.25,1.82,0.6536017495597487,0.42781914545869393,0.5229554715460394,-0.3410177510504225,66.76320550847721,77.26422091662772,0.43692521382529104,1
1767470993.835745,1,left_wrist,-0.9755,-0.2352,0.0522,-12.04,1.4,-2.8,-0.7071495357100789,-0.096650847711825,-0.6484446397173429,0.26479746411824057,-55.82471149085023,75.53042289255086,-85.6841152922445,1
1767470993.835745,2,right_wrist,-0.936,0.1796,0.0449,9.66,5.25,1.82,0.6483919900314523,0.4326067430617244,0.5252362423944525,-0.34141781265179505,69.92299451784382,77.55870050726575,3.1121532104907033,1
1767470993.9216352,1,left_wrist,-0.9697,-0.2113,-0.0215,-4.13,-10.01,-3.64,-0.7074500044545295,-0.0935381043659683,-0.6487406807369267,0.2643872980797233,-56.251241760215905,75.32169491985562,-85.81999178238902,1
1767470993.9216352,2,right_wrist,-0.9477,0.2245,0.0659,-2.45,-22.68,10.43,0.6576274284101817,0.4376543322298336,0.5120569455158634,-0.3373166693657964,68.10375855175135,75.63654541863482,1.0510603890173913,1
1767470993.977677,1,left_wrist,-0.9692,-0.2684,0.1059,0.14,-23.66,-5.53,-0.7152001025647546,-0.08318227775182645,-0.6386713902359117,0.271419191019187,-53.19850958131978,73.47792153572529,-82.5525693233873,1
1767470993.977677,2,right_wrist,-0.9223,0.2542,0.0815,4.9,-27.79,15.4,0.6659312819485035,0.4415397838452685,0.4986386120171901,-0.3360620204811404,65.96303188741253,73.92242194869004,-1.5002992091334197,1
1767470994.030664,1,left_wrist,-0.9374,-0.2333,0.1645,-4.83,-32.41,-12.11,-0.7211001415333852,-0.07097513546927355,-0.6308124870817553,0.2775837210057177,-51.93723561902345,71.65180652737446,-80.85224714347144,1
1767470994.030664,2,right_wrist,-0.8686,0.2103,0.0864,23.52,-38.85,25.97,0.6709270584088651,0.4477677981751122,0.48197445048402704,-0.342142529208018,63.62235400293024,72.39044216978962,-5.211621564123892,1
1767470994.119591,1,left_wrist,-0.8667,-0.2225,0.0976,-23.8,-48.23,-20.23,-0.7303336843182673,-0.05257247313136801,-0.6217923592592061,0.277890457889125,-50.54471826822485,69.62773081574656,-78.01271501860796,1
1767470994.119591,2,right_wrist,-0.7354,0.2469,0.1127,44.03,-78.75,62.44,0.6957381477729855,0.47438486259692275,0.41167247413828,-0.3484726759864843,60.51939236232846,64.6157026718172,-12.708735400896527,1
1767470994.1716008,1,left_wrist,-0.7886,-0.2596,0.1235,-28.0,-70.07,-30.38,-0.7434521057062009,-0.025849186893229216,-0.6060319939957094,0.2816664841821964,-48.919012076399525,66.30151529764078,-74.59332125907898,1
1767470994.1716008,2,right_wrist,-0.6827,0.3631,0.1767,52.5,-101.71,80.29,0.715614534634344,0.4903562339835356,0.35219118920799586,-0.3512947022911287,59.18441062750432,58.05813736066788,-17.306374650523946,1
1767470994.226368,1,left_wrist,-0.7954,-0.2045,0.1606,-34.65,-91.7,-42.14,-0.7610210559099503,0.005401459702476212,-0.5828907933384715,0.2847035295461475,-46.70872425313813,62.14203699125218,-70.18976223655562,1
1767470994.226368,2,right_wrist,-0.6085,0.4402,0.3767,-3.64,-123.34,89.11,0.7495114671863925,0.4816740147061847,0.29150845600631625,-0.34820327998130796,54.808172912271026,50.57159505981247,-22.31393104328667,1
1767470994.2815192,1,left_wrist,-0.5954,-0.2855,0.3587,-15.19,-134.68,-68.81,-0.8037802706326926,0.09136236262523567,-0.4985693818646536,0.3114783567188376,-43.25757742570704,48.12180667319916,-62.4438938449486,1
1767470994.2815192,2,right_wrist,-0.5217,0.6861,0.3445,79.17,-102.69,102.48,0.7606572801397309,0.5053709983143062,0.22001597175443813,-0.3429192738913621,57.584524725449505,42.94659803131431,-24.135614787945812,1
1767470994.369577,1,left_wrist,-0.5324,-0.6847,0.489,-72.17,-148.33,-88.97,-0.8174304836095208,0.15972968118788622,-0.44990623823850784,0.3223014275605932,-45.36643743913253,39.240131483989565,-59.9862009211248,1
1767470994.369577,2,right_wrist,-0.2323,0.7881,0.4343,66.36,-127.75,136.01,0.7783798756794196,0.5366294237151055,0.05938499822437252,-0.32035457344382695,62.39110293652829,25.86623255214995,-28.908355013303545,1
1767470994.421546,1,left_wrist,-0.4236,-0.4187,0.6783,6.51,-151.13,-93.38,-0.8333097748417104,0.19585906462665184,-0.38389672949427944,0.3462041984731366,-43.297287125086726,30.27795136372529,-57.37991245544426,1
1767470994.421546,2,right_wrist,-0.0615,0.6993,0.5212,52.85,-125.51,156.66,0.7896190635756676,0.5369732352096481,-0.03047536721031257,-0.2953518767500327,64.04916785246579,15.608591496882973,-31.216451723162596,1
1767470994.472606,1,left_wrist,-0.2616,-0.9799,0.5876,-147.42,-153.79,-130.13,-0.8202504588289458,0.2968994418382242,-0.33608425091426203,0.3550877110158195,-50.52162102192144,19.9070859265319,-56.28315766710795,1
1767470994.472606,2,right_wrist,0.0752,1.0502,0.7135,63.49,-120.61,154.0,0.7913964058384524,0.5368589734937221,-0.11900413693467997,-0.26704341743933435,66.59879268077447,5.645339581754408,-33.582288849754796,1
1767470994.5272782,1,left_wrist,0.1137,-1.1219,0.6554,-188.86,-138.67,-207.27,-0.7528285098019581,0.4715234012793458,-0.20996594516524925,0.40844732677076445,-62.07745047949863,-3.959323474860619,-54.580864546481116,1
1767470994.5272782,2,right_wrist,0.162,1.1863,0.5539,71.61,-102.97,149.8,0.7848589011268489,0.5381162535296731,-0.20105300207554555,-0.23238995969179552,70.07750418136148,-3.755036691954682,-35.620706436825095,1
1767470994.581641,1,left_wrist,0.2538,-0.8433,0.5046,-297.64,-86.94,-243.25,-0.6456937557750688,0.5989829561461921,-0.17761361003289225,0.43903575882898005,-76.72179554249851,-17.2524178173141,-54.73353677462895,1
1767470994.581641,2,right_wrist,0.162,1.1863,0.5539,71.61,-102.97,149.8,0.7734235683195402,0.533980906221202,-0.2787354593324646,-0.1974510558841702,73.66511600044873,-12.726123022489265,-38.19168314959909,1
1767470996.4711192,1,left_wrist,0.0908,-0.5797,0.956,50.05,134.4,80.43,-0.8787087822347504,0.15894297234581994,-0.18306006736295544,0.41121407965008716,-25.972834067293707,11.010786995446102,-52.70358971718156,2
1767470996.4711192,2,right_wrist,-0.1186,0.7291,0.6305,-40.67,91.91,-101.64,0.8237539950953772,0.43243970115635555,0.013985445819164007,-0.36637367227114764,48.30167447933923,19.871401629209767,-38.97323298546602,2
1767470996.521211,1,left_wrist,-0.0547,-0.4953,0.955,29.19,138.25,68.81,-0.8799712579898368,0.12014063645511665,-0.23134028434690374,0.39711268605049305,-24.576040008648242,18.163329972281613,-52.56545449125913,2
1767470996.521211,2,right_wrist,-0.2499,0.7291,0.6422,-34.65,93.73,-89.32,0.8155479872896744,0.4329042310787589,0.06569550246236114,-0.37836425319800965,46.79256015924117,25.769173401054235,-38.47247723457007,2
1767470996.576391,1,left_wrist,-0.3187,-0.4124,0.8398,13.44,137.34,54.25,-0.8667079914761298,0.0565898519582771,-0.32990044796861884,0.36983853314231335,-23.79314770796375,32.00521791570993,-53.13260158283038,2
1767470996.576391,2,right_wrist,-0.3597,0.6632,0.5861,-31.22,88.9,-78.54,0.8058369868290919,0.43450692483241643,0.11276132105239804,-0.3861545900353957,45.76787521580345,31.15186167066157,-37.786342128224675,2
1767470996.6337228,1,left_wrist,-0.4275,-0.3953,0.7818,-1.61,133.49,42.91,-0.8530425553928412,0.0330878192813278,-0.3785303835598451,0.35768469861890123,-24.707040298000084,38.47221444171736,-54.23756111309691,2
1767470996.6337228,2,right_wrist,-0.4675,0.5646,0.5617,-28.42,82.6,-68.25,0.7966249295785464,0.43190799452382767,0.15707349806501203,-0.3926475799568897,44.35910996193554,36.11675313645021,-37.33344575698374,2
1767470996.72268,1,left_wrist,-0.5031,-0.3235,0.6661,-5.04,130.41,34.58,-0.8360613283728849,0.011775907238192407,-0.4248306472970714,0.3469606668272872,-26.213046079843817,44.603568441838206,-55.986508677332175,2
1767470996.72268,2,right_wrist,-0.6217,0.4299,0.5134,-19.25,85.05,-52.85,0.7729784182721878,0.429586617808976,0.24355893904355558,-0.39829479772757365,42.54240890652647,45.95020719275282,-35.77724126544271,2
1767470996.777612,1,left_wrist,-0.6588,-0.2826,0.4377,-2.87,97.51,14.63,-0.7945707916622434,-0.019489516650275374,-0.5092302036428366,0.3300939494687078,-32.41800879884015,55.2961347843352,-62.43695408631565,2
1767470996.777612,2,right_wrist,-0.6827,0.4202,0.4075,-18.27,79.52,-44.1,0.7576902256227803,0.4343421954650691,0.284021177815977,-0.39570740426015444,43.2113112033362,50.7275782471839,-33.885301583911044,2
1767470996.832042,1,left_wrist,-0.7218,-0.2811,0.3704,-4.55,86.59,7.63,-0.7739379217872691,-0.031307671156388654,-0.5424998993658385,0.32516731406219385,-36.62510889112741,59.32589801766428,-66.92835812565728,2
1767470996.832042,2,right_wrist,-0.733,0.3675,0.345,-14.91,69.44,-37.87,0.7427973884930105,0.43803368237798695,0.3193479210950733,-0.3929318491069404,44.1174038101329,54.95051686257024,-31.958036832260316,2
1767470996.883274,1,left_wrist,-0.7784,-0.2952,0.3172,-3.08,70.84,5.95,-0.7555936653019448,-0.04075269132133807,-0.5694378461296037,0.3211821453644616,-41.145076371285995,62.46211617558761,-71.70059583965198,2
1767470996.883274,2,right_wrist,-0.7764,0.3948,0.3094,-17.08,63.07,-29.75,0.7301981674704979,0.4417582299921525,0.34948513319337704,-0.38667873504206923,45.73101670783932,58.43247987116575,-29.266767434131417,2
1767470996.970274,1,left_wrist,-0.8013,-0.3192,0.2328,-8.61,57.26,6.16,-0.7399074938489096,-0.04617833945891897,-0.5920494541482562,0.31604098682575127,-46.068212767677444,64.86535750238782,-76.49502129647108,2
1767470996.970274,2,right_wrist,-0.8359,0.3235,0.2284,-2.45,49.91,-17.15,0.7041740164207803,0.45273415013534907,0.3973149354564036,-0.37591433327597923,51.00879118415314,64.14968492872737,-22.899386790244534,2
1767470997.021662,1,left_wrist,-0.8281,-0.3587,0.1664,-3.22,40.25,9.94,-0.7284774269956341,-0.0515705310437545,-0.6079016512090248,0.31163552612471285,-49.92102515042957,66.61054174036265,-80.33059914505893,2
1767470997.021662,2,right_wrist,-0.8672,0.2923,0.2216,3.29,44.73,-12.32,0.6911913527520349,0.4592702203079252,0.41599059712371994,-0.37185642622358034,54.51614996813119,66.4373296684635,-19.272658630392957,2
1767470997.079561,1,left_wrist,-0.9091,-0.284,0.2025,-3.78,9.59,7.63,-0.719119907968226,-0.05963130727402744,-0.6239812229812068,0.2999301560754404,-53.41327942795285,68.94007354402969,-83.38769337035349,2
1767470997.079561,2,right_wrist,-0.8745,0.2918,0.1937,-6.23,35.56,-10.01,0.6818350076866218,0.4619422152606159,0.4325991496845674,-0.36683564132358876,57.52378082390607,68.25412468990521,-15.750806305113292,2
1767470997.1707299,1,left_wrist,-0.9394,-0.2747,0.2952,9.03,5.74,2.59,-0.7198325576992427,-0.06419477750680846,-0.6217599682953445,0.301885178904811,-52.31592695399926,69.04875562469611,-82.84135536371952,2
1767470997.1707299,2,right_wrist,-0.9536,0.2782,0.1337,-11.06,24.85,-10.92,0.6693767243713956,0.4605361611495582,0.4590907741966322,-0.3592727462402146,61.71083812438601,71.00122567537414,-10.284461364763525,2
1767470997.2272372,1,left_wrist,-0.9633,-0.3123,0.1122,-8.05,29.96,0.0,-0.7058836040153943,-0.06915907747451301,-0.6375643025115969,0.3007609012953866,-58.16972084008058,70.33785704126218,-88.95963387606024,2
1767470997.2272372,2,right_wrist,-0.9077,0.3079,0.0254,-11.9,17.78,-8.75,0.6650200887028672,0.4604895188946214,0.4692749899008603,-0.35422968320480747,64.18342339513649,71.877324571588,-7.192955249807229,2
1767470997.320624,1,left_wrist,-0.8882,-0.2733,0.0366,-7.0,8.26,-1.4,-0.7014163995835881,-0.06792671572193948,-0.6438311707852049,0.298131546824182,-60.73347564155714,70.68071946857478,-91.17809914018116,2
1767470997.320624,2,right_wrist,-0.9462,0.2801,0.1015,0.14,1.89,-3.71,0.6602473755399314,0.462308014509928,0.4771670248008702,-0.35022326201325726,67.01640279056947,72.53846147064242,-4.065117941056258,2
1767470997.37126,1,left_wrist,-0.9711,-0.3172,0.2162,9.94,-2.8,-1.19,-0.703416240109969,-0.0689709883601693,-0.6392265295717345,0.3030479166829104,-59.17808064325652,70.23502644402653,-90.15201371954146,2
1767470997.37126,2,right_wrist,-0.9438,0.265,0.0825,2.66,-1.12,-0.42,0.6575507449571071,0.4641794693809637,0.4788490331564421,-0.3505253791905821,68.09371485756071,72.77484555482556,-3.181084787903755,2
1767470997.430563,1,left_wrist,-0.9096,-0.3094,0.041,-3.92,-7.21,-2.45,-0.7013457527429237,-0.06675077735899194,-0.6437119728038239,0.29881995398641226,-60.8478841560325,70.53104893619249,-91.25793092339364,2
1767470997.430563,2,right_wrist,-0.9292,0.2318,0.0273,12.39,-7.7,6.02,0.6550609000523354,0.46878068509890136,0.4761525918793917,-0.35273020248819986,68.95775814139533,72.65445330802666,-3.0181161887877037,2
1767470997.521292,1,left_wrist,-0.9145,-0.3289,0.143,2.31,-20.79,-2.66,-0.7046168659165994,-0.06075443501814208,-0.638711390432721,0.30310349820316446,-59.630986324537105,69.54113889202766,-89.94229056401397,2
1767470997.521292,2,right_wrist,-0.815,0.2001,-0.0044,33.67,-37.17,30.73,0.6593764849621373,0.4855835313341888,0.4473243984505967,-0.3596278183439194,68.07942084815659,69.91247769778978,-6.660086049135961,2
1767470997.580827,1,left_wrist,-0.8316,-0.3431,0.0512,-10.78,-59.29,-17.43,-0.7221586949981557,-0.030689020407441325,-0.6208264729191917,0.3035119335177917,-55.64975831406841,66.24828717857295,-83.59811049183593,2
1767470997.580827,2,right_wrist,-0.7847,0.303,0.0556,49.28,-61.11,52.71,0.6673306865770015,0.5028809001692591,0.41107134319794875,-0.36441858596819354,67.19109385904699,66.22836507917422,-10.424522476528951,2
1767470997.6313841,1,left_wrist,-0.6964,-0.4812,0.2235,-14.56,-117.11,-26.74,-0.7486764360441643,0.00047868643227301955,-0.5849133311824821,0.3120252553504599,-49.194547362096316,61.10692497443533,-75.49319976944199,2
1767470997.6313841,2,right_wrist,-0.7515,0.2762,0.04,38.57,-78.54,61.67,0.6796876060418131,0.5137073463476852,0.37067930810398997,-0.3697652918340439,65.04449592800339,62.103542138599416,-15.090463374964703,2
1767470997.72016,1,left_wrist,-0.6964,-0.4812,0.2235,-14.56,-117.11,-26.74,-0.7720086389112496,0.03176938693546165,-0.5489555018557629,0.31881220880391675,-45.27428731865739,55.82643742339509,-69.79362152792787,2
1767470997.72016,2,right_wrist,-0.5807,0.4685,0.1996,38.01,-111.09,102.97,0.7195764294599756,0.5346936815142644,0.2466809761648923,-0.3680501665706603,62.46562405386712,48.469235910609335,-23.641752616801007,2
1767470997.7787971,1,left_wrist,-0.5524,-0.4368,0.3401,-55.44,-135.38,-68.74,-0.8056747289020482,0.14670169443461856,-0.4655633030508415,0.33558554037832666,-46.35698879752882,40.67165322043909,-63.259638552299315,2
1767470997.7787971,2,right_wrist,-0.4797,0.6427,0.4553,45.85,-108.85,127.12,0.7409525296583207,0.5425976196038916,0.17166684853406194,-0.3565216194110947,62.67350203802858,39.888044251460286,-26.472636731963522,2
1767470997.873346,1,left_wrist,-0.4338,-0.5275,0.4133,-18.41,-158.48,-81.2,-0.8211315489754845,0.19638030938237433,-0.40465338296617137,0.35133088822083025,-45.54623066763763,31.773212077542617,-59.955241705002344,2
1767470997.873346,2,right_wrist,-0.3006,0.7296,0.4631,74.48,-79.66,143.36,0.7658142897634448,0.5625810274159646,0.02191765258304877,-0.31072604926358716,66.65335240862129,22.53122454482653,-29.245079739344657,2
1767470997.9277608,1,left_wrist,-0.0669,-0.6817,0.5949,-22.96,-165.41,-143.99,-0.8137521497167588,0.34553927926932804,-0.2667351888435517,0.38374781347387754,-51.10223834325604,9.724611863786036,-55.15277338549996,2
1767470997.9277608,2,right_wrist,-0.1532,0.9389,0.3206,58.94,-89.25,146.79,0.7700323677799932,0.570348830083789,-0.055758044726805074,-0.2804343150212437,69.32979520790886,13.533848539548956,-30.639979066510357,2
1767470997.978604,1,left_wrist,0.0625,-0.4729,0.9633,-171.78,-154.28,-157.99,-0.7747214537980317,0.44588332918582624,-0.21228754867164726,0.3948781108876658,-59.17736531472358,-1.3300517122050461,-53.26093188929395,2
1767470997.978604,2,right_wrist,0.0102,0.8013,0.4353,85.54,-82.74,162.68,0.7654636406955541,0.5804204743068254,-0.13682727255597973,-0.24177631245314157,73.1710580745979,4.082410934288386,-32.02723043483162,2
1767470998.068351,1,left_wrist,0.2801,-1.2776,0.7281,9.03,-135.87,-154.77,-0.7576092752422429,0.4807752789275052,-0.13050250426720808,0.4217255192884237,-59.0102662335335,-11.991735207947,-51.40237354757575,2
1767470998.068351,2,right_wrist,0.2533,0.9365,0.4631,119.7,-47.04,162.68,0.7367151314273129,0.5984334079336422,-0.27996322938033447,-0.1440446513755302,82.4828448922267,-13.892680460280062,-34.31980278283588,2
1767470999.984904,1,left_wrist,-0.001,-0.6608,0.8989,51.8,177.52,91.7,-0.8542751855446628,0.17188511947549678,-0.25103558756790983,0.421486117019245,-31.80241621801212,16.499833782963915,-57.25257705205202,3
1767470999.984904,2,right_wrist,-0.1093,0.7022,0.6041,-24.08,112.77,-112.35,0.7829272394311403,0.4694882100633574,0.020856514191111532,-0.40764048398562525,52.138270581135245,24.545961945830022,-42.858648314526114,3
1767471000.073527,1,left_wrist,-0.0981,-0.4821,0.8472,33.95,172.27,81.83,-0.8505041983154485,0.1196178527097497,-0.3100222388263428,0.40770134828573573,-30.35271648324766,25.45573840355124,-58.234787745062924,3
1767471000.073527,2,right_wrist,-0.3479,0.6115,0.5773,-19.46,104.58,-94.64,0.752679014356747,0.4831148781145188,0.13386334697375157,-0.4267961108402166,50.945468605680446,37.871699414684315,-40.54507744395147,3
1767471000.135575,1,left_wrist,-0.345,-0.3655,0.6803,-6.58,158.62,56.7,-0.8219933710235048,0.04320462298939503,-0.42381909618430713,0.37793866202768395,-31.5663751628144,41.612978141888746,-61.64528001051369,3
1767471000.135575,2,right_wrist,-0.4494,0.6144,0.5197,-23.45,101.01,-84.77,0.7367985429118732,0.48739320254580554,0.1854530920674949,-0.4303288555485085,50.76803456483082,43.84913314999665,-38.949868886498685,3
1767471000.2222872,1,left_wrist,-0.4836,-0.3265,0.5427,-3.36,143.57,42.98,-0.8017603207296826,0.014668457509073122,-0.47264353505350176,0.3654768299494104,-33.724339104861244,48.34597233214508,-64.50587342563895,3
1767471000.2222872,2,right_wrist,-0.6139,0.4416,0.2577,1.12,91.0,-54.81,0.6964221852205871,0.5073350264432926,0.2734728237731865,-0.4275744678227238,54.627289528922304,54.562856575562215,-33.26824570922655,3
1767471000.282721,1,left_wrist,-0.6071,-0.2923,0.2367,-13.51,93.87,14.0,-0.7557354637607807,-0.011456589686571416,-0.5570887932419303,0.3440708238303287,-44.00026868479744,58.20158515765944,-74.30603376071343,3
1767471000.282721,2,right_wrist,-0.7174,0.4997,0.2791,63.77,89.25,-41.37,0.6635452132069891,0.5406531672900095,0.2949627254914105,-0.42473390881827594,62.6632386957786,58.288941665446245,-27.746496614643448,3
1767471000.3327281,1,left_wrist,-0.7579,-0.3587,0.2333,-2.87,69.86,6.79,-0.7373254602446647,-0.021780415038418363,-0.5831582066766399,0.3402988174846236,-48.83865040746961,61.018770262344674,-79.50611833951679,3
1767471000.3327281,2,right_wrist,-0.7515,0.2518,0.1747,-27.65,53.97,-43.54,0.652635305465137,0.5352775876155055,0.32942261381504123,-0.4231144097808752,63.4393486334492,62.00065716485361,-25.163150502440466,3
1767471000.4197319,1,left_wrist,-0.8462,-0.3079,0.2001,23.87,48.51,14.21,-0.7251280142740124,-0.04153111440335816,-0.5976366752180542,0.339551076991007,-50.76758259060235,63.49944768813281,-82.91045966932211,3
1767471000.4197319,2,right_wrist,-0.8896,0.3109,0.1747,-24.5,43.19,-29.68,0.6331263231071508,0.5343998771280142,0.37612670135619397,-0.4148451938269159,68.19258534922582,66.87611631808278,-18.297452437261775,3
1767471000.4782422,1,left_wrist,-0.8984,-0.2464,0.1269,-0.14,38.29,7.14,-0.7043364870399164,-0.06206648346982589,-0.6258970365814919,0.32910600762135306,-57.24386284447703,67.29985979890634,-90.01718232288204,3
1767471000.4782422,2,right_wrist,-0.8647,0.3206,0.0034,-19.46,42.77,-15.89,0.6254118466317524,0.5359983836884598,0.39692404435768436,-0.4049901946797713,72.45608683873873,68.53326230712098,-12.798703331546852,3
1767471000.5317051,1,left_wrist,-0.8413,-0.3338,0.0039,-12.81,19.74,-6.37,-0.6960408387287674,-0.05896117075685107,-0.636784756349925,0.3264290202250744,-61.380819350342264,67.66076630924645,-93.63556145096922,3
1767471000.5317051,2,right_wrist,-0.8647,0.2601,-0.0639,-3.64,32.2,-3.01,0.6176006280839977,0.5416304766435285,0.4093325881807398,-0.39705506320208594,77.19698712189754,69.34516447836381,-7.661805954096436,3
1767471000.6193721,1,left_wrist,-0.8823,-0.306,0.1157,2.03,-1.61,-3.71,-0.6940424293663235,-0.059130950833197485,-0.6387750816919956,0.3267644899652323,-62.1847050197873,67.71632675838843,-94.479716583018,3
1767471000.6193721,2,right_wrist,-0.8857,0.3348,-0.0459,-0.49,-3.36,6.37,0.6174343704629416,0.5439398917785604,0.41627307500768934,-0.38680863398662896,79.99395401290215,69.20294070683937,-4.005688530311049,3
1767471000.6706,1,left_wrist,-0.9145,-0.3567,0.1625,-2.94,-11.76,-3.01,-0.6945762836290374,-0.05291532816297244,-0.6376955987526859,0.3287979282126535,-62.362466012266935,67.02178910739677,-94.33786162990101,3
1767471000.6706,2,right_wrist,-0.934,0.3665,0.0444,0.35,-14.0,3.43,0.6197162460449623,0.545219573045406,0.41137858063098187,-0.38659417346121955,79.38967029071101,68.65936965055576,-4.819388928903919,3
1767471000.732202,1,left_wrist,-0.9272,-0.3577,0.266,7.49,-10.57,-2.87,-0.7031986161967362,-0.052109669434464885,-0.6237040102264407,0.3373271352231867,-58.069406337729,65.82957718973844,-90.78260926383685,3
1767471000.732202,2,right_wrist,-0.9252,0.3518,0.0576,8.68,-13.79,5.95,0.6186768870314007,0.5477354220709547,0.40702576024026565,-0.38930045898087845,79.2307196770639,68.45074592427463,-5.596120723531855,3
1767471000.7860649,1,left_wrist,-0.9496,-0.3211,0.2338,11.48,-2.45,-4.27,-0.7049785201180115,-0.05759853924964459,-0.6199731105758659,0.33958951192787257,-56.53726710732301,65.95914099905836,-89.91215354133729,3
1767471000.7860649,2,right_wrist,-0.9145,0.3304,0.0854,-2.24,-17.64,8.4,0.62409983260789,0.5426044592401821,0.40135747110486863,-0.3936902083361711,76.16234823916746,68.15754349424533,-8.632988333210445,3
1767471000.871351,1,left_wrist,-0.8999,-0.3714,0.1625,-0.07,-12.32,-5.95,-0.7050195149816268,-0.052910836047081744,-0.6190948275123168,0.3418618455917027,-56.83775183831922,65.38461020749493,-90.04069666463766,3
1767471000.871351,2,right_wrist,-0.8423,0.2782,-0.0366,13.86,-23.24,22.33,0.6312476486266632,0.5499909195189986,0.37974717288869975,-0.39348250181297173,74.91532864273178,65.81852781995973,-11.127427982299587,3
1767471000.922509,1,left_wrist,-0.8989,-0.3865,0.1728,-0.28,-19.46,-4.69,-0.7071267226493454,-0.0470846816076052,-0.6159264841506964,0.3440776031578753,-56.45900855904223,64.61903175708781,-89.39976412213878,3
1767471000.922509,2,right_wrist,-0.7325,0.2386,-0.0961,22.96,-52.15,44.45,0.6391610889401335,0.5560601740493409,0.35313422803323463,-0.3969463467679871,72.92970968072427,63.23631654186445,-14.75622660531143,3
1767471000.972696,1,left_wrist,-0.7901,-0.3094,0.0761,-28.42,-41.86,-12.32,-0.714901724604285,-0.0290602176915848,-0.6103050983070092,0.3399981101212307,-55.84548986644565,63.17349824993346,-86.96958500960513,3
1767471000.972696,2,right_wrist,-0.6437,0.2826,-0.0473,21.14,-83.3,76.3,0.6569917799170848,0.5607083352698945,0.3094273859437797,-0.3977721165544962,69.88061822974593,58.5011641760869,-19.646783380196194,3
1767471001.02876,1,left_wrist,-0.7208,-0.2957,0.3138,-6.58,-109.48,-31.92,-0.7518552227973317,0.018945768359563804,-0.558726372097689,0.3495420188420773,-48.18283422847399,55.78343133765421,-76.49802483729357,3
1767471001.02876,2,right_wrist,-0.5514,0.3279,-0.0083,39.97,-106.19,109.34,0.676993527020805,0.5697744345746308,0.2461428177655354,-0.3955383310622786,68.2978419168701,51.629156772697804,-24.261008333094505,3
1767471001.082992,1,left_wrist,-0.5788,-0.4734,0.4026,-51.24,-121.87,-45.43,-0.7729411633574392,0.06840720324366795,-0.5229978165760136,0.3526410304952477,-46.93510601835382,49.485951973045466,-71.67632381959514,3
1767471001.082992,2,right_wrist,-0.4509,0.5427,0.1527,18.13,-136.64,134.26,0.709035999568342,0.565520456819526,0.1651064507676257,-0.38754925383707606,65.59123384464385,42.257747788276966,-29.35552556111524,3
1767471001.1705868,1,left_wrist,-0.5788,-0.4734,0.4026,-51.24,-121.87,-45.43,-0.7903374366811955,0.11827504758084711,-0.4855766314626514,0.35439114587885795,-46.702962211606355,43.134045600169294,-67.67165049013549,3
1767471001.1705868,2,right_wrist,-0.2367,0.8955,0.4797,43.4,-136.29,149.66,0.745616275015216,0.5608909917970069,-0.0194476449952882,-0.35927629320279547,66.48386762519804,21.964294004048195,-36.957230764038975,3
1767471001.2317572,1,left_wrist,-0.242,-0.6881,0.5592,-158.48,-187.6,-111.3,-0.8041547970883326,0.27191106212788624,-0.38830194864997014,0.35863774660086134,-52.435010028981225,25.434222085799878,-60.75453909242128,3
1767471001.2317572,2,right_wrist,-0.0239,0.7491,0.5841,44.24,-120.61,162.19,0.7580189672796075,0.5502010426734956,-0.10730364074941547,-0.3334246340138597,67.69552534505189,11.784121749939434,-39.567487547344115,3
1767471001.282912,1,left_wrist,-0.0737,-0.3938,0.408,-78.75,-168.35,-161.28,-0.79389187809597,0.3519959978053744,-0.3166787406228577,0.38150894964571036,-55.43000328333658,13.54671643808364,-58.47450970724728,3
1767471001.282912,2,right_wrist,-0.0239,0.7491,0.5841,44.24,-120.61,162.19,0.7642027060922364,0.5344771044339097,-0.19292105760139489,-0.3051391721349551,69.24300334311124,1.7946949350829593,-42.2936265798466,3
1767471001.3704388,1,left_wrist,0.2108,-0.9711,0.8276,-125.58,-205.66,-185.22,-0.7649844516054364,0.45260528203615685,-0.23174149319370874,0.3952760147128221,-61.12559635328388,-0.1862543582552885,-54.541820752021046,3
1767471001.3704388,2,right_wrist,0.4046,1.3083,0.202,98.49,-53.62,204.12,0.741037704197029,0.5449123137320462,-0.35393042201216607,-0.1693131645084767,80.47563129949086,-19.878696865140846,-42.609346238413735,3
1767471001.4220731,1,left_wrist,0.3001,-0.9233,0.6432,-214.06,-167.02,-213.78,-0.6942512790648702,0.5684446362130149,-0.16465979420858473,0.40960103667914655,-72.0430460466181,-13.711932616470262,-51.087698258116234,3
1767471001.4220731,2,right_wrist,0.6612,0.8721,0.0996,73.36,-38.64,206.08,0.7291734465856592,0.5298210612434552,-0.42216290051132327,-0.0968205210124191,84.5089141871327,-30.868194502273703,-43.28784106861408,3
1767471002.9706612,1,left_wrist,0.0737,-0.4826,0.9682,43.05,224.98,89.6,-0.8824260416377124,0.09816818603072779,-0.2782938806007742,0.3663875056701534,-24.54744808513874,24.784869290323673,-50.570505309621055,4
1767471002.9706612,2,right_wrist,-0.2303,0.6671,0.5553,-53.97,140.56,-116.41,0.7420247826909988,0.446074102221703,0.16481880808486246,-0.4724953732058787,42.747193334437505,41.769472291604245,-47.98889700405421,4
1767471003.021321,1,left_wrist,-0.0786,-0.3436,0.8115,-0.63,213.01,71.47,-0.8647085930320273,0.05707318492501413,-0.3580594892146421,0.34758467009124044,-25.2493355858777,35.4195103521827,-51.97900406716049,4
1767471003.021321,2,right_wrist,-0.3967,0.5261,0.5334,-38.43,135.03,-95.13,0.7202865617648335,0.4529422378162023,0.23060484050171864,-0.4720720344187128,41.97251854933463,49.450611372840235,-46.446851545500536,4
1767471003.074079,1,left_wrist,-0.2503,-0.2777,0.6315,-1.96,188.86,57.33,-0.8418433236838405,0.02172528293250744,-0.42615435539349905,0.3304849403975895,-26.58907203790098,44.68033006210122,-53.95965285715746,4
1767471003.074079,2,right_wrist,-0.529,0.446,0.3836,-21.14,127.33,-75.81,0.6962033950454297,0.46575027381983874,0.2855174251232643,-0.4656794123803885,43.50409427703451,56.23632917642135,-43.484322180260925,4
1767471003.127142,1,left_wrist,-0.5353,-0.2015,0.3606,-14.56,136.64,25.13,-0.7873862424957109,-0.02342872235120276,-0.5344181538298529,0.30638413300066214,-34.19241392304362,58.86411231123878,-62.21281829339038,4
1767471003.127142,2,right_wrist,-0.6085,0.368,0.2767,-18.2,115.22,-60.76,0.6727311240253069,0.47849886289618165,0.3335644864528184,-0.4551993039891161,46.78675199597246,62.180613954329,-38.92706195790195,4
1767471003.1791518,1,left_wrist,-0.6608,-0.2279,0.3279,-4.62,111.51,19.88,-0.7611573569887125,-0.038440855702347676,-0.5746645470867452,0.29819865331086753,-40.17904394851912,63.8633941266429,-68.46813025420319,4
1767471003.1791518,2,right_wrist,-0.73,0.327,0.2508,-24.01,100.73,-54.67,0.6520171650326059,0.4861110709973084,0.3766837739517993,-0.4434850364985536,50.903308015573906,67.27573070118036,-33.3024245643934,4
1767471003.231104,1,left_wrist,-0.7657,-0.2806,0.2674,-2.94,98.7,13.37,-0.7354315917411233,-0.05057495943564924,-0.6090493599183712,0.29264556126861496,-48.11079371536384,67.73318738148932,-76.75213593210316,4
1767471003.231104,2,right_wrist,-0.771,0.2991,0.1254,-21.98,93.24,-47.88,0.6303805823863661,0.49249222247585633,0.4174162755390214,-0.43108628494322254,57.47884189659545,71.96647016434942,-25.310161767674295,4
1767471003.2841878,1,left_wrist,-0.815,-0.2377,0.1664,11.34,88.27,11.2,-0.7107059706955157,-0.06911396465157271,-0.6378026045328119,0.2886661060101227,-56.771889757154845,71.1702776378558,-86.4901101725182,4
1767471003.2841878,2,right_wrist,-0.7901,0.2489,-0.0015,2.17,77.98,-34.3,0.6072011230409154,0.5035915310061061,0.4467011160044481,-0.4220906052462642,68.21524170499855,75.37460390944639,-14.372876249458166,4
1767471003.371217,1,left_wrist,-0.7901,-0.2786,-0.1171,-16.45,60.06,4.97,-0.6924217203703985,-0.07266677588804459,-0.6608972788521624,0.280154399656942,-66.74867915039478,72.93161089965147,-95.9730988975982,4
1767471003.371217,2,right_wrist,-0.8364,0.2079,-0.0659,-3.08,16.66,0.0,0.5854981790011837,0.5175422728979783,0.47081592235092895,-0.40948045791067517,84.56777872751594,77.20550186527811,2.027311565960004,4
1767471003.4236128,1,left_wrist,-0.8472,-0.2103,-0.0981,-5.67,23.24,-7.21,-0.6828188712205072,-0.0723958062263198,-0.671452177604555,0.27869196173570354,-72.31257339400301,73.19865146348948,-101.37993422801635,4
1767471003.4236128,2,right_wrist,-0.9272,0.2479,-0.021,-17.64,-3.5,2.52,0.5899883790366524,0.5158268808768468,0.47248607073009025,-0.4032285388369812,84.63935070057478,76.78393072877307,2.9188131717771393,4
1767471003.481767,1,left_wrist,-0.9472,-0.3279,0.0839,14.42,-10.64,-0.35,-0.6791423717811667,-0.0708973034231957,-0.6713791774451147,0.28807848116770607,-73.06748883667933,72.32085239485053,-102.83815107381513,4
1767471003.481767,2,right_wrist,-0.9897,0.2835,0.0249,-12.67,-8.47,1.33,0.5969298105029884,0.5135783627873897,0.4694556852020995,-0.39940383854054035,82.41816322458806,76.09953344588646,1.2814248930776277,4
1767471003.532407,1,left_wrist,-0.9819,-0.3001,0.1059,-12.74,-1.68,0.21,-0.6822041281186209,-0.0665647139557227,-0.669881612254998,0.2853511731122718,-72.18734218251602,72.17214087170318,-101.36543048167037,4
1767471003.532407,2,right_wrist,-0.9677,0.2445,-0.0073,1.68,-2.31,3.57,0.5958426571123362,0.516513384633237,0.46914317502045505,-0.3976054989455695,83.8237495402243,75.88498876291362,2.5421907546120255,4
1767471003.6210492,1,left_wrist,-0.9453,-0.2455,0.0756,0.56,-11.83,-3.29,-0.6853192520817242,-0.06767499014726065,-0.6673090198725181,0.28364818073009695,-70.67314940441736,72.36981003927704,-99.79299844915055,4
1767471003.6210492,2,right_wrist,-0.957,0.3109,0.0766,2.94,-14.91,8.05,0.604274730376107,0.5163210139778597,0.45722805068338135,-0.39900773228351505,79.35377258537874,74.71247919453651,-2.188307881637442,4
1767471003.677262,1,left_wrist,-0.9292,-0.2635,0.1039,0.84,-22.61,-3.43,-0.698204815204394,-0.06531396913712338,-0.6541939086406323,0.28332746312075857,-64.13114310889958,71.90321382559148,-93.0427578992017,4
1767471003.677262,2,right_wrist,-0.9028,0.2089,0.022,8.68,-17.43,11.48,0.6049713141467052,0.5175171429074777,0.4516804518258601,-0.40270396731951447,77.88489350401727,74.43354496822548,-4.219276693191689,4
1767471003.7281349,1,left_wrist,-0.895,-0.286,0.1244,3.57,-39.97,-4.9,-0.7070380686737625,-0.056492802032549874,-0.6426546221286576,0.28965629532475107,-60.179227356093875,70.30323177427903,-88.94791547957348,4
1767471003.7281349,2,right_wrist,-0.8062,0.2391,-0.0761,27.37,-41.51,31.92,0.6105108314698421,0.5258168964876849,0.4300889304830114,-0.407205879012129,75.20133215023137,72.43579113892565,-8.558757428891449,4
1767471003.781856,1,left_wrist,-0.8511,-0.2503,0.1142,-21.21,-48.72,-12.81,-0.7176527957071589,-0.0414556578820186,-0.6330713390532625,0.2871873481067315,-57.3315591464314,68.82189330559481,-84.68126090948681,4
1767471003.781856,2,right_wrist,-0.751,0.2679,-0.0473,44.73,-66.5,53.62,0.6201393859089422,0.5380638766458802,0.39289324442464596,-0.41418510979846,71.82462120990286,68.9095048679336,-14.632338055076064,4
1767471003.872632,1,left_wrist,-0.8096,-0.3055,0.0127,-24.99,-58.24,-28.28,-0.7279559905704046,-0.01806437508609617,-0.6211265988638256,0.28975075897962055,-55.68188875445753,66.17365098445299,-81.38776475017953,4
1767471003.872632,2,right_wrist,-0.6822,0.486,0.1342,46.41,-103.32,99.75,0.6609091075332458,0.558431140760898,0.27432127553944674,-0.419644671590742,66.03115959373045,56.23129187897078,-26.534506117747394,4
1767471003.9240131,1,left_wrist,-0.7457,-0.2338,0.122,-67.9,-99.26,-47.04,-0.7468589042782913,0.026956040167510208,-0.6003306535995611,0.28474243685731404,-53.989292343317764,61.808498118879974,-75.65463547232606,4
1767471003.9240131,2,right_wrist,-0.5588,0.4851,0.2123,45.64,-110.32,116.97,0.6846829113066973,0.5641834757546901,0.2012917151471025,-0.4151962934120199,64.99656493948915,48.08492181349648,-30.73666652898092,4
1767471003.980835,1,left_wrist,-0.6056,-0.3894,0.3187,-80.01,-154.35,-81.48,-0.7910896782412806,0.15238040720888724,-0.5169780838793769,0.28929395649990425,-52.20015882215109,46.868506148327846,-64.15077565642872,4
1767471003.980835,2,right_wrist,-0.4939,0.6617,0.4792,22.61,-120.33,131.25,0.7134252122390635,0.5572712159087859,0.12561358001738748,-0.4058256854567068,63.38564640717698,39.163960861998795,-34.49035307757395,4
1767471004.073306,1,left_wrist,-0.4153,-0.6095,0.4314,-80.36,-165.41,-109.41,-0.8055550449988712,0.2277577034167593,-0.4580438613904741,0.2990038779910622,-53.35954411770365,36.995924474729534,-59.81378764467361,4
1767471004.073306,2,right_wrist,-0.1157,0.6144,0.3836,-12.81,-123.83,164.36,0.7477849085759205,0.5558871991934902,-0.04773506178412472,-0.35990070318823336,66.44478837689084,19.192150845362026,-38.76491538074837,4
1767471004.129503,1,left_wrist,0.0088,-0.9789,0.6407,-137.41,-205.52,-186.41,-0.7832575185070528,0.42782238636078473,-0.3099740142744724,0.32770684445904774,-63.16829862681022,11.839937108600445,-52.70346554183399,4
1767471004.129503,2,right_wrist,-0.0742,1.0956,0.387,157.29,-99.89,197.47,0.7339291902469496,0.5831422653746295,-0.15588217478716412,-0.31143825972546485,74.11090969907781,7.724658704601037,-40.15079548065041,4
1767471004.18266,1,left_wrist,-0.0171,-0.9404,0.8994,-293.86,-131.25,-244.37,-0.7014666430721512,0.570337063906326,-0.2546405945812898,0.34324677679926724,-77.29819724678401,-1.964997391218906,-50.57607920148759,4
1767471004.18266,2,right_wrist,0.2494,0.9931,0.3577,29.19,-98.28,215.6,0.7463991008944544,0.559386153892858,-0.24820200445902926,-0.2614790201898155,75.41995337550705,-4.472466571728561,-42.07148872703325,4
1767471004.274103,1,left_wrist,0.2806,-0.9809,0.3782,-136.78,-75.46,-224.35,-0.6376133968094334,0.6434557029435651,-0.19133169285692042,0.37789694080138236,-84.16024848931812,-14.024016020715981,-48.63374972663226,4
1767471004.274103,2,right_wrist,0.7135,1.1063,-0.0717,15.68,-26.46,226.52,0.6577853957049599,0.605763001073075,-0.44260982505303686,-0.06682890463512893,98.35344353968915,-30.08734264677429,-46.16553410959936,4
1767471005.7805178,1,left_wrist,0.0122,-0.5783,0.9623,45.99,188.37,88.62,-0.8901054284710653,0.12488479835645774,-0.2792867183990866,0.3378091802655422,-26.82442152700307,24.3817783087621,-47.46329367004329,5
1767471005.7805178,2,right_wrist,-0.1859,0.7076,0.6251,-51.66,134.33,-120.19,0.7220380151388591,0.4503931520281673,0.05565644669530646,-0.5222159258790577,45.202697331419714,33.420341238184804,-57.505910776417416,5
1767471005.831711,1,left_wrist,-0.1576,-0.5363,0.8335,23.94,189.98,67.48,-0.8750307745278216,0.08248835042297857,-0.3489367639084323,0.32520754983063865,-26.557314746831004,33.849211491678844,-48.99038528723556,5
1767471005.831711,2,right_wrist,-0.3074,0.5422,0.5192,-32.97,126.63,-104.72,0.7017353934694591,0.46404979025410253,0.11946353582094106,-0.5272131384236793,44.16930100681515,41.069185636926974,-56.55148054052061,5
1767471005.923597,1,left_wrist,-0.2928,-0.4285,0.7003,-13.3,176.47,56.7,-0.8534422111185156,0.056879610831491796,-0.4161302558180737,0.3086044593741015,-28.672354394177955,42.4681024703042,-51.102120644127496,5
1767471005.923597,2,right_wrist,-0.568,0.3982,0.3811,-15.33,108.78,-71.19,0.6567635922868661,0.4912356060425014,0.22899765301188243,-0.5243178788841335,44.48290774804365,54.678615989733956,-53.327506894891414,5
1767471005.9789839,1,left_wrist,-0.5412,-0.2513,0.3958,-16.03,138.74,41.3,-0.8034848598415589,0.016401268564924198,-0.5251172267457398,0.27999102944507864,-35.57467120431654,56.5807706633565,-58.017781278458095,5
1767471005.9789839,2,right_wrist,-0.672,0.3387,0.2899,-25.27,94.43,-59.15,0.6369658883375114,0.5019344462992279,0.27503726427767555,-0.5164211188277883,45.86138609903174,60.319236095470856,-50.44561792028869,5
1767471006.06914,1,left_wrist,-0.6173,-0.2796,0.2743,-26.81,111.09,27.93,-0.7781272741851282,0.007897767246887517,-0.5693774492292931,0.26507525488223194,-41.78866280522928,61.87353851106064,-63.399101040230185,5
1767471006.06914,2,right_wrist,-0.7779,0.2425,0.1171,-10.57,71.26,-34.44,0.601082271575331,0.5242994737799679,0.34172814794309825,-0.4970231760142263,53.292795969682814,68.74740327645581,-41.28533153502952,5
1767471006.121161,1,left_wrist,-0.7154,-0.2586,0.2001,-10.15,87.85,17.71,-0.7556695049946076,-0.003000091346135545,-0.6028222149844731,0.2560468234412076,-48.070890592324425,65.8678706754057,-69.66281327555618,5
1767471006.121161,2,right_wrist,-0.832,0.2567,0.0683,-7.84,52.64,-20.86,0.5885089608105006,0.532679626316377,0.3634069494214929,-0.487693559384737,58.28944181060212,71.31699542292934,-35.68638401270037,5
1767471006.17716,1,left_wrist,-0.7959,-0.2372,0.0898,-5.95,24.85,6.37,-0.7398123047532326,-0.0090667937717441,-0.6260123502742797,0.24638198856751556,-53.787263738605844,68.54906344915499,-74.97442724946887,5
1767471006.17716,2,right_wrist,-0.8613,0.1903,0.0317,7.63,39.27,-7.49,0.5764173966858581,0.5431382039666233,0.3760168076853476,-0.4809940088274791,64.3060934741216,72.93602456971254,-29.848781257748694,5
1767471006.230634,1,left_wrist,-0.9048,-0.3016,0.1127,-12.18,8.33,0.56,-0.7353655947265072,-0.0058205428608770465,-0.6327919599719785,0.24244153680456024,-56.278761322906426,68.98541232166033,-76.84841323824779,5
1767471006.230634,2,right_wrist,-0.8701,0.2669,-0.0425,13.86,20.86,2.17,0.5685212559125515,0.5537774806938108,0.3789944098510601,-0.4758963340410155,69.71838392522163,73.33824633600877,-25.040501088763733,5
1767471006.282933,1,left_wrist,-0.9462,-0.3084,0.2094,1.82,5.53,-4.83,-0.7346661174910685,-0.003682247428900191,-0.6320092760632846,0.2466098372620906,-56.71384664060389,68.5047203093333,-77.47005888319786,5
1767471006.282933,2,right_wrist,-0.9248,0.2782,0.0307,10.92,4.69,3.29,0.5643823218601306,0.560529635814123,0.37797460134817734,-0.47372388886517114,72.63218158219892,73.27896348696716,-22.691577260972444,5
1767471006.371478,1,left_wrist,-0.9658,-0.325,0.1952,-9.87,10.22,-3.57,-0.7291027752189819,0.0006177437375031173,-0.6389270638306376,0.2453180968975058,-59.7225695955248,68.65157808763932,-80.00513713883903,5
1767471006.371478,2,right_wrist,-0.955,0.2303,0.08,3.5,-0.42,2.59,0.5643761088616186,0.5621163418984596,0.3758493909487893,-0.4735420374584888,72.93041671762712,73.06036708418256,-22.599923830794225,5
1767471006.422934,1,left_wrist,-0.9745,-0.3645,0.1293,1.05,13.44,-3.78,-0.7225262170847253,0.001274669776049346,-0.6456391473473984,0.24719290494414073,-62.61586134988196,68.80450674339745,-82.99528886619419,5
1767471006.422934,2,right_wrist,-0.955,0.2303,0.08,3.5,-0.42,2.59,0.5617225562394155,0.5615578178536295,0.3776128625008202,-0.4759507464993234,72.78048222482542,73.49098790076438,-22.90564131765548,5
1767471006.481736,1,left_wrist,-0.8955,-0.3157,0.101,-5.04,-21.14,-4.62,-0.7243017715969798,0.008954424119119408,-0.6441145491448691,0.24581132913288073,-62.70873003977029,68.22757053538442,-82.34860119177091,5
1767471006.481736,2,right_wrist,-0.9306,0.283,-0.0127,-0.98,-13.51,9.73,0.5646508037577747,0.5625882890478627,0.37316790467949673,-0.4747732108691595,72.52152618985815,72.86686583916837,-23.248641611990784,5
1767471006.5721002,1,left_wrist,-0.9038,-0.3084,0.1274,2.66,-26.32,-4.76,-0.7292510288052206,0.011453073786194631,-0.6381821676079663,0.24654671978059797,-60.802854947496094,67.68986300688877,-80.3130822409805,5
1767471006.5721002,2,right_wrist,-0.8516,0.2162,0.0049,7.84,-34.44,23.52,0.5744676808514476,0.5633584331362556,0.35089729971244366,-0.47904618203878635,69.06617222610171,70.54574959036924,-27.741521243199536,5
1767471006.623539,1,left_wrist,-0.8652,-0.2811,0.1493,6.37,-43.47,-7.21,-0.7395517569621834,0.013559542566417459,-0.6256846921371767,0.24778620543675062,-56.722311689538834,66.74150768146208,-76.19264521202699,5
1767471006.623539,2,right_wrist,-0.8276,0.2928,0.0532,-4.34,-51.45,33.95,0.5890384597971919,0.5592657411455154,0.33109883206786267,-0.48023857306968426,65.51967333966694,68.00581288914036,-31.451791954346803,5
1767471006.678577,1,left_wrist,-0.7871,-0.3065,0.243,13.93,-76.09,-13.09,-0.770430514973359,0.027496877171040178,-0.5786980525925816,0.26606260028286427,-46.8223258432117,61.289899874582005,-66.87816855421428,5
1767471006.678577,2,right_wrist,-0.7632,0.2538,0.0566,10.92,-67.27,47.6,0.6033976541521292,0.5563603984317496,0.3020340532352069,-0.48492247700728913,62.32765709553813,64.6992028011352,-35.65615326008651,5
1767471006.734912,1,left_wrist,-0.7403,-0.3148,0.1181,-16.66,-87.01,-27.51,-0.7862672131566928,0.05053156237713277,-0.5537692293415883,0.2693883281676419,-44.71692740840071,57.521814264274724,-63.26840339170072,5
1767471006.734912,2,right_wrist,-0.6715,0.3782,0.1327,8.89,-87.36,62.65,0.6265390977154414,0.5503624263779994,0.25884783886927953,-0.4873887103513431,59.24853916187683,59.41074207135693,-39.81126659866187,5
1767471006.822751,1,left_wrist,-0.6281,-0.2372,0.3123,-4.13,-122.99,-40.81,-0.8118369229968395,0.07326141168929266,-0.5082084286854432,0.27798879299243057,-40.34330063092363,51.66827094363418,-57.97496894270607,5
1767471006.822751,2,right_wrist,-0.4207,0.4524,0.3182,35.14,-119.42,115.36,0.6776970544942583,0.5372959386265723,0.12677920207877164,-0.48576415119424676,57.16429085980965,43.934374338463265,-46.47671612536849,5
1767471006.877344,1,left_wrist,-0.4006,-0.4338,0.4197,-14.42,-163.38,-75.88,-0.8511930842936718,0.16065482796168118,-0.38956215133674593,0.3128924571623851,-38.73495367730724,34.23925137646236,-52.72513109449892,5
1767471006.877344,2,right_wrist,-0.305,0.5695,0.4075,32.83,-148.82,140.84,0.7071774508841393,0.5197638642945429,0.038983007459542175,-0.47772994825949955,56.801765144033354,33.4871076696324,-49.602673048925766,5
1767471006.932972,1,left_wrist,-0.2489,-0.5226,0.8491,-51.24,-184.24,-104.86,-0.8614055014992354,0.22260088435679917,-0.3153934838316988,0.33008538081369987,-40.12934348405601,23.353864371728356,-50.56675573735006,5
1767471006.932972,2,right_wrist,-0.1962,0.8374,0.5427,49.63,-146.02,157.71,0.7295621869289486,0.5037200959170222,-0.055907177308818376,-0.45921614507566755,58.26682820171548,22.399188162723945,-51.78111323269899,5
1767471007.0211232,1,left_wrist,-0.1581,-0.5866,0.6617,-122.36,-175.14,-130.34,-0.8493013992687118,0.3124577728572108,-0.24922057375689521,0.3448860376959375,-45.91656727627551,11.993581736224467,-49.298317184945205,5
1767471007.0211232,2,right_wrist,0.0761,1.0024,0.528,156.03,-102.55,206.99,0.7420194761325902,0.49740404614767014,-0.26020097140453236,-0.36645841018590386,68.29328984514248,-1.237260147518312,-53.405602858883,5
1767471007.0812402,1,left_wrist,0.4612,-1.138,0.426,-156.8,-116.55,-200.48,-0.771124408074124,0.4787917071704862,-0.11658888334964755,0.4031534207921171,-58.28921219087205,-11.90232908788986,-48.54887743974989,5
1767471007.0812402,2,right_wrist,0.3567,0.7266,0.4592,94.85,-81.9,230.09,0.7457303790156504,0.48263536389035744,-0.3518636415164382,-0.2951970276178065,72.83499359043823,-13.87743740024338,-53.45293304001356,5
1767471007.131715,1,left_wrist,0.4612,-1.138,0.426,-156.8,-116.55,-200.48,-0.7016242157868724,0.5610120517306891,-0.06148534301601324,0.4349810228372978,-66.6485762123678,-23.68950094144914,-47.892563785203855,5
1767471007.131715,2,right_wrist,0.5373,1.403,0.3314,125.16,-61.6,237.16,0.7342908272812841,0.4751815947431606,-0.43802674002704545,-0.20773061403941706,79.39905151524626,-26.478278802614263,-53.69618015531938,5
1767471008.680952,1,left_wrist,0.2772,-0.6041,1.0106,40.74,234.78,106.47,-0.8727486363859436,0.155492154672648,-0.26739353043281705,0.3776674561097469,-30.34478840721532,20.443651446873517,-52.39844792859333,6
1767471008.680952,2,right_wrist,0.0054,0.8525,0.7998,-44.73,185.01,-177.87,0.7389875140219628,0.44500920807311456,0.0366680892584957,-0.5044994648955634,45.91283751935311,30.212489708199975,-55.596247469880105,6
1767471008.7691798,1,left_wrist,0.0927,-0.5261,0.8447,28.0,228.27,83.3,-0.8573573288979652,0.09933801793449033,-0.3498381043200435,0.36425769661539303,-30.032891805125697,31.83691419979225,-54.78766420947482,6
1767471008.7691798,2,right_wrist,-0.1767,0.468,0.4738,-24.22,177.38,-137.13,0.666816479514513,0.49530855973059773,0.21140107460872487,-0.5151065899013023,46.51474940163172,52.39203790074612,-51.49319232088984,6
1767471008.820852,1,left_wrist,-0.0874,-0.4372,0.692,5.6,218.19,75.18,-0.8327308414905351,0.05327448191152364,-0.4286392889329857,0.3463950565330691,-31.602426167319308,42.607652456924946,-57.767137270806444,6
1767471008.820852,2,right_wrist,-0.1767,0.468,0.4738,-24.22,177.38,-137.13,0.6240210617773684,0.512283226349972,0.29384817653688905,-0.5116804272245077,48.231920889396115,62.99734708072644,-48.022710448724915,6
1767471008.873125,1,left_wrist,-0.2508,-0.327,0.4748,10.22,199.78,64.54,-0.802751211410013,0.009856673850457565,-0.49658393183771987,0.3299965714987854,-34.14364520256803,52.25671959252494,-61.82618756916004,6
1767471008.873125,2,right_wrist,-0.4534,0.283,0.123,-14.07,124.18,-92.61,0.5901790027718872,0.5261760471712613,0.34825458540643356,-0.5035337682954348,53.002165219005526,70.21338954597698,-42.30842142028181,6
1767471008.9309142,1,left_wrist,-0.5031,-0.143,0.1444,0.49,139.02,37.03,-0.7387418741343951,-0.0562938404300936,-0.6003380812283098,0.3011405571442416,-45.576698408240226,67.05720041080947,-75.46720685661441,6
1767471008.9309142,2,right_wrist,-0.6295,0.2411,0.0732,-9.73,90.23,-71.4,0.5620076969565464,0.5351020220664012,0.388949284856728,-0.49651951457267746,59.89815538190766,75.59516604754043,-34.76162555422967,6
1767471008.9834921,1,left_wrist,-0.6378,-0.3016,-0.0005,22.89,97.79,19.95,-0.7120540468447115,-0.08031512491947847,-0.6305336616212042,0.2982546171374296,-53.7447918062055,71.05961399030755,-85.23853368958494,6
1767471008.9834921,2,right_wrist,-0.7422,0.1547,0.0898,-18.41,66.78,-56.28,0.5395112731991186,0.5345834736026485,0.42534648312724377,-0.4921671109829241,67.16185565363524,80.1193228911805,-26.39813837553174,6
1767471009.07131,1,left_wrist,-0.7852,-0.3465,0.0264,37.66,57.54,16.03,-0.6941575815147403,-0.10193782822164621,-0.6452436522300081,0.3023484090580625,-59.48808539491908,73.22450495681362,-93.08002206437956,6
1767471009.07131,2,right_wrist,-0.8906,0.0834,-0.0434,-13.16,49.56,-17.92,0.509305546325354,0.5426259512619921,0.4711644046328449,-0.4734649314428974,107.14611565698355,83.5969616470325,15.101887891537865,6
1767471009.1216981,1,left_wrist,-0.9204,-0.3709,0.1157,9.24,43.54,15.47,-0.6814772309055317,-0.1113464114408096,-0.6577836715949656,0.30085112896518906,-65.76604371543974,74.47774463668365,-99.98066705863252,6
1767471009.1216981,2,right_wrist,-0.916,0.1401,-0.1435,-0.56,36.96,-1.82,0.5001733909477695,0.5520771924200302,0.48072887839832285,-0.462533348064026,123.71613820591314,82.57009820149167,31.780637721084403,6
1767471009.1786969,1,left_wrist,-0.895,-0.2206,-0.1474,-21.42,18.2,-4.9,-0.6604890278312623,-0.10980705717261971,-0.6848964691090262,0.2874256093523882,-81.37475967943251,75.4333953018424,-114.27382604100718,6
1767471009.1786969,2,right_wrist,-0.9121,0.0883,-0.2113,10.64,20.65,5.18,0.4921900216904755,0.5613422637295589,0.48357200199976436,-0.45694853581256123,131.5025684564897,81.50458147426588,39.05895215034762,6
1767471009.229416,1,left_wrist,-0.9228,-0.3494,0.0356,-2.45,-3.92,-3.78,-0.6598636082664667,-0.10393044134092926,-0.6848543835599411,0.29112360805501825,-81.23232931355868,74.65160196960225,-113.97601523019081,6
1767471009.229416,2,right_wrist,-0.9384,0.124,-0.181,14.7,-4.48,5.46,0.4890600888254,0.566891853604254,0.47952159408463785,-0.4577257876084248,131.61677089205006,81.11182963292522,38.39604087253874,6
1767471009.319686,1,left_wrist,-0.9521,-0.2889,0.1108,-3.92,-4.13,1.05,-0.6631316248083875,-0.10122570092051611,-0.6818726140044751,0.2916496938500749,-79.33771698344157,74.44799139207059,-111.90385739687196,6
1767471009.319686,2,right_wrist,-1.0131,0.1767,-0.042,9.38,-8.89,5.74,0.4981958088935925,0.5668338703424758,0.46323097055864604,-0.46466909446263294,118.12084646591055,81.24183377072626,24.0931920370878,6
1767471009.370668,1,left_wrist,-0.9565,-0.2723,0.0205,-9.31,-8.89,-0.63,-0.6635739989806748,-0.09670922511355845,-0.6831062590206887,0.28927964418792074,-79.79816277865997,74.26687161814577,-111.78515110724317,6
1767471009.370668,2,right_wrist,-0.9848,0.1571,-0.0903,11.69,-11.62,11.41,0.5001686016874913,0.5721289466210348,0.45490619755568823,-0.4642845999488998,114.57099034448055,80.51226564950406,19.893304823148124,6
1767471009.42173,1,left_wrist,-0.9731,-0.3157,0.0644,-3.29,-9.38,-2.52,-0.6659148169971797,-0.0904513605417278,-0.6802357841934065,0.29266924297326535,-78.16429967408718,73.51677306703401,-109.93748953030838,6
1767471009.42173,2,right_wrist,-0.9643,0.1747,-0.0981,12.18,-16.03,16.03,0.5032552024913792,0.5774326279024969,0.44475945383025495,-0.464214163536175,110.37060486973094,79.65995404345867,14.981978354652819,6
1767471009.480839,1,left_wrist,-0.9091,-0.2743,0.0132,-14.21,-23.31,-6.02,-0.6736412968652762,-0.07290679140849211,-0.6743756069176925,0.2934442770247556,-74.98669738273136,72.05685323537193,-105.3948496477955,6
1767471009.480839,2,right_wrist,-0.9643,0.1747,-0.0981,12.18,-16.03,16.03,0.5050828716875535,0.5822150334328664,0.43570933731017264,-0.46483795128340266,107.47543009912846,78.93495445542985,11.355733364408703,6
1767471009.531351,1,left_wrist,-0.8813,-0.2386,-0.0117,-10.78,-39.48,-11.55,-0.6822469763261123,-0.06264754877989662,-0.6668877800297918,0.2930444279843645,-71.41643749116972,71.2057102269015,-100.95570778577022,6
1767471009.531351,2,right_wrist,-0.833,0.1186,-0.1625,32.27,-46.41,45.15,0.5121499135237694,0.5897250171893355,0.4094793437614461,-0.47143773418271173,98.06818615940942,77.282375735087,0.01739502033404802,6
1767471009.62166,1,left_wrist,-0.8262,-0.3538,0.0649,-12.6,-61.81,-17.99,-0.6958205135009097,-0.04247901439631578,-0.6517665826389717,0.2987133543756702,-66.03660172925308,68.81258575192602,-94.45261753068488,6
1767471009.62166,2,right_wrist,-0.7379,0.2835,-0.0132,38.01,-89.67,82.18,0.552680807088479,0.5964024707867124,0.31531742563631837,-0.4893086341008272,75.64254867448591,68.77873708453718,-27.074569523663733,6
1767471009.679754,1,left_wrist,-0.7842,-0.2342,0.2059,-18.34,-86.87,-33.81,-0.7328495587772421,0.007671503786289427,-0.6072680918334467,0.3067541961744338,-55.64735993062851,62.29656727254405,-80.8091543945195,6
1767471009.679754,2,right_wrist,-0.7437,0.4363,0.1,22.47,-105.77,86.31,0.5811868523059442,0.5910516422704299,0.25855556036646854,-0.49601292430713695,68.7279986335248,62.48335976391053,-35.900816874557165,6
1767471009.769089,1,left_wrist,-0.7452,-0.3748,0.103,-73.71,-108.22,-49.84,-0.7508667996436165,0.05981905975639965,-0.5841914333683832,0.3022268989712983,-54.98890434232449,57.26091407326114,-75.57117593966947,6
1767471009.769089,2,right_wrist,-0.6617,0.467,0.204,55.86,-103.11,100.94,0.61860622865006,0.5912540445957001,0.12083205248259599,-0.503134776891261,65.99342400139808,48.11238305398204,-45.91568079148015,6
1767471009.829771,1,left_wrist,-0.4392,-0.6071,0.344,-69.51,-155.19,-120.12,-0.7846263659716294,0.19117242994687786,-0.49596638261506293,0.3191111329397486,-54.79853879724757,41.01724091185412,-66.20904263759446,6
1767471009.829771,2,right_wrist,-0.4548,0.6271,0.3289,48.79,-111.02,139.23,0.6426375086590679,0.5842005702076152,0.040614136064270855,-0.49404171704959965,66.15602211952441,39.00876279102137,-49.12141975523112,6
1767471009.881685,1,left_wrist,-0.2899,-0.4426,0.4099,-109.48,-158.34,-148.75,-0.7853569032364862,0.2826075154709229,-0.43864499974791094,0.33307370195544417,-58.253602258856255,30.04814233080518,-62.97559278058953,6
1767471009.881685,2,right_wrist,-0.4548,0.6271,0.3289,48.79,-111.02,139.23,0.6622811651093619,0.5722669656325764,-0.0392076780698937,-0.482034165145415,66.7473882952262,29.984880048851114,-52.08792568178782,6
1767471009.931822,1,left_wrist,-0.1664,-0.7793,0.6959,-92.89,-169.33,-166.46,-0.7777609944176854,0.3695829525789109,-0.36763029834706945,0.35120398696870214,-61.27923802816491,18.195421172784496,-59.44065796365585,6
1767471009.931822,2,right_wrist,-0.1527,0.8867,0.306,54.46,-109.13,186.69,0.6842278284230202,0.5586277105532468,-0.13223505918267386,-0.4497568775866697,68.89884208794763,18.75581054998514,-53.70829844966363,6
1767471010.0224981,1,left_wrist,0.0888,-0.7574,0.3314,-6.23,-139.02,-176.4,-0.7668078579658121,0.42221473070668564,-0.2885200207067602,0.3879389485312535,-61.30405231483224,6.5973820160253895,-57.583563934255835,6
1767471010.0224981,2,right_wrist,0.1747,1.1131,0.4299,70.28,-84.7,199.5,0.7111300467803288,0.5188713262767624,-0.3100827960909631,-0.3590477167486392,74.34318183434836,-3.9231995874455317,-56.55348328643727,6
1767471010.086184,1,left_wrist,0.3328,-1.0668,0.5773,-74.55,-89.95,-189.42,-0.6735182740641362,0.5724357545877694,-0.16771544294004778,0.4365340439995736,-72.55198203178912,-15.893884103728707,-54.1982331880429,6
1767471010.086184,2,right_wrist,0.1747,1.1131,0.4299,70.28,-84.7,199.5,0.7137062007664289,0.49472367756492563,-0.3913208596176381,-0.3045323080927514,77.79874281896852,-14.90739753967346,-58.267217719671144,6
1767471011.733377,1,left_wrist,0.246,-0.6744,0.9218,75.67,170.73,125.65,-0.829732839801259,0.23495084337962596,-0.22477942572784088,0.4536691807032992,-36.98298160406877,9.19725121102987,-60.41833883492568,7
1767471011.733377,2,right_wrist,0.2274,0.9662,0.7403,-80.22,125.16,-149.52,0.7401029929580318,0.4200155898262937,-0.08004011057683402,-0.5190645863630865,48.011010667236214,18.51510090254246,-61.78357573061984,7
1767471011.785679,1,left_wrist,0.103,-0.65,0.8794,49.0,175.21,101.99,-0.8342556806987302,0.17413305631616488,-0.2839191379334906,0.43941445246486066,-34.76231263499464,18.70460651474551,-61.455088419835796,7
1767471011.785679,2,right_wrist,-0.0698,0.752,0.6803,-34.65,141.12,-127.68,0.7217676769425238,0.4418681464042873,-0.006984979517722195,-0.5326867482633381,46.638301264447506,27.430449712891736,-60.84568095389734,7
1767471011.8697422,1,left_wrist,-0.0825,-0.5773,0.7569,63.0,175.84,86.52,-0.8304565501342583,0.10955726823983372,-0.33793056674207106,0.4291177639952857,-32.265810614337624,27.855764904489785,-62.8590536334831,7
1767471011.8697422,2,right_wrist,-0.2162,0.6808,0.5617,-43.05,137.83,-110.25,0.6832122520929463,0.4728613294371817,0.13329201656522138,-0.5402373737839343,44.147964911469494,43.87188757002988,-58.118060223185324,7
1767471011.9222689,1,left_wrist,-0.2255,-0.4568,0.6788,25.2,165.83,73.29,-0.8186445286269973,0.061323287948811984,-0.39255622278290414,0.414680843611864,-31.902982050464384,36.28973795699285,-64.43129703455251,7
1767471011.9222689,2,right_wrist,-0.4436,0.4402,0.3875,-13.86,116.2,-77.21,0.6617573403972907,0.49147965562342844,0.1826004275457629,-0.5358936969200935,45.28882736132432,50.21365411099554,-55.880290899787084,7
1767471011.979584,1,left_wrist,-0.5041,-0.3914,0.4119,-3.92,131.32,43.12,-0.780532028183428,-0.0010263051867906688,-0.4915615893222934,0.386181179733644,-36.19066051028957,50.18821169004347,-70.04968992119832,7
1767471011.979584,2,right_wrist,-0.5885,0.3689,0.2747,-17.57,94.57,-59.43,0.6421334192590138,0.506325746216486,0.2266430695579774,-0.5290858433282677,46.86573625208391,55.77647783275535,-53.1366663812044,7
1767471012.031649,1,left_wrist,-0.5958,-0.3011,0.2991,-21.84,109.2,34.44,-0.7601095938112085,-0.019031367170798393,-0.5348434282985405,0.36852913000960125,-40.53482641869665,55.80263960308927,-73.85817138766208,7
1767471012.031649,2,right_wrist,-0.6934,0.3597,0.2367,-3.01,79.1,-45.5,0.6226162789810191,0.521752072148432,0.2599913979760339,-0.5220423520511669,49.737070977990044,60.28515460248521,-49.828801086004475,7
1767471012.1210392,1,left_wrist,-0.691,-0.3045,0.3201,16.31,85.82,31.64,-0.74261158713947,-0.04566301789761273,-0.5629430038283829,0.35991400901237086,-42.984177991185604,60.33864728399518,-77.49951176330937,7
1767471012.1210392,2,right_wrist,-0.8574,0.3592,0.2084,21.63,73.08,-35.0,0.5867151843742844,0.5503602999583744,0.3128741281024691,-0.5049540698108071,58.96917924535017,67.36113819715774,-40.13979916595225,7
1767471012.171266,1,left_wrist,-0.7632,-0.3738,0.2518,-10.92,78.4,28.77,-0.7253348347177521,-0.05914650954038618,-0.5916406859700774,0.3469183861645511,-47.945010039150226,64.06793961091671,-82.21735591328823,7
1767471012.171266,2,right_wrist,-0.8638,0.225,0.1015,-11.55,60.13,-30.1,0.5717036025102967,0.557038568387124,0.34093262314575734,-0.4966165227627102,63.77434367116893,70.57780767040907,-34.42990923736507,7
1767471012.222702,1,left_wrist,-0.7989,-0.344,0.1415,-4.97,57.89,22.54,-0.7113644239396533,-0.07112682079333861,-0.6127454162041407,0.3368155083092998,-52.51251578915155,66.87990119097003,-86.75938871700498,7
1767471012.222702,2,right_wrist,-0.8545,0.1991,-0.0264,29.68,54.95,-11.97,0.5511083117697221,0.5758956925206244,0.3533044587318839,-0.4896935158593459,73.22464921269155,72.44784314129113,-26.129866267988106,7
1767471012.2811399,1,left_wrist,-0.917,-0.4138,0.0922,-16.03,29.75,0.77,-0.6925119987287844,-0.05362146152142035,-0.6483766713531008,0.311704286986952,-65.05523892670855,68.66124777016952,-95.53595096139752,7
1767471012.2811399,2,right_wrist,-0.8711,0.2338,-0.022,5.25,29.4,1.89,0.543354218275826,0.5854659434344529,0.36071821247817343,-0.4815373233165043,79.36732183590937,72.90972926009655,-20.08343034607601,7
1767471012.370754,1,left_wrist,-0.9682,-0.1732,0.0917,-125.65,27.93,-5.53,-0.6859440036383082,-0.02143615215097593,-0.6738964802709912,0.2736509622347023,-75.02180283478799,69.4298231455038,-99.50866929077556,7
1767471012.370754,2,right_wrist,-0.9384,0.3152,-0.0381,1.47,19.32,1.75,0.5346833840229586,0.5998893389549272,0.3693530094828071,-0.4667170601595483,88.56715216502505,72.73282524220635,-10.864826822338141,7
1767471012.427582,1,left_wrist,-0.9609,-0.3538,0.2206,14.42,-2.94,17.85,-0.6888061105438305,-0.03427169634407158,-0.6668954298161474,0.28217384463751477,-71.8104335673876,69.72900538457576,-98.08771111228663,7
1767471012.427582,2,right_wrist,-0.9579,0.307,-0.0112,0.84,-0.98,3.01,0.5341899650124733,0.6029883684826819,0.368445341541615,-0.46399799466252933,89.75245373308115,72.40373862100228,-9.787304865237283,7
1767471012.477633,1,left_wrist,-0.9355,-0.3109,0.0688,-8.96,0.98,-1.54,-0.6867144395070213,-0.03247825396040165,-0.6707801067972753,0.27824897109832625,-73.39770939853437,69.94148817031605,-99.18322922419739,7
1767471012.477633,2,right_wrist,-0.9716,0.3294,0.0351,-8.82,-5.74,3.29,0.5407197664771823,0.5990342028979433,0.36564838466554994,-0.4637687103403605,87.23291777549896,71.99939584115542,-11.851379206295551,7
1767471012.527673,1,left_wrist,-0.9194,-0.3392,0.0752,11.76,-5.74,-3.22,-0.6852752632981582,-0.03267295776987903,-0.6700669233653371,0.28344419125097414,-73.4006394094013,69.53443478748665,-99.6583112897012,7
1767471012.527673,2,right_wrist,-0.9438,0.2782,0.0112,0.28,-6.3,5.74,0.5402191951862825,0.59730016906709,0.36583557752650653,-0.46643333864611153,86.46321714964525,72.26286457823062,-12.690155663871032,7
1767471012.580938,1,left_wrist,-0.9072,-0.3475,0.1405,11.27,-17.64,-6.09,-0.6910953419816762,-0.030712992063001335,-0.66101499560556,0.29069419669878116,-70.02862102667123,68.6706370183728,-96.77159876088601,7
1767471012.580938,2,right_wrist,-0.9257,0.2865,-0.0132,0.35,-14.0,11.13,0.5423199021565233,0.5980732155419685,0.36146222272573825,-0.4664146375473205,85.72115861719605,71.79715080869852,-13.614329462116935,7
1767471012.6332521,1,left_wrist,-0.8833,-0.3626,0.0195,-2.66,-26.67,-8.33,-0.6952419940880797,-0.02331218345951264,-0.6560863586052367,0.29265303998233366,-68.56815868114087,67.80784935625198,-94.88889529125295,7
1767471012.6332521,2,right_wrist,-0.8691,0.2669,-0.062,6.02,-25.83,20.58,0.5467232062417628,0.5993570198227114,0.35054392352622,-0.4679571093859013,83.76096376259596,70.77760455093072,-16.1330049066558,7
1767471012.720598,1,left_wrist,-0.8438,-0.307,0.1083,22.75,-44.73,-21.91,-0.7035490885913475,-0.02010656973585659,-0.6420575100967251,0.30393512387372323,-64.23591042071483,66.29964995253513,-91.31562131611268,7
1767471012.720598,2,right_wrist,-0.8032,0.3338,-0.0712,26.04,-58.52,36.75,0.5702000659099966,0.5952434059394758,0.3012563047400409,-0.47937648187638837,74.26733591786659,66.0986076011434,-27.652441906464926,7
1767471012.7711701,1,left_wrist,-0.7989,-0.2948,0.0791,31.5,-59.92,-22.12,-0.7149711608218233,-0.01647710874572874,-0.6222155854380852,0.31842190458323766,-58.86283450057147,64.18775609490972,-86.98389698726929,7
1767471012.7711701,2,right_wrist,-0.7544,0.3323,0.0571,9.45,-81.76,54.32,0.5879359028014601,0.5898224822275978,0.2652427749661409,-0.48588793356510535,69.43395545298524,62.259737291229854,-33.72803501666377,7
1767471012.831265,1,left_wrist,-0.7564,-0.4002,0.162,-44.59,-82.46,-37.31,-0.744082068705669,0.049675498352023076,-0.5832346961530771,0.3220427131568078,-55.00503040694636,56.71527430610253,-78.1974263393409,7
1767471012.831265,2,right_wrist,-0.6788,0.4138,0.0527,65.38,-88.48,85.82,0.5980103684044005,0.5996010245771536,0.2053687357097327,-0.4905974857251583,69.12859293335939,56.506743455596656,-38.09759849625109,7
1767471012.881928,1,left_wrist,-0.6578,-0.3611,0.2284,-48.44,-106.89,-61.04,-0.7582194521714729,0.09684097694554779,-0.5559942940118653,0.3264895596481925,-54.55426397638732,51.251076417187846,-74.37808829098167,7
1767471012.881928,2,right_wrist,-0.4982,0.2655,0.1078,27.93,-115.5,119.28,0.6227654162387686,0.5907139540344098,0.141516173294444,-0.4931464625667342,66.27120692089044,49.36553847672955,-43.34982113109416,7
1767471012.978286,1,left_wrist,-0.5026,-0.4934,0.1508,-78.05,-121.1,-105.84,-0.764543331224044,0.1681284349490645,-0.5227563754228639,0.33753828819434634,-56.94788608583954,43.30172259795971,-71.94207879550758,7
1767471012.978286,2,right_wrist,-0.1986,0.5363,0.4421,46.55,-129.71,191.17,0.6739446720504243,0.5750968310861408,-0.05126311169043033,-0.4609059635862167,67.94064528631002,27.45385728212063,-50.04405469843053,7
1767471013.03135,1,left_wrist,-0.1879,-0.8008,0.5397,-135.31,-169.19,-169.68,-0.7491679154973485,0.382268307825722,-0.40501255931665253,0.358584999710239,-66.25880803948347,19.43233978583182,-63.907766365136595,7
1767471013.03135,2,right_wrist,-0.1118,0.8633,0.6676,84.7,-102.83,205.17,0.6897802138997405,0.5688564132095508,-0.15130963569156414,-0.4215578629437231,71.4012355458448,15.716103109996636,-51.534490886574524,7
1767471013.119037,1,left_wrist,-0.1264,-0.4978,0.6627,-213.22,-143.64,-210.07,-0.7002771118456579,0.5051823693399353,-0.3502576775282072,0.36293566877029276,-75.7522191740019,7.114780766202274,-60.329850285745316,7
1767471013.119037,2,right_wrist,0.1952,0.9135,0.3392,117.25,-79.8,200.97,0.7034156967112833,0.5411515947841206,-0.33054814800903226,-0.32109068957318193,78.62955688695185,-6.748305868741656,-54.59932694771449,7
1767471013.1716962,1,left_wrist,0.2133,-1.0141,0.447,-66.85,-93.45,-216.58,-0.6615217928535551,0.5705177719328937,-0.2793272523198522,0.3985908624140631,-78.83258231060495,-4.89006815511146,-58.121106818912686,7
1767471013.1716962,2,right_wrist,0.1952,0.9135,0.3392,117.25,-79.8,200.97,0.6906760236499848,0.5310456105149814,-0.41670786677726834,-0.2594450687019403,84.66524070004155,-17.46156337977352,-57.10418596965144,7
1767471014.869149,1,left_wrist,0.2918,-0.7369,1.0892,93.31,205.87,135.38,-0.864092993442178,0.22111057962421216,-0.19611797757490382,0.4074201138067566,-33.290642488859994,9.134845119779927,-53.22414908659678,8
1767471014.869149,2,right_wrist,-0.0644,0.8662,0.7203,-50.75,161.07,-146.93,0.7483031954589596,0.4781529900714526,0.005866235570067662,-0.45975823323990167,52.61670396901464,26.644216450631298,-49.7781428236456,8
1767471014.9221802,1,left_wrist,0.1152,-0.6647,0.9945,10.92,235.13,114.24,-0.8598696268506587,0.16674164928255245,-0.2880913629269819,0.38707210416292887,-33.2208658428351,21.491299931905242,-54.950401838341996,8
1767471014.9221802,2,right_wrist,-0.1405,0.7466,0.6642,-10.22,173.53,-135.87,0.7215145174785316,0.50518187031162,0.0894087368249577,-0.464988340451178,53.747562467486155,36.78591680977976,-46.47085838533988,8
1767471014.973551,1,left_wrist,-0.0264,-0.6476,0.7871,43.54,240.1,93.38,-0.8432210246989287,0.10093837050722101,-0.37237390894494277,0.37433597316060796,-32.592712634859474,33.53300785946035,-57.94349679256942,8
1767471014.973551,2,right_wrist,-0.222,0.5934,0.4597,-13.93,165.76,-126.14,0.6918468388098424,0.5263972062574761,0.1681235903103957,-0.46474551235519695,55.76712866224431,46.21265023778272,-42.33942808440293,8
1767471015.027648,1,left_wrist,-0.2669,-0.2908,0.265,7.98,182.07,62.86,-0.7856864971640161,0.022540463386758403,-0.5186081327575989,0.33650298709242626,-39.82145420100253,53.10689885547736,-66.89031587834567,8
1767471015.027648,2,right_wrist,-0.3162,0.4914,0.3157,-10.71,144.55,-110.32,0.6614882960033662,0.5426069401505178,0.23493136435590847,-0.4613222266409094,59.02690975105305,54.23705689851917,-37.44904015412907,8
1767471015.080053,1,left_wrist,-0.4246,-0.2347,0.1869,-7.98,136.08,48.93,-0.7583999980769267,-0.004088356396188653,-0.5685331944137081,0.3187204654687865,-45.21785377159678,59.877822157689515,-72.56383443516285,8
1767471015.080053,2,right_wrist,-0.468,0.3518,0.1815,-3.29,112.98,-92.54,0.6324971256779719,0.5556596230868376,0.28596103565907793,-0.4576199901281465,63.607078462195226,60.49363285361316,-32.013261907530065,8
1767471015.1721869,1,left_wrist,-0.5754,-0.2923,0.141,3.5,98.0,39.13,-0.7364966601471198,-0.026963864132876474,-0.6024863968416059,0.3063588765549007,-50.396634807889114,64.6862113082666,-78.35447303512056,8
1767471015.1721869,2,right_wrist,-0.7393,0.266,0.0566,3.57,58.73,-42.77,0.585702805022759,0.5725875514361054,0.35474835780118263,-0.4508318120610404,75.21668200969846,68.72278089830891,-19.621623255183966,8
1767471015.222641,1,left_wrist,-0.7139,-0.3074,0.1044,-13.86,59.5,23.17,-0.7214977504259974,-0.035503248267601394,-0.6256925153950033,0.2944306228491665,-55.933941016772266,67.48479906285785,-83.45629159045404,8
1767471015.222641,2,right_wrist,-0.873,0.3035,0.0356,-3.85,47.46,-31.78,0.5704086775337734,0.577286968299383,0.37768015713000047,-0.44579299650862286,81.48347465565767,71.00818108280549,-12.873944286163285,8
1767471015.281822,1,left_wrist,-0.915,-0.3631,0.2582,-6.79,37.8,6.23,-0.7018151249759063,-0.047187997523346764,-0.6517877349822209,0.283551709167016,-64.31883486905471,70.32702780932259,-91.78010825313473,8
1767471015.281822,2,right_wrist,-0.9477,0.2762,-0.0205,21.63,42.91,-21.77,0.5508353147782203,0.5883314815552064,0.39203332480820663,-0.44357231208006886,89.93287581695961,72.5209255498344,-5.230135432318372,8
1767471015.371665,1,left_wrist,-0.9418,-0.3265,0.0024,-39.55,53.62,-0.21,-0.6847043499036808,-0.04142575264900228,-0.6754505489995869,0.2706111898953889,-74.76702250760935,71.33185830997137,-100.60863578382717,8
1767471015.371665,2,right_wrist,-0.9028,0.1298,-0.1137,21.28,19.11,-3.78,0.5207402666042414,0.6078320703864827,0.4043477716014003,-0.44257499765306124,103.47230948964157,73.56531673674738,6.212718694084495,8
1767471015.430086,1,left_wrist,-0.8979,-0.4202,0.0127,14.84,-6.16,0.63,-0.6760363650543739,-0.028746289953034323,-0.6885270038239938,0.2609196216139354,-81.09477990343244,71.07422181110445,-105.0641671975238,8
1767471015.430086,2,right_wrist,-0.9062,0.1464,-0.1118,9.73,4.55,1.75,0.51455960217272,0.6107400993802719,0.4062096566725087,-0.4440930776839812,105.85115806645483,73.84017195600468,8.086905124436367,8
1767471015.5184581,1,left_wrist,-0.9843,-0.2201,0.1069,-8.54,-1.12,1.68,-0.6789655369322602,-0.029384159044868817,-0.6875214079680088,0.255845039899546,-80.37348604400479,71.55761831765666,-103.95381548033208,8
1767471015.5184581,2,right_wrist,-0.9306,0.2635,-0.0542,1.89,-15.61,9.24,0.5236167062027515,0.6048254467743672,0.3970149911368497,-0.4498786733466877,99.63180980545921,73.73232868949941,1.8660210008731424,8
1767471015.5691671,1,left_wrist,-0.895,-0.3265,-0.0381,8.47,-8.75,-5.67,-0.6782839206372282,-0.028444414635914655,-0.6866395750962773,0.2600921609595608,-80.12954094243541,71.13259952426947,-104.00204485333393,8
1767471015.5691671,2,right_wrist,-0.9628,0.2869,-0.0693,0.56,-16.52,9.1,0.5269155582150161,0.6057899623355041,0.3911845931522859,-0.4498367816495081,97.95177140603944,73.18735990379493,-0.019927314593006795,8
1767471015.619197,1,left_wrist,-0.9335,-0.3416,0.0508,6.93,-14.07,-7.07,-0.6798498253158821,-0.02327077512231214,-0.6824889327788733,0.26734162167071146,-78.57773215536807,70.12262398052724,-102.66128371894517,8
1767471015.619197,2,right_wrist,-0.8994,0.2011,-0.1518,9.66,-25.76,18.9,0.5296543430604163,0.6073911260257517,0.38078106224242514,-0.4533741055022207,95.33402481861394,72.57609964339291,-3.3881965879551994,8
1767471015.6755788,1,left_wrist,-0.8808,-0.3357,-0.0312,-2.73,-29.26,-8.96,-0.6850054647229542,-0.015879749283096774,-0.6768305644069157,0.26910171672995997,-76.33161939736593,69.35969610572262,-99.97024437419886,8
1767471015.6755788,2,right_wrist,-0.8145,0.1889,-0.2054,26.81,-38.5,39.13,0.5339489593925605,0.6139568172362734,0.35826320866488465,-0.45782421151556435,91.85167343095362,70.86644673142585,-8.596439811539087,8
1767471015.733643,1,left_wrist,-0.8662,-0.3748,0.1474,-0.77,-53.69,-11.27,-0.7120832208444131,0.003185811240986583,-0.6429212807740908,0.28209850039726636,-64.74135777530591,66.04004188072865,-88.00385317519194,8
1767471015.733643,2,right_wrist,-0.732,0.1435,-0.0917,71.47,-59.15,65.94,0.5335548690547148,0.6288319701930398,0.3153591104830116,-0.4695084519010384,88.43574665281712,67.97290910651355,-16.162944895445985,8
1767471015.819668,1,left_wrist,-0.8808,-0.3235,-0.0595,-43.05,-56.14,-28.0,-0.7218246886335685,0.030868976097330386,-0.6333168382865928,0.2773553813006485,-63.669552504611225,63.78776971291601,-84.28718824443708,8
1767471015.819668,2,right_wrist,-0.7476,0.3592,0.0205,24.78,-83.79,86.1,0.5750940690752441,0.6286769528798215,0.21615510943866792,-0.47676940893452757,77.34461868723078,58.00419809236801,-31.46721691279297,8
1767471015.880706,1,left_wrist,-0.59,-0.4675,-0.0063,-80.01,-135.03,-74.69,-0.7606028952615765,0.13708635599500096,-0.5746585751284049,0.2691804018704006,-59.75714972699247,53.165643422822846,-71.05663767956787,8
1767471015.880706,2,right_wrist,-0.5641,0.5002,0.1249,25.48,-101.15,130.83,0.6056839551900115,0.6246834890998703,0.1455140659750707,-0.470896104756452,74.04249449823651,49.87080716174276,-37.0835506395418,8
1767471015.931605,1,left_wrist,-0.3914,-0.3196,0.3587,-53.2,-163.45,-107.73,-0.784251721086801,0.2004896273895135,-0.5150604116186028,0.28189700187281214,-57.25157478450782,44.014403225614686,-64.42184570574561,8
1767471015.931605,2,right_wrist,-0.4504,0.5573,0.083,85.26,-95.69,170.87,0.6218598549614187,0.6372142501990754,0.05266410778659427,-0.4521889117190244,76.24302384425663,39.924814420519894,-40.22801434204145,8
1767471016.024553,1,left_wrist,-0.2298,-0.4573,0.9043,-38.5,-192.71,-155.19,-0.8016626475815399,0.27059403093415163,-0.43448762585222706,0.3087658868409178,-55.86641049406796,31.973338854747755,-59.40383068941604,8
1767471016.024553,2,right_wrist,-0.1703,0.7808,0.1991,65.1,-102.76,192.57,0.6572063199470948,0.626252771924598,-0.14230890531761892,-0.3945066465164502,79.39711300247554,17.882691596349765,-47.06777333108758,8
1767471016.077775,1,left_wrist,-0.0171,-0.8291,0.6871,-130.97,-183.61,-169.54,-0.7915359147749834,0.407924669471528,-0.28333685497022804,0.35607384946588627,-59.13056421163261,9.093147845026799,-53.60706028452203,8
1767471016.077775,2,right_wrist,0.0683,1.3357,0.3518,66.99,-80.43,213.15,0.6688771625397867,0.6131550762933441,-0.23709719590528913,-0.34702898083917416,82.15721069101488,6.222362460148672,-49.41735977523295,8
1767471016.170683,1,left_wrist,0.1913,-1.1087,0.3645,-120.26,-129.5,-203.14,-0.7472012098024835,0.4946011351710519,-0.21782347771697647,0.3867983993148029,-65.38460922778606,-3.2737093062647835,-52.636459680984245,8
1767471016.170683,2,right_wrist,0.2216,0.917,0.3026,41.79,-39.97,229.53,0.6974459357109623,0.5597014709686529,-0.3914134827432293,-0.2170228459923109,85.96484982868166,-17.64049322036896,-51.02587736316858,8
1767471017.676509,1,left_wrist,0.2157,-0.7266,0.8711,335.3,197.26,197.19,-0.8442642149437606,0.19668908528437284,-0.198644433445167,0.45724362013771297,-31.33918516526349,8.948528470001369,-59.393819410922255,9
1767471017.676509,2,right_wrist,0.2411,0.693,0.5744,-108.71,120.33,-220.36,0.6976025865665976,0.45235933690498514,-0.10291466586226033,-0.5460130338013315,52.546758426424724,20.511850972112786,-65.89232802250751,9
1767471017.729304,1,left_wrist,0.1693,-0.6124,0.7725,83.65,183.89,129.5,-0.8562946204935976,0.12114136164200077,-0.256558448374316,0.4315808799993476,-27.077062637523273,19.56126714903716,-58.25082602582278,9
1767471017.729304,2,right_wrist,0.0283,0.6598,0.5192,-78.12,134.96,-178.15,0.6751140901068936,0.4643910770123029,-0.011517515178341858,-0.5730874625871786,48.40053489922325,31.112634467982822,-66.39151912480976,9
1767471017.782943,1,left_wrist,0.0039,-0.5558,0.9321,25.69,177.38,88.27,-0.8514219249033099,0.07110839728078634,-0.31820767469938355,0.4108140423506867,-25.912136512505825,28.90987906232164,-58.3028155779113,9
1767471017.782943,2,right_wrist,-0.1591,0.528,0.4294,-44.38,139.3,-136.29,0.6503428457303551,0.4838906425225654,0.06410420412593504,-0.5820607185679366,46.66187879554655,40.29227091886193,-65.67468900621746,9
1767471017.8720908,1,left_wrist,-0.1884,-0.5275,0.7832,-0.07,164.99,66.78,-0.8380558578678085,0.03600804804683662,-0.3781608288322747,0.3916122918221484,-26.61918457336748,37.274723175873156,-59.21550395486794,9
1767471017.8720908,2,right_wrist,-0.5295,0.3938,0.3548,-38.5,106.75,-91.28,0.6058272825620605,0.5151802944814842,0.1791849890531285,-0.5791850374271341,45.81542686783555,54.476743870052196,-62.87916430134864,9
1767471017.9295611,1,left_wrist,-0.4553,-0.2616,0.4275,-22.89,155.05,59.08,-0.7969876038335119,-0.012815254188040021,-0.4988141892776186,0.34033943816596623,-32.44070932978269,53.49650002895132,-62.93071407590509,9
1767471017.9295611,2,right_wrist,-0.6388,0.3314,0.2557,-38.15,90.16,-74.2,0.586395951928562,0.524267447542655,0.22964680364422402,-0.5731891281112163,45.55800526662011,60.49779148083577,-61.17475525946171,9
1767471018.01917,1,left_wrist,-0.5651,-0.244,0.2938,-9.94,137.83,45.22,-0.7702131622726117,-0.038515784558448896,-0.5498410198082734,0.3208785937672828,-36.799426936357484,60.65765632551775,-67.25953113520511,9
1767471018.01917,2,right_wrist,-0.8023,0.2069,0.1596,-23.59,65.03,-31.5,0.5541671492640575,0.5441195648063405,0.3015987922306179,-0.5530559089247116,50.020386035734,69.41137466475544,-54.07316056892173,9
1767471018.07324,1,left_wrist,-0.6534,-0.2113,0.1401,0.91,106.89,26.81,-0.7455152402087781,-0.06047409799494724,-0.5874248397428469,0.30900156592036243,-42.0464575259305,65.95722149219357,-73.03198106783613,9
1767471018.07324,2,right_wrist,-0.8789,0.2821,0.1513,1.75,58.87,-21.56,0.5397812305824011,0.5585762324352682,0.3205518298093776,-0.542102702516073,56.28474075951716,72.1135552167926,-47.69015230642549,9
1767471018.1307771,1,left_wrist,-0.795,-0.2821,0.0844,-20.3,32.9,7.35,-0.716745142710322,-0.06887028963596903,-0.6286059510066038,0.29391808717005036,-53.52092049739826,70.31945826605012,-83.70383325706324,9
1767471018.1307771,2,right_wrist,-0.9155,0.2396,0.0927,11.97,55.65,-17.15,0.5230740120070309,0.5741359006589558,0.336385294066743,-0.532547161735962,64.72552813510855,74.45445096395068,-39.608048347921695,9
1767471018.181538,1,left_wrist,-0.8862,-0.549,0.2054,-42.91,24.92,7.98,-0.7108523723458964,-0.05698663090623248,-0.6419237227584389,0.281736335583671,-58.892382489193004,70.86282600853232,-87.00703581636137,9
1767471018.181538,2,right_wrist,-0.9233,0.2733,0.0732,3.29,39.41,-10.43,0.514075669968472,0.5853595553737565,0.34624788148398633,-0.5226784872624434,72.65273213572328,75.44456005722505,-31.69297616900042,9
1767471018.273592,1,left_wrist,-0.9672,-0.1864,0.1054,-27.23,39.9,6.16,-0.700373146630143,-0.05820018536462437,-0.6588617792798959,0.26831203794657693,-65.31659278197523,72.57883839165451,-92.33164096713729,9
1767471018.273592,2,right_wrist,-0.9414,0.2699,-0.0395,35.91,33.81,-2.94,0.48412249438894656,0.613686682091039,0.35703291084249816,-0.5114113483547751,92.04253087171462,76.752183862844,-14.391790970398947,9
1767471018.329227,1,left_wrist,-0.9145,-0.3289,-0.0049,26.88,1.89,-3.5,-0.6870013220915718,-0.05391886141504114,-0.6720568261077463,0.27103793518642455,-72.61528713019659,72.29519294394197,-99.50969629941241,9
1767471018.329227,2,right_wrist,-0.9414,0.2699,-0.0395,35.91,33.81,-2.94,0.46918277082135,0.6309407304136153,0.3554851796603701,-0.5053826365352978,101.86832205946837,76.24179514596561,-6.192378244023861,9
1767471018.4191859,1,left_wrist,-0.9555,-0.3274,0.0991,0.98,2.03,-2.03,-0.6855471412991946,-0.05026536361853784,-0.6721614228343835,0.27513184463099744,-73.11568846236494,71.6690794005345,-100.07101327886564,9
1767471018.4191859,2,right_wrist,-0.9838,0.2494,-0.0547,13.16,8.82,-1.54,0.4661530722865777,0.6377211747001416,0.3524686842635514,-0.5017756900751342,104.4022465950307,75.60265525967742,-4.210342164814781,9
1767471018.473632,1,left_wrist,-0.9623,-0.3743,0.0376,19.11,6.37,-0.56,-0.6806218275908738,-0.05433770254120288,-0.6739758783620378,0.2820600242422209,-74.38175893483537,71.4593642622562,-102.27489918110368,9
1767471018.473632,2,right_wrist,-0.955,0.2054,-0.0185,-8.54,-5.32,3.57,0.4704399810564213,0.6327255148987068,0.35260559025320726,-0.5039979610494348,101.6232466195962,75.82312369431374,-6.563855445807718,9
1767471018.5237389,1,left_wrist,-0.9331,-0.3967,0.0259,6.23,3.5,-5.81,-0.6762102361130722,-0.05233487245957197,-0.6764039622660355,0.2871906292540742,-75.95633492988732,70.88141727592588,-104.13818852212538,9
1767471018.5237389,2,right_wrist,-0.9648,0.2865,-0.0244,10.36,-2.94,2.73,0.47175358956281255,0.6346444444236796,0.3458689923879996,-0.5050243756505921,100.1811438582331,75.31896768346357,-8.505937581427249,9
1767471018.5791638,1,left_wrist,-0.9457,-0.365,0.0376,-10.57,-7.56,0.63,-0.67482764316332,-0.043843851431171275,-0.6772453499630451,0.2898691164435302,-76.69862587826219,69.96202439466164,-104.4274368195487,9
1767471018.5791638,2,right_wrist,-0.9252,0.1859,-0.0688,10.43,-12.39,5.53,0.46875079674806663,0.6348198919643719,0.3426630027456429,-0.5097631429043645,99.4313232006642,75.57226790872423,-9.90176298078046,9
1767471018.671391,1,left_wrist,-0.9184,-0.3392,0.0522,-3.5,-17.36,0.07,-0.6774707964079775,-0.039589132881149264,-0.6751158186439882,0.28928299636984744,-75.79374233851253,69.66015318672291,-103.12552396415771,9
1767471018.671391,2,right_wrist,-0.976,0.2708,0.001,1.12,-20.65,15.12,0.4849772505432904,0.6241520743009309,0.3258136976179642,-0.5187260250323148,88.16652079060664,74.48325528987718,-21.12748412427401,9
1767471018.72269,1,left_wrist,-0.9287,-0.3728,0.0503,2.17,-20.3,-5.11,-0.6801498073043968,-0.03409046614054446,-0.6711644708366065,0.29286913942703224,-74.40967631353452,68.89989291272717,-101.61306306973458,9
1767471018.72269,2,right_wrist,-0.976,0.2708,0.001,1.12,-20.65,15.12,0.4892844427670852,0.6240656312371272,0.3182616239263346,-0.5194731568719226,86.21968142046164,73.70128976929591,-23.322247634221387,9
1767471018.780844,1,left_wrist,-0.9096,-0.408,0.0869,-5.74,-34.58,-12.67,-0.6903527810120376,-0.010692910732620506,-0.6586249979322895,0.2991852461397482,-70.78678930323215,66.31467602443819,-96.66111518828792,9
1767471018.780844,2,right_wrist,-0.9384,0.3113,0.0122,6.65,-32.06,25.27,0.4996277283509292,0.623696316349588,0.30014327419503034,-0.5208541571211002,82.32842791119523,71.73725517897743,-27.782621487962782,9
1767471018.8320158,1,left_wrist,-0.8999,-0.4246,0.1064,-14.49,-42.91,-15.89,-0.6981362909998764,0.006794582961726675,-0.6492172938742843,0.301788764147811,-68.64233280826905,64.4731248518838,-93.34165697243063,9
1767471018.8320158,2,right_wrist,-0.9111,0.2718,0.0195,17.36,-36.4,30.17,0.5034928193999516,0.6237699269611259,0.28303758257448597,-0.5265888205060857,79.42741224215756,70.38256316123937,-31.849710361402035,9
1767471018.8833642,1,left_wrist,-0.8872,-0.3821,0.1113,-3.71,-44.73,-20.23,-0.7061355026584916,0.018795437392068483,-0.6386383348895618,0.3052219858201044,-66.20891849499617,62.930709657193034,-90.25669395031419,9
1767471018.8833642,2,right_wrist,-0.8926,0.3196,0.0805,14.28,-46.83,36.19,0.5156554345878924,0.6183477199279477,0.2577070763990568,-0.5341653609264934,74.21176621816147,67.87676339355383,-38.06321270661016,9
1767471018.9344692,1,left_wrist,-0.8457,-0.4002,0.182,-18.27,-54.74,-27.02,-0.7187562532992493,0.040729395104904746,-0.6210654081151787,0.30985209949319437,-63.071750091650905,60.17506790444732,-85.78686133297877,9
1767471018.9344692,2,right_wrist,-0.8794,0.3548,0.0683,27.79,-48.16,42.14,0.5221035937750376,0.6205515603345503,0.22919423175372577,-0.5383248113029578,72.72543543492523,65.1543325964374,-41.364002005683055,9
1767471019.018413,1,left_wrist,-0.8276,-0.3933,0.2108,-6.72,-57.82,-30.94,-0.7310039353299342,0.05512521085621654,-0.6034781148464617,0.31370148638724643,-59.960579790870185,57.96281855283729,-81.89265972328691,9
1767471019.018413,2,right_wrist,-0.7842,0.4773,0.1596,42.35,-67.06,69.16,0.5439084905398294,0.6167206149119561,0.1467162797519471,-0.5498123046249982,68.93500052711113,56.90450219510138,-49.81122219044446,9
1767471019.0745862,1,left_wrist,-0.7769,-0.5056,0.2713,-34.79,-68.81,-41.44,-0.7414128997903694,0.09020659761876199,-0.5835956640802534,0.3187252463128871,-59.111825471722355,53.88819462210562,-78.68242587843162,9
1767471019.0745862,2,right_wrist,-0.7842,0.4773,0.1596,42.35,-67.06,69.16,0.5512380834436414,0.6171977828957851,0.10269116063248009,-0.5519583296571059,69.05638531197947,52.612722813095225,-52.505534213998686,9
1767471019.1276438,1,left_wrist,-0.6422,-0.4821,0.3084,-38.85,-87.64,-59.99,-0.760457728068883,0.1573742466005316,-0.5311397593006095,0.3388627250337789,-57.19915471810528,44.520316950498525,-73.19622181122709,9
1767471019.1276438,2,right_wrist,-0.6934,0.6481,0.305,22.33,-79.24,87.22,0.5715314478056188,0.6048939980371162,0.05163859456303717,-0.5520765443844184,67.49305266270909,46.628949406376,-55.89116263417912,9
1767471019.1788118,1,left_wrist,-0.5773,-0.6388,0.2733,-23.1,-93.8,-72.59,-0.7665830016966613,0.19889451824604482,-0.4989702837253197,0.3518808435827165,-57.19289171297018,38.684384561875355,-70.97839449482396,9
1767471019.1788118,2,right_wrist,-0.612,0.548,0.3216,29.4,-75.88,92.89,0.5887121765610103,0.5923265112428693,0.0003888582456675384,-0.5500610202849441,66.83006277481475,40.69931209009039,-58.61185705398224,9
1767471019.230023,1,left_wrist,-0.4778,-0.59,0.4836,-28.98,-105.7,-79.94,-0.7746025120698982,0.2422070307091928,-0.45690952052357436,0.36408844066374413,-56.69379888790827,32.10530178684416,-67.99798948583965,9
1767471019.230023,2,right_wrist,-0.5251,0.7466,0.2757,42.63,-74.27,101.85,0.6028786491653626,0.5845323136236905,-0.05915055802444491,-0.5397782138950036,68.05850419880713,34.03604885880715,-60.32372283742698,9
1767471019.321002,1,left_wrist,-0.4465,-0.7579,0.4831,-61.46,-105.91,-91.42,-0.7721732988247619,0.30053570495090925,-0.417426035112845,0.3730712959230643,-58.73771084970984,24.860348107150553,-65.71626912602824,9
1767471019.321002,2,right_wrist,-0.3314,0.995,0.3289,44.1,-76.02,120.26,0.6379348779984072,0.5492815524694863,-0.17652561244439627,-0.5100662463847215,69.22059180332748,19.57960837195333,-63.70740201713343,9
1767471019.373129,1,left_wrist,-0.2855,-0.7413,0.4812,-2.31,-101.29,-96.32,-0.7730631079825704,0.3364534664006815,-0.3666502665091017,0.39337015404336234,-58.02917412450751,17.588951892486826,-63.74706620466981,9
1767471019.373129,2,right_wrist,-0.1654,0.7374,0.4973,34.3,-68.74,124.53,0.6528447674216311,0.5297903220219734,-0.23326883271980203,-0.4885709529061171,70.27111492990706,12.304296430503438,-64.94449619099163,9
1767471019.423681,1,left_wrist,-0.185,-0.9594,0.5944,-75.25,-102.06,-110.81,-0.7562770537176844,0.3985616960611784,-0.3244907311777072,0.40484485649776064,-61.411352233831934,9.677279204946856,-62.0775351537606,9
1767471019.423681,2,right_wrist,-0.1659,1.2019,0.3182,100.31,-52.15,127.82,0.6493888782595998,0.5336721151029611,-0.3012936968047467,-0.45023356896171146,75.53259709140386,5.1199237859735405,-65.50094649158927,9
1767471019.477673,1,left_wrist,0.0493,-0.9682,0.5578,-110.39,-81.2,-116.9,-0.7089991403003683,0.49610599542907396,-0.23809162999869266,0.44103450667406036,-66.64863577570837,-5.73837603967375,-59.99285394048216,9
1767471019.477673,2,right_wrist,-0.1659,1.2019,0.3182,100.31,-52.15,127.82,0.6412843830827168,0.5352326219783229,-0.361074363512716,-0.4146151039196671,80.42528642722104,-1.1042521414726705,-66.702046817185,9
1767471019.529803,1,left_wrist,0.1435,-0.937,0.4543,-30.66,-65.45,-121.94,-0.6848273189299845,0.5286043320248318,-0.19363361931182282,0.4627040359494985,-67.93173923168486,-12.9419375494231,-59.35139269828781,9
1767471019.529803,2,right_wrist,0.1264,1.0258,0.3099,81.13,-44.03,140.77,0.6415617645422331,0.5233964022871374,-0.420199478197391,-0.37133153229018623,84.25409551705026,-8.653623488365252,-67.95320495197741,9
1767471021.223486,1,left_wrist,0.2567,-0.9731,0.7847,115.43,148.4,128.8,-0.8211450637275345,0.3188749829372414,-0.19037906391492293,0.43335359880305035,-43.562228162994636,2.0795149139250237,-56.47610830663932,10
1767471021.223486,2,right_wrist,-0.0366,0.894,0.6822,-74.97,124.88,-128.8,0.6742761170907317,0.39763321789124784,-0.14936051012251655,-0.6040951745929106,48.272585080279484,16.200301946647514,-76.41744681257379,10
1767471021.27942,1,left_wrist,-0.0395,-0.7364,0.8198,60.97,169.05,99.12,-0.8377396415451177,0.1921841050015279,-0.30136041045508777,0.4128431491244105,-37.478634474328416,20.25746818988994,-59.40499521695229,10
1767471021.27942,2,right_wrist,-0.1371,0.813,0.6676,-42.84,132.3,-117.88,0.6588178920542096,0.4248790024892723,-0.08271787868437142,-0.6153003907839861,46.6182811608799,24.447822402842156,-75.42224804684612,10
1767471021.373078,1,left_wrist,-0.162,-0.6002,0.7393,30.45,165.69,88.41,-0.8315657715591607,0.14213554051262298,-0.3593956684765142,0.3989117811931881,-36.72194802862359,28.968139136006624,-61.05587292899936,10
1767471021.373078,2,right_wrist,-0.3684,0.5573,0.5075,-23.45,115.92,-93.1,0.6201526262546766,0.47867457333093427,0.027409993444998556,-0.6209106741353547,46.01180578563391,38.93402187909914,-72.99922685742536,10
1767471021.423551,1,left_wrist,-0.2884,-0.4919,0.6276,15.05,158.69,72.17,-0.818022852386419,0.10043370198970603,-0.4146660988062522,0.3857508405422253,-37.287497054745806,36.93638396307799,-63.351780991783556,10
1767471021.423551,2,right_wrist,-0.4963,0.4743,0.4338,-5.46,106.82,-76.72,0.5996125193289153,0.5056626031621246,0.06953527204582974,-0.616388679624186,47.39112050318594,44.97173344195975,-70.98846289318345,10
1767471021.481931,1,left_wrist,-0.528,-0.3889,0.4782,-3.99,127.05,43.89,-0.7803022587377355,0.04999891253016279,-0.5091988447783109,0.35964570097670134,-43.00062064784388,49.3492188875603,-70.00607897555065,10
1767471021.481931,2,right_wrist,-0.6159,0.4631,0.4314,-23.31,93.94,-65.73,0.585604296396945,0.5198295969470611,0.11235143524613736,-0.6117368332685452,47.34328725385006,50.137497680399875,-69.32373410059716,10
1767471021.571842,1,left_wrist,-0.6051,-0.3538,0.2777,-7.14,112.77,36.33,-0.7579517994329356,0.026998309281187207,-0.5517980304988294,0.3468415986728603,-47.40234041423168,54.85962751306608,-74.84864023860762,10
1767471021.571842,2,right_wrist,-0.6974,0.4016,0.3543,-9.8,93.94,-58.31,0.5472116472631816,0.5573849978506797,0.19074095527948426,-0.5945580419518206,51.40241314607058,60.63888941876724,-63.30907589087025,10
1767471021.6313019,1,left_wrist,-0.7759,-0.3621,0.1288,10.92,70.91,25.83,-0.7219935972824565,-0.014379617002902374,-0.6081240385873937,0.32970232906387886,-55.640660361939446,62.57385684450678,-84.64793879211028,10
1767471021.6313019,2,right_wrist,-0.8081,0.366,0.1435,-16.59,68.18,-41.23,0.5331755185269847,0.5701360838074983,0.2218527854035602,-0.5843372775998567,54.20344452474692,64.53878237040806,-59.42699377392096,10
1767471021.7208982,1,left_wrist,-0.8028,-0.3601,0.1279,4.27,54.74,17.92,-0.7076334381981871,-0.027955725745945022,-0.6272423546554243,0.32409940306663454,-60.037950584971625,64.93614112917045,-89.58704910070446,10
1767471021.7208982,2,right_wrist,-0.9057,0.3226,0.0576,-8.05,55.79,-26.95,0.5063290677162171,0.5930467736982379,0.27192596822776566,-0.5638995187044671,63.160212171914246,70.77027448663887,-48.98389482976363,10
1767471021.774799,1,left_wrist,-0.8525,-0.3723,0.0898,4.34,42.42,12.11,-0.695274625868259,-0.03804822407834452,-0.6422080189845207,0.32049085419121354,-64.3525992043501,66.55034505552285,-94.36552344738344,10
1767471021.774799,2,right_wrist,-0.8945,0.245,0.0015,-3.29,44.73,-20.51,0.4947212880779705,0.6028987578439567,0.2895036240011647,-0.5549338578631512,69.04477961100386,72.85952868402534,-42.73396183336587,10
1767471021.828129,1,left_wrist,-0.9189,-0.3953,0.1479,4.13,25.48,8.54,-0.6784975435473136,-0.04799506159675835,-0.6601111697996356,0.31873311871900206,-70.79393682205614,67.87476599939538,-101.43584751731396,10
1767471021.828129,2,right_wrist,-0.9174,0.2664,0.0,-2.1,30.1,-13.72,0.48652430584850087,0.6103372679776046,0.3011497045206289,-0.5478059643737061,74.42016244127365,74.09681797667531,-37.13919077422595,10
1767471021.879779,1,left_wrist,-0.9438,-0.3558,0.222,3.78,27.44,6.3,-0.6734854970978709,-0.05474466822322484,-0.6649535671228433,0.31820914517117427,-72.57479750622348,68.51502967034564,-103.71561091101036,10
1767471021.879779,2,right_wrist,-0.9926,0.2791,0.1391,20.51,33.46,-12.67,0.47530032260993776,0.6188149756212147,0.3053428301937537,-0.5458235844328028,79.4085305967753,74.96923357748523,-32.924531143760056,10
1767471021.971366,1,left_wrist,-0.9472,-0.4148,0.063,-18.62,41.93,1.75,-0.6592699422511352,-0.05345839741981134,-0.6818953150214512,0.31228852419082936,-79.74164583513762,68.82715049984553,-110.24986156370781,10
1767471021.971366,2,right_wrist,-0.8823,0.0693,-0.1005,14.35,32.9,-2.59,0.4520141407764231,0.6419056864332965,0.31973810838150785,-0.5304788858299316,96.75420809708658,75.95067953582344,-16.533916414785235,10
1767471022.022112,1,left_wrist,-0.853,-0.2264,-0.1898,-10.71,28.63,-4.76,-0.6484305180891102,-0.05406139100406215,-0.6941494632824058,0.3078502100667499,-85.12575156990714,68.98730711115792,-115.29835905255312,10
1767471022.022112,2,right_wrist,-0.9467,0.2137,-0.0971,39.55,25.13,2.8,0.4357975028478402,0.6575535657890876,0.31644123779420874,-0.5268479739478095,105.17814415380542,75.6200505218715,-9.980849459100046,10
1767471022.072895,1,left_wrist,-0.8906,-0.3558,0.0098,12.88,0.0,-6.65,-0.6445528161691231,-0.05423547598066496,-0.6949511491897039,0.3140908794497431,-85.60133802052563,68.4247125721885,-116.35087907989653,10
1767471022.072895,2,right_wrist,-0.9467,0.2137,-0.0971,39.55,25.13,2.8,0.4189369532249923,0.6724677461357863,0.3134301041685283,-0.523488805449096,113.21186057815092,75.16643555817136,-3.8240938575587413,10
1767471022.129327,1,left_wrist,-0.9057,-0.3904,-0.0068,-3.08,3.08,-6.02,-0.6390167731398251,-0.04976230472074457,-0.6987331425578606,0.31773144661185454,-87.20214534145114,67.6121007426257,-117.92378803326822,10
1767471022.129327,2,right_wrist,-0.9643,0.2352,-0.1186,3.29,1.05,2.38,0.41677862652742026,0.6758065841396377,0.31312104481135694,-0.5210914013872001,114.80239111853324,74.86609734515085,-2.445748387373602,10
1767471022.182844,1,left_wrist,-0.9418,-0.486,-0.0039,4.41,-3.15,-4.97,-0.636931891322588,-0.04572994844773506,-0.6984463659781177,0.3231086682265891,-87.06371556908707,66.82061431755737,-117.9445900661734,10
1767471022.182844,2,right_wrist,-0.9477,0.2474,-0.1459,9.31,-2.94,2.45,0.414146040971467,0.6796071102339298,0.3099300027904817,-0.520154424990732,115.72025258464814,74.51789213999385,-2.05638766984671,10
1767471022.269669,1,left_wrist,-0.9052,-0.4592,-0.0137,-6.16,-9.94,-4.27,-0.6368517117402105,-0.03850669184760969,-0.698312360761509,0.32449495950508256,-86.91892813487958,66.12537582186523,-117.33855714355978,10
1767471022.269669,2,right_wrist,-0.9218,0.1562,-0.1298,1.89,-30.66,15.12,0.4168933585306628,0.6738084911652494,0.2997015078115587,-0.5313765623944215,109.81729590151905,75.01182359506105,-8.711844741860922,10
1767471022.323542,1,left_wrist,-0.8628,-0.3743,-0.0795,2.87,-23.1,-4.97,-0.6409234256298132,-0.034840092071088465,-0.6941458433012452,0.3258295239707826,-85.24730966434235,65.85210503643866,-115.48253235973966,10
1767471022.323542,2,right_wrist,-0.9218,0.1562,-0.1298,1.89,-30.66,15.12,0.42051916392369515,0.6694535202112268,0.29223405397716684,-0.5381401998975576,105.11811438391902,75.08299967158369,-13.78146682149594,10
1767471022.379009,1,left_wrist,-0.8481,-0.3626,-0.0254,-15.89,-62.79,-14.0,-0.66317778094326,-0.00781405236142168,-0.6740393762446513,0.3252769446496141,-77.97223392087557,64.03993059356694,-105.94684404665078,10
1767471022.379009,2,right_wrist,-0.8691,0.1986,-0.1542,17.15,-60.9,49.91,0.43258823955318093,0.6663214929592127,0.2639668930010099,-0.5469959436963666,95.42551798382188,73.20173606687568,-24.85495452243702,10
1767471022.429059,1,left_wrist,-0.815,-0.4285,0.0015,-34.44,-72.66,-25.97,-0.6779583302922378,0.021094581579476735,-0.6601865792967773,0.3226161829973316,-74.34185338446542,61.82955300252051,-99.7383997258668,10
1767471022.429059,2,right_wrist,-0.8062,0.2225,-0.0937,52.29,-67.06,76.3,0.4406771030797543,0.6702575906122906,0.2180821427012898,-0.5558764539739537,88.94891669490691,69.61421472531735,-34.555894508211516,10
1767471022.52118,1,left_wrist,-0.8013,-0.4055,0.1205,-43.68,-91.28,-38.15,-0.7002595377013394,0.05523382913471863,-0.6363660955952167,0.3187851884174086,-69.1514711560098,58.873423802311166,-91.46007888973779,10
1767471022.52118,2,right_wrist,-0.693,0.3421,0.1908,46.27,-89.39,120.96,0.48274447772456636,0.6579920314342054,0.10106989453504912,-0.5690247202136277,77.6760981469102,57.82324981390391,-51.433706778280815,10
1767471022.574163,1,left_wrist,-0.7135,-0.4372,0.1074,-36.33,-99.96,-58.8,-0.7154652632915416,0.09809330678651937,-0.6110946047140186,0.3241150170483744,-66.44544239415097,54.178758247518715,-85.7840568859634,10
1767471022.574163,2,right_wrist,-0.6242,0.7842,0.2855,-22.61,-100.24,123.34,0.5256946556644085,0.630960322379791,0.04688796496166939,-0.5686261683479071,71.90149771554772,50.07262644720052,-57.06666091525978,10
1767471022.6300118,1,left_wrist,-0.5505,-0.3426,0.2499,-53.41,-125.02,-97.86,-0.7502705363362542,0.2074952345403188,-0.532221928423326,0.3328357986366905,-62.44173650445763,41.33780152967023,-73.60554589747164,10
1767471022.6300118,2,right_wrist,-0.6242,0.7842,0.2855,-22.61,-100.24,123.34,0.5657673832919018,0.6006967684580871,-0.00793910246445784,-0.5648076053127337,68.00307608955353,42.03410465117918,-60.843939554712776,10
1767471022.718417,1,left_wrist,-0.3109,-0.7169,0.2767,-51.59,-152.04,-105.0,-0.7616580631389955,0.27359632437590936,-0.47700308187929846,0.3427682978646031,-62.014829465565924,32.620093233267255,-68.40745742126582,10
1767471022.718417,2,right_wrist,-0.3826,0.7993,0.3143,208.88,-60.97,171.85,0.5556463428857216,0.6272333509491201,-0.20292027536772944,-0.506615067817318,81.75459385751218,24.206588417972167,-63.68487650738561,10
1767471022.773513,1,left_wrist,-0.2523,-0.7222,0.6183,-55.58,-139.86,-133.35,-0.7620429701892099,0.3400293197431788,-0.4178422343721948,0.3592748814975103,-62.85888655169217,23.11011448697963,-64.72786783886284,10
1767471022.773513,2,right_wrist,-0.1444,1.3947,0.2411,-80.22,-78.33,152.46,0.604604448938462,0.5731335146060936,-0.24827196430104792,-0.4942999762302081,76.82085961930028,15.44939062662806,-66.2588815546634,10
1767471022.828168,1,left_wrist,-0.0034,-1.1497,0.5958,-129.5,-129.36,-146.72,-0.7295212097866254,0.47545306027870027,-0.2960852191948546,0.39252609456877136,-68.08687110617988,3.3678040968248624,-58.841509566576434,10
1767471022.828168,2,right_wrist,-0.1386,0.815,0.224,219.59,-34.44,178.99,0.5824340821536788,0.5969432036689155,-0.3493759658230421,-0.4270430728211267,87.51138780907382,5.904115210359339,-66.84454531074314,10
1767471022.8782258,1,left_wrist,0.0732,-0.6695,0.4612,-45.08,-76.86,-143.92,-0.7044058480088822,0.5188846376727282,-0.24579830369772565,0.4173180177963202,-70.00278680245414,-4.979326634341309,-57.80051057192304,10
1767471022.8782258,2,right_wrist,0.123,1.3088,0.1044,-32.69,-55.37,161.56,0.6130989062076947,0.5495611457458,-0.40082882540422143,-0.40178169572364064,85.71425353570099,-2.85957092872658,-69.12937134389666,10
1767471022.932702,1,left_wrist,0.2211,-1.3718,0.3231,-125.37,-86.24,-161.07,-0.6505870398219494,0.5904484961120537,-0.20454958813930552,0.43158607837460183,-76.94663694966526,-14.093446716566692,-55.89841934465271,10
1767471022.932702,2,right_wrist,0.1547,1.0409,0.1659,119.98,-23.31,172.13,0.6104328808855685,0.5421747842808903,-0.4682290603953051,-0.3379049396280633,91.5447537313003,-11.84341723375177,-70.09813235460878,10
1767471025.223583,1,left_wrist,-0.0376,-0.6983,0.8491,35.63,121.59,73.57,-0.8501433199859382,0.20743915383451492,-0.24288969114642273,0.41860474301481876,-34.93848205623008,13.845941714732337,-56.80727634886498,11
1767471025.223583,2,right_wrist,-0.2982,0.672,0.632,-14.07,86.31,-72.17,0.6306941511968015,0.421377209456054,-0.09491689300743401,-0.6447146023001108,46.20967940352553,25.062650724228757,-80.42559000293096,11
1767471025.27718,1,left_wrist,-0.2396,-0.6139,0.8174,12.32,122.22,54.39,-0.8409680247958498,0.14921812940023121,-0.3320486745864958,0.4003128886691187,-35.1149671715306,26.04116306763169,-59.27963910312253,11
1767471025.27718,2,right_wrist,-0.3845,0.6974,0.5788,-16.17,83.44,-64.54,0.6185850001045918,0.444433743903194,-0.05917309534483688,-0.645236227836831,46.32184528408357,30.021327241692585,-79.32827863641083,11
1767471025.333169,1,left_wrist,-0.3626,-0.5339,0.7047,3.5,120.19,49.0,-0.8305615841829316,0.12370925735733906,-0.3759482562637896,0.3918244289676829,-36.064276675689314,31.840184547183945,-61.12206168213503,11
1767471025.333169,2,right_wrist,-0.4568,0.651,0.5958,-17.01,82.46,-62.93,0.6074791310639253,0.46344402602638995,-0.024273644345818433,-0.644670094119808,46.23577363170135,34.61404767110572,-78.24815508517187,11
1767471025.425287,1,left_wrist,-0.4524,-0.53,0.5973,13.86,108.36,40.81,-0.8180077591302453,0.09764603386697958,-0.41533801273411086,0.3857757032925261,-37.057743978421634,37.168456216228236,-63.35653745085972,11
1767471025.425287,2,right_wrist,-0.6071,0.5231,0.5148,-12.18,77.77,-58.17,0.5777511461486846,0.4984283062947016,0.04776173126534953,-0.644586420609846,45.892837414415276,44.24668584905664,-76.72794500801076,11
1767471025.483108,1,left_wrist,-0.6359,-0.4685,0.4973,8.12,91.42,28.91,-0.7885658667984965,0.053886015000699075,-0.4865544972041584,0.3721893232725637,-40.654086659238956,46.65625596426306,-68.68624331711953,11
1767471025.483108,2,right_wrist,-0.6686,0.487,0.4758,-8.82,76.23,-51.24,0.5612744736293471,0.5156172448606106,0.08482576930663935,-0.6418055865415863,45.99443525527581,49.20684689514075,-75.66303071292825,11
1767471025.573101,1,left_wrist,-0.6725,-0.3792,0.4343,3.22,83.86,25.41,-0.7735518119285921,0.03155274678702497,-0.5179123882867436,0.36385268515060787,-42.68685311400663,51.10546390161855,-71.5458050756093,11
1767471025.573101,2,right_wrist,-0.7857,0.4646,0.386,-8.4,78.4,-45.01,0.5337130934881088,0.5505624381638637,0.1430690130167184,-0.6257496248795016,49.19187702110153,57.32475200099808,-70.98084390212786,11
1767471025.623321,1,left_wrist,-0.7203,-0.4573,0.4602,17.92,78.05,21.98,-0.758790433123494,0.012037639638026466,-0.5401049947474276,0.3638389320579733,-44.654332820352714,54.18331908807926,-74.96387557681444,11
1767471025.623321,2,right_wrist,-0.7745,0.3514,0.2621,-17.22,72.94,-45.15,0.5186463951410349,0.5656353714036186,0.17721112095729438,-0.6161645575926605,51.0917976916928,61.74733901405795,-67.92806119630325,11
1767471025.679063,1,left_wrist,-0.792,-0.4119,0.3055,5.95,70.84,16.73,-0.7233077612296228,-0.01637461626809818,-0.5917013332750418,0.35559427257423804,-53.00102749502338,60.18205661317565,-84.58963686946254,11
1767471025.679063,2,right_wrist,-0.8379,0.3684,0.2196,-10.64,66.92,-41.3,0.5037671454638716,0.5805774938850804,0.20530633537647078,-0.605803388402199,54.303022877789495,65.5447383630427,-63.965332098789155,11
1767471025.7302542,1,left_wrist,-0.8159,-0.367,0.2582,-4.27,61.11,15.33,-0.7080126099364616,-0.029277780327301602,-0.6140176658658638,0.3476251742246272,-57.63775313244775,62.85062272441437,-89.46282357361429,11
1767471025.7302542,2,right_wrist,-0.8882,0.3899,0.2059,-18.41,64.75,-42.7,0.49202853640568944,0.5921844228819813,0.23272948003604405,-0.5941906409398947,58.13589632525369,68.86921506872146,-59.02248292149777,11
1767471025.822746,1,left_wrist,-0.8589,-0.3338,0.2479,-5.11,62.51,10.78,-0.6948586390989127,-0.04334740891027323,-0.6321299299616233,0.34015323819873594,-61.947049271281365,65.22650349928392,-94.18571279551718,11
1767471025.822746,2,right_wrist,-0.8428,0.1303,-0.0083,5.53,48.51,-19.81,0.45916692834183204,0.6196103443231533,0.2717940365267351,-0.5756533286913001,71.75485517479213,74.3567251871786,-45.34957978624498,11
1767471025.878665,1,left_wrist,-0.8579,-0.3567,0.0488,-2.24,24.22,-1.26,-0.6695089214849662,-0.04686445880283133,-0.664617851377486,0.3283970739570147,-73.29453455013113,67.03090301429089,-104.71486492578622,11
1767471025.878665,2,right_wrist,-0.9194,0.2206,0.0459,1.33,32.69,-12.25,0.44928685960825315,0.6280224161671835,0.2836610052210796,-0.5685645053042387,78.25878977725684,75.70396760031927,-38.76359908265014,11
1767471025.931044,1,left_wrist,-0.9418,-0.4802,0.0732,-13.44,28.07,1.33,-0.659308810254055,-0.04436861517106621,-0.6763697988176001,0.3253724234728929,-78.0013236445674,67.03535488215122,-108.9475085853971,11
1767471025.931044,2,right_wrist,-1.0316,0.3416,0.0551,14.56,50.68,-20.86,0.43644363206543985,0.6421623352386165,0.29231295499202975,-0.5582988694008267,88.93286767746845,76.4567111024735,-28.546285198126252,11
1767471025.986016,1,left_wrist,-0.8745,-0.2674,0.0386,4.06,10.29,-3.43,-0.6559391650094557,-0.04929844450687355,-0.6798884062457016,0.32413767172079927,-79.36156812607884,67.50154225477041,-110.59867722752786,11
1767471025.986016,2,right_wrist,-0.8003,-0.1508,-0.3299,63.7,51.1,-1.68,0.4081880908692611,0.6671295388701064,0.28985308873031534,-0.551639236995487,104.50135995296436,76.57108930560094,-15.895403075858574,11
1767471026.0726311,1,left_wrist,-0.9111,-0.4226,0.1098,4.62,-1.47,-6.86,-0.6559091307353789,-0.04585235053478527,-0.6771904956290697,0.3302935161308039,-78.52190996457442,66.72810951150474,-110.03567573991675,11
1767471026.0726311,2,right_wrist,-0.9589,0.141,-0.0542,38.01,12.53,-1.19,0.39565743431809225,0.6748627819009942,0.2884627626723072,-0.5520911653206704,109.73206192576488,76.76430001967977,-11.981952161670389,11
1767471026.131514,1,left_wrist,-0.8813,-0.3733,-0.0098,4.48,6.58,-10.57,-0.6487058900157312,-0.04585470561039597,-0.6816075883216357,0.3353939620426185,-80.49143856885706,66.21772962505783,-112.47451739017995,11
1767471026.131514,2,right_wrist,-0.9467,0.1786,-0.1479,-0.21,-6.02,2.31,0.39469349881934473,0.6754492101872687,0.2886188298459428,-0.5519824068804163,110.22823900227404,76.78124749129248,-11.56230614926368,11
1767471026.188813,1,left_wrist,-0.8955,-0.4621,0.1078,-1.33,-9.52,-8.54,-0.6504913624233086,-0.038690328133328455,-0.677766134533084,0.3405834887390824,-79.22612655004293,65.24636435688996,-111.09870608672654,11
1767471026.188813,2,right_wrist,-1.0014,0.2855,-0.0908,3.71,-7.49,3.64,0.39807846070554925,0.6764461965582318,0.28245305761866174,-0.5515200381908816,108.21924058055417,76.1735886404134,-13.79084516610411,11
1767471026.269779,1,left_wrist,-0.9316,-0.4636,0.0742,-5.67,-8.82,-4.76,-0.6503749538045431,-0.030864318489801795,-0.6770593020725847,0.3430022081341213,-79.15661628230171,64.40336261521763,-110.61593774192292,11
1767471026.269779,2,right_wrist,-0.9316,0.2596,-0.0581,-12.25,-32.9,11.41,0.4092340454404836,0.668688324210271,0.2676171111215121,-0.5601468583793469,98.62186208566031,75.50360544822074,-23.68556650392903,11
1767471026.321263,1,left_wrist,-0.8847,-0.3992,0.0146,-4.83,-24.92,-3.22,-0.6554222641589176,-0.02557337446994982,-0.6733191111328544,0.3411876796519486,-77.81482596988816,64.16691667170018,-108.67611469101583,11
1767471026.321263,2,right_wrist,-0.9667,0.2245,-0.101,-3.71,-28.42,11.76,0.4142867420138814,0.6643774373371095,0.2617013328720105,-0.5643416771087459,94.43136279052551,75.17470940265035,-27.93326290704483,11
1767471026.373434,1,left_wrist,-0.9326,-0.429,0.1161,2.73,-29.75,-0.98,-0.6664495419021303,-0.022814560281723375,-0.6618029296237178,0.3425512899976537,-73.78728286951531,63.86346101040593,-104.54751881073253,11
1767471026.373434,2,right_wrist,-0.9209,0.2084,-0.0795,-3.92,-39.62,20.09,0.422335029365421,0.6578596389182068,0.2517462275913125,-0.5705064901882,88.35922669575586,74.42266877230495,-34.12811647175714,11
1767471026.427731,1,left_wrist,-0.8969,-0.4626,0.1835,-3.71,-42.91,-4.34,-0.6861363301416763,-0.0027843510697809766,-0.6403698653102121,0.3451602808137311,-67.68856215425357,61.72500287100726,-97.0838942433138,11
1767471026.427731,2,right_wrist,-0.9174,0.2533,0.0503,-12.39,-41.86,29.4,0.4390810630750538,0.6457632505553212,0.23778335940241468,-0.5776302608697089,79.74500590277538,72.71471284741816,-42.346294997699935,11
1767471026.479002,1,left_wrist,-0.874,-0.4094,0.224,-24.92,-46.34,-7.77,-0.7001471635988342,0.012637485033032744,-0.6274571522054235,0.34048754077470583,-64.49668621043949,60.46083336446647,-92.23984375419924,11
1767471026.479002,2,right_wrist,-0.8862,0.3245,0.1049,-13.51,-71.4,34.44,0.461378794236647,0.6269149241829611,0.21501204461301107,-0.5898110771566965,69.49446935108512,69.7062426281097,-52.36524064626669,11
1767471026.5301251,1,left_wrist,-0.8608,-0.3987,0.2225,-11.69,-46.48,-9.8,-0.7134191414494828,0.022480838941587762,-0.6133887281639157,0.33805622114586087,-61.11445329252102,59.317362652817806,-87.87237295287089,11
1767471026.5301251,2,right_wrist,-0.8862,0.3245,0.1049,-13.51,-71.4,34.44,0.4812825570245925,0.6113062084624689,0.19255462285449074,-0.5979920877540733,63.513075317278194,66.4137692129744,-58.232651658532475,11
1767471026.580714,1,left_wrist,-0.853,-0.4426,0.2777,-11.06,-49.91,-10.5,-0.7269229263887036,0.03598514037152966,-0.5963120256158588,0.3386740274494578,-57.89612328645038,57.41264702595395,-83.66548123735352,11
1767471026.580714,2,right_wrist,-0.8882,0.3572,0.0786,17.15,-52.29,37.1,0.4893008812323934,0.6069149018303773,0.16779569327405155,-0.6033933666192455,62.1292770804474,63.71753829399896,-60.874174244731336,11
1767471026.633148,1,left_wrist,-0.793,-0.3997,0.2352,-20.37,-60.9,-16.03,-0.738851964604237,0.05348375421451946,-0.5821682127712589,0.3351379335054425,-56.00599336497894,55.53007496311836,-80.07758135759866,11
1767471026.633148,2,right_wrist,-0.8486,0.3562,0.1391,0.07,-61.53,43.05,0.5030223093133499,0.5961500425689656,0.14463553465273807,-0.6088138017438514,59.718617150868965,60.62156886187532,-63.76607785987689,11
1767471026.72261,1,left_wrist,-0.8125,-0.4919,0.3118,-9.66,-63.42,-22.4,-0.7494307450217073,0.07549542271650912,-0.5626999677155208,0.3406211178098278,-54.40878287600722,52.370804978919466,-77.25524871455222,11
1767471026.72261,2,right_wrist,-0.7954,0.507,0.3099,-3.85,-67.55,48.79,0.5385606101051718,0.56761460759082,0.08194952044421237,-0.6172928013444091,56.15070990349866,52.09573812963153,-68.5691522885171,11
1767471026.777759,1,left_wrist,-0.7232,-0.5568,0.3963,-8.61,-72.24,-35.77,-0.772654784216103,0.11871461460843061,-0.5144773677204019,0.3524549089030052,-50.98683484244863,45.34434801906109,-71.5720747857664,11
1767471026.777759,2,right_wrist,-0.7725,0.5012,0.3875,0.7,-59.08,52.64,0.5557641469297648,0.5503940291002274,0.05420013518155264,-0.6206891098324107,54.50889110992269,48.02974846869385,-70.46516804648388,11
1767471026.830687,1,left_wrist,-0.6647,-0.4807,0.4758,-4.34,-77.42,-38.85,-0.7852543238790504,0.13900273750632042,-0.48385968178178135,0.3604631661363441,-48.99334827914167,41.2766220673597,-68.79024437540566,11
1767471026.830687,2,right_wrist,-0.7208,0.507,0.4519,-9.73,-58.17,50.68,0.5738802803211251,0.5300290140055085,0.03083953802128552,-0.6235219250880669,52.56677045896749,44.13615619684997,-72.10395863355667,11
1767471026.881511,1,left_wrist,-0.5924,-0.6515,0.4475,-35.91,-81.27,-50.89,-0.7895869668907868,0.1787145539773627,-0.45845459816676815,0.36665093935871357,-50.17137157837421,36.36505256640345,-67.29846226359766,11
1767471026.881511,2,right_wrist,-0.6705,0.5954,0.344,29.61,-56.07,56.7,0.5821098933476687,0.5256952363041782,-0.005420071206712161,-0.6202928448901969,54.140681571386736,40.230173458572914,-72.43395379298606,11
1767471026.934072,1,left_wrist,-0.5275,-0.6115,0.5695,-12.53,-86.87,-52.15,-0.7978625088159462,0.20776625175203503,-0.42244553111630745,0.37654797157692266,-49.404933894916304,31.174011866923838,-65.15425809478481,11
1767471026.934072,2,right_wrist,-0.5802,0.6002,0.3719,2.1,-71.68,59.57,0.5968528827990877,0.5090304813625918,-0.03993386663292662,-0.6189183238795974,53.93149172053027,35.621447560235644,-73.5132609966609,11
1767471027.0193632,1,left_wrist,-0.4909,-0.547,0.5729,-35.98,-82.6,-50.89,-0.8025891921593047,0.24004060676509287,-0.39265970034473685,0.3795384769138728,-49.853459387652606,26.62053781031559,-63.16724358554554,11
1767471027.0193632,2,right_wrist,-0.449,0.8003,0.4065,30.38,-78.12,81.97,0.6178612822121722,0.48072250025172186,-0.13637031219035067,-0.607088503966242,56.613529415521825,24.52979183287625,-75.63583370537933,11
1767471027.07283,1,left_wrist,-0.385,-0.6661,0.5192,-16.03,-85.19,-56.77,-0.8035097850986421,0.2733116625450645,-0.3585489662408466,0.3887356417608335,-50.42260171666028,21.327799436266737,-61.767442924121,11
1767471027.07283,2,right_wrist,-0.449,0.8003,0.4065,30.38,-78.12,81.97,0.6262397693601928,0.46606434853798184,-0.18289138986287523,-0.5976274038291625,58.13819693113509,19.147302938426368,-76.60890300533694,11
1767471027.123331,1,left_wrist,-0.2933,-0.467,0.529,-74.62,-100.31,-74.48,-0.7979514396496824,0.3244620829576784,-0.32488476604371125,0.3904455730015223,-53.143589564043026,15.373784192584585,-59.86982909536125,11
1767471027.123331,2,right_wrist,-0.2806,0.2562,0.3553,69.09,-84.56,102.62,0.6308734419112293,0.45264894678644313,-0.2411652541259154,-0.5821915075527856,60.91466758524819,12.871618352271122,-77.81381874956868,11
1767471027.182813,1,left_wrist,-0.0664,-0.6056,0.6051,-17.43,-90.93,-98.14,-0.7831553367088736,0.39398453591415666,-0.2304942246506242,0.42227516674275917,-54.30074303854314,1.6208727498395619,-57.49812629436692,11
1767471027.182813,2,right_wrist,-0.0356,0.8662,0.4953,75.04,-93.1,141.54,0.6419065293483998,0.4305510903328439,-0.31601797716920754,-0.5501948784739582,64.49973726776318,3.9029123963303443,-78.73837121319515,11
1767471027.235081,1,left_wrist,0.0473,-1.0375,0.6129,-100.24,-102.83,-110.18,-0.7515552444698694,0.46026821802650036,-0.19379746711233753,0.43099933146744795,-59.734907225813835,-6.053184803454087,-56.188192604091554,11
1767471027.235081,2,right_wrist,0.0878,1.0594,0.5173,99.61,-79.03,151.83,0.6480055932425858,0.41403973185255905,-0.39215620854742006,-0.5048498387357353,69.45154081538183,-5.174137873321492,-79.43052076092083,11
1767471027.324106,1,left_wrist,0.1986,-0.8584,0.6388,-65.38,-80.99,-123.27,-0.7208984098232075,0.5045416537545259,-0.15114373232967826,0.4504428648768603,-62.7291179318549,-13.686889187797878,-55.62931186530908,11
1767471027.324106,2,right_wrist,0.3255,1.0931,0.2996,78.75,-42.49,142.03,0.6643947057094317,0.3778766462580111,-0.5037321539767038,-0.40254544127100256,77.15744553805531,-21.415516244646035,-79.57705906801384,11
1767471029.182152,1,left_wrist,0.4309,-0.8867,0.7193,99.19,134.4,150.43,-0.8221512236849006,0.33821836993782106,-0.16294164115333687,0.42793191188351554,-44.08706256740702,-1.2344487343299084,-54.494338717237326,12
1767471029.182152,2,right_wrist,0.0425,0.8189,0.6656,-57.61,103.18,-119.07,0.6312174283880022,0.3704777976738492,-0.16026010382860675,-0.6622895580113098,45.24775860873473,16.762741842324353,-85.7248542555616,12
1767471029.2754428,1,left_wrist,0.0561,-0.6847,0.8106,57.68,158.34,107.73,-0.8492777183191271,0.22127174573926855,-0.2733377595438283,0.3937672420500646,-38.14484253833252,16.859165812824234,-55.61576979861143,12
1767471029.2754428,2,right_wrist,-0.2791,0.7052,0.669,-27.72,109.83,-100.03,0.5959822719245289,0.4202986403352583,-0.05190470700505279,-0.6822463527749559,41.72083102546058,30.772188165178058,-85.74886338682396,12
1767471029.332125,1,left_wrist,-0.2167,-0.5827,0.6505,14.63,166.6,74.2,-0.8334976962445063,0.12706769429699624,-0.39223092262902665,0.36781829040265024,-37.165847475302044,34.08149310463429,-59.39035098254322,12
1767471029.332125,2,right_wrist,-0.3787,0.6085,0.6598,-38.71,104.37,-90.79,0.5793316456912299,0.44046731307490594,-0.00021709085660685156,-0.6858304041706111,39.842584848422746,37.15118137059667,-85.73519143822534,12
1767471029.383946,1,left_wrist,-0.3509,-0.4821,0.5495,17.15,152.81,69.44,-0.8170654226785897,0.08802676197001752,-0.4456067491281377,0.35509155069021897,-38.08497286568904,41.733333048554464,-61.96994466204259,12
1767471029.383946,2,right_wrist,-0.5046,0.5949,0.5754,-14.28,109.27,-84.84,0.5572962588373137,0.46933929447522627,0.04345281551710881,-0.6835593312734942,39.84587951954456,43.6360216449521,-85.10814424710834,12
1767471029.4359438,1,left_wrist,-0.4714,-0.4992,0.4738,1.26,129.99,50.4,-0.7972366756059641,0.06195836476660164,-0.49232724378630466,0.34378587686229933,-40.74793513540491,47.9364201514594,-65.40367032177448,12
1767471029.4359438,2,right_wrist,-0.5744,0.4109,0.4714,-11.9,109.62,-74.2,0.5365352548626965,0.49747741173090676,0.08434359881957267,-0.6764113411564757,40.53639905338173,49.774204456593935,-83.71418068198231,12
1767471029.523293,1,left_wrist,-0.5749,-0.3533,0.2552,-25.06,107.59,34.86,-0.7757850081332216,0.04778416383604867,-0.5368153810282256,0.32818217735542515,-45.50107470810625,53.27768513139761,-69.6176693754693,12
1767471029.523293,2,right_wrist,-0.7222,0.3611,0.3055,3.08,94.29,-47.74,0.4975597797526896,0.5450460754776458,0.15771361816131876,-0.6561139046121011,43.28771800812604,60.71162222203623,-79.4843612917143,12
1767471029.583765,1,left_wrist,-0.7452,-0.4216,0.3079,9.87,57.68,20.37,-0.745650180972154,0.017499624403561315,-0.58525377830282,0.3180842431561204,-51.72723543268824,59.503082183941935,-77.18069162038586,12
1767471029.583765,2,right_wrist,-0.7676,0.2635,0.2152,0.84,81.62,-37.66,0.47879471861913714,0.5679845418805473,0.18567825180542027,-0.643173976785169,46.86253789530588,65.28918498684898,-75.6368327858568,12
1767471029.671124,1,left_wrist,-0.8267,-0.3909,0.2845,11.2,53.2,16.24,-0.7319637095823422,0.0037183442698833836,-0.6036182563638938,0.3160068074497126,-54.967700527870655,61.79997816702771,-81.28884651808046,12
1767471029.671124,2,right_wrist,-0.852,0.1781,0.1235,7.35,54.95,-20.79,0.4500755232629157,0.6020746680772249,0.2243799942122426,-0.620154606220599,56.528979646418655,71.57435656889696,-65.68907924211739,12
1767471029.7274141,1,left_wrist,-0.8828,-0.3928,0.1488,4.34,41.72,6.16,-0.7067185255198262,-0.016418059177881666,-0.635881764526765,0.3097317461324267,-62.76871835129599,65.36054499753503,-90.07678886170639,12
