timestamp,node_id,node_name,ax,ay,az,gx,gy,gz,qw,qx,qy,qz,roll,pitch,yaw,rep_number
1767367886.262346,1,left_wrist,0.3348,-0.1532,-0.9223,0.42,-1.26,-0.63,0.02825925802071609,0.8123188963312106,-0.5523118482077061,0.18517842025665457,-170.31770813365134,-19.39408200054971,-70.08347644363457,1
1767367886.262346,2,right_wrist,-0.0703,-0.0346,-0.9653,1.12,-2.38,-0.7,0.037327029426431194,-0.0400221894219119,0.9982748967350261,-0.021263766758216684,-177.38853037381,4.176160354700536,-175.31309791310954,1
1767367886.320022,1,left_wrist,0.3353,-0.1552,-0.9233,0.28,-1.12,-0.7,0.03204304551715269,0.8124865345088323,-0.551141555822124,0.1873015214080824,-170.55211378267438,-19.85740570612811,-69.95861423272126,1
1767367886.320022,2,right_wrist,-0.0688,-0.0346,-0.9648,1.05,-2.52,-0.63,0.03735215381024074,-0.04014948056430792,0.9983536415291167,-0.016817914903594654,-177.89801828615302,4.199578278049912,-175.31702629870503,1
1767367886.399615,1,left_wrist,0.3333,-0.1552,-0.9209,0.42,-1.05,-0.7,0.027427036722085733,0.8127749382213634,-0.5517927259491094,0.184849790493675,-170.27492862319906,-19.314342170408956,-70.00387294727254,1
1767367886.399615,2,right_wrist,-0.0664,-0.0332,-0.9662,1.05,-2.45,-0.56,0.03979832574980751,-0.040627524037969216,0.9982448782994497,-0.016512434919572227,-177.91903661027686,4.480237347503259,-175.25740491563695,1
1767367886.454885,1,left_wrist,0.3333,-0.1552,-0.9209,0.42,-1.05,-0.7,0.03124670878863043,0.8129640441770616,-0.5506081292906744,0.18693259219349462,-170.51635554482544,-19.776277686125695,-69.87517762290598,1
1767367886.454885,2,right_wrist,-0.0664,-0.0332,-0.9662,1.05,-2.45,-0.56,0.03596275355412706,-0.040928652458479216,0.998384137418653,-0.016144346241031744,-177.9788700619081,4.042002591708523,-175.23363153156606,1
1767367886.5096881,1,left_wrist,0.3343,-0.1527,-0.9228,0.28,-0.98,-0.77,0.030949268066256575,0.8135184726495914,-0.5499996316457836,0.1863605179579124,-170.5454703462422,-19.710002984574118,-69.76935081099643,1
1767367886.5096881,2,right_wrist,-0.0698,-0.0346,-0.9662,0.98,-2.52,-0.63,0.04185373111540104,-0.04117012665322916,0.9981139484765974,-0.017939668880245667,-177.74248909373412,4.707698989616491,-175.18320595322282,1
1767367886.5696929,1,left_wrist,0.3377,-0.1542,-0.9228,0.35,-1.05,-0.77,0.03246552783869949,0.8131904442735839,-0.5490457629409371,0.19030512615505196,-170.42159064016698,-20.191486216541804,-69.76176280218807,1
1767367886.5696929,2,right_wrist,-0.0703,-0.0342,-0.9653,1.05,-2.45,-0.63,0.038264329896128074,-0.04146516314974925,0.998268244909965,-0.016643091868498976,-177.90797158117365,4.302136677350119,-175.16434694530807,1
1767367886.651569,1,left_wrist,0.3338,-0.1527,-0.9218,0.35,-1.05,-0.63,0.0306627800297991,0.8140835526727777,-0.5494199137033704,0.18564892031653202,-170.58510844459823,-19.630983353999635,-69.66275680828204,1
1767367886.651569,2,right_wrist,-0.0678,-0.0356,-0.9662,0.98,-2.45,-0.56,0.038390424270125054,-0.04210124331062199,0.9981776743927238,-0.0198743799901572,-177.53380222648744,4.2993524421472955,-175.07702136793122,1
1767367886.7051551,1,left_wrist,0.3338,-0.1527,-0.9218,0.35,-1.05,-0.63,0.03409715258493532,0.8141125051054009,-0.548289962248313,0.1882453997163057,-170.7518680486017,-20.114425445745933,-69.56277519149783,1
1767367886.7051551,2,right_wrist,-0.0673,-0.0332,-0.9658,0.98,-2.52,-0.56,0.03664587712875195,-0.04225813229029144,0.9983033292726022,-0.0161800095191163,-177.96592236004147,4.1173757125931765,-175.07911349747036,1
1767367886.768419,1,left_wrist,0.3348,-0.1527,-0.9213,0.42,-0.98,-0.56,0.0337979314661858,0.8147537070978174,-0.5478227993706954,0.1868803817649829,-170.83616369656932,-19.97155134751392,-69.44889553995259,1
1767367886.768419,2,right_wrist,-0.0673,-0.0361,-0.9648,1.05,-2.52,-0.63,0.034068575200931595,-0.04271945283805035,0.9983064523544147,-0.019965162672483435,-177.54310027668225,3.802414877446338,-175.01782853841962,1
1767367886.848507,1,left_wrist,0.3348,-0.1527,-0.9213,0.42,-0.98,-0.56,0.028690665432626678,0.8147611164837254,-0.548515505102396,0.18566612358071696,-170.41609249087057,-19.513054511215504,-69.55033232514654,1
1767367886.848507,2,right_wrist,-0.0703,-0.0342,-0.9672,1.05,-2.59,-0.56,0.03451868234545603,-0.04305821011009853,0.9983546387307539,-0.015571333791111693,-178.04342081451497,3.8751644392784126,-174.99462411685687,1
1767367886.898947,1,left_wrist,0.3357,-0.1527,-0.9194,0.35,-0.84,-0.7,0.03264112825726753,0.8149423506353798,-0.5473272474726801,0.1877136277976483,-170.6751330447123,-19.979403764542216,-69.41779755923585,1
1767367886.898947,2,right_wrist,-0.0703,-0.0346,-0.9653,0.98,-2.45,-0.63,0.04039092825106493,-0.04329837060020106,0.9980949559037838,-0.017328676170115402,-177.81026086455222,4.53840794035672,-174.94523620804856,1
1767367886.953523,1,left_wrist,0.3333,-0.1532,-0.9218,0.56,-1.05,-0.63,0.028501346526259946,0.8153932177466354,-0.5479572954372454,0.1845653707391437,-170.49290742524943,-19.403681941906758,-69.4324865711616,1
1767367886.953523,2,right_wrist,-0.0703,-0.0346,-0.9653,0.98,-2.45,-0.63,0.03672168075737552,-0.04360516998822762,0.9982417791115005,-0.016231381609630304,-177.95407199293948,4.123048862262885,-174.92394188415716,1
1767367887.0115058,1,left_wrist,0.3343,-0.1552,-0.9218,0.35,-0.98,-0.7,0.027027681400208548,0.8156686366325655,-0.5475147844039583,0.1848830454941388,-170.33810824294696,-19.341791570328805,-69.39298940400381,1
1767367887.0115058,2,right_wrist,-0.0698,-0.0346,-0.9662,1.05,-2.59,-0.56,0.03786577678448532,-0.043850571653417846,0.9981814168118154,-0.016648406702532,-177.8991803990011,4.251450992876875,-174.89118759115559,1
1767367887.1070411,1,left_wrist,0.3357,-0.1542,-0.9218,0.42,-1.19,-0.77,0.030607834954741293,0.815813159219461,-0.5463184170716927,0.18721174336036145,-170.5411465203599,-19.810044195818797,-69.27270572654213,1
1767367887.1070411,2,right_wrist,-0.0678,-0.0332,-0.9658,1.05,-2.52,-0.63,0.039917332852901145,-0.04441513538324275,0.9980563400710376,-0.0178169674974202,-177.75168897037713,4.4791785655633936,-174.81591253185096,1
1767367888.6032739,1,left_wrist,0.3362,-0.1532,-0.9213,0.42,-0.91,-0.7,0.029141239846765928,0.8226649735807747,-0.5360510218501173,0.1871428100595408,-170.65904633614855,-19.82534277110304,-67.81267841856508,2
1767367888.6032739,2,right_wrist,-0.0683,-0.0346,-0.9643,1.05,-2.52,-0.63,0.038050667657305824,-0.0523992128839576,0.9977591514748547,-0.01682690786071417,-177.84116852386154,4.253382890946566,-173.9073532479104,2
1767367888.665132,1,left_wrist,0.3343,-0.1523,-0.9209,0.28,-0.84,-0.7,0.028461818490073957,0.8232281649808809,-0.5355553974696307,0.18618735056817182,-170.67425792295276,-19.696339113890616,-67.71483795625014,2
1767367888.665132,2,right_wrist,-0.0678,-0.0342,-0.9658,0.98,-2.45,-0.63,0.0346377209787548,-0.052679942043868236,0.9978967447253314,-0.015071126641341193,-178.0627195921036,3.8728110867984595,-173.89070539998716,2
1767367888.75113,1,left_wrist,0.3343,-0.1542,-0.9204,0.42,-0.98,-0.56,0.02435654196640386,0.8226080489817434,-0.535745329998316,0.18894363709552098,-170.0688333653559,-19.691216164856737,-67.87825915727066,2
1767367888.75113,2,right_wrist,-0.0698,-0.0337,-0.9653,0.98,-2.52,-0.63,0.03724941098083456,-0.053199709618873325,0.9977727481069604,-0.015225485645202206,-178.0264792514598,4.169822889190347,-173.82408171788302,2
1767367888.8012748,1,left_wrist,0.3343,-0.1542,-0.9204,0.42,-0.98,-0.56,0.028125349174417374,0.8236120732204794,-0.5350146190031324,0.18609533855584334,-170.66134536961653,-19.67203360398277,-67.63773387352444,2
1767367888.8012748,2,right_wrist,-0.0698,-0.0337,-0.9653,0.98,-2.52,-0.63,0.03445520497672546,-0.05365445653036957,0.9977896030800995,-0.018706847134132842,-177.64332986506372,3.827378036896139,-173.76520718504833,2
1767367888.852963,1,left_wrist,0.3348,-0.1542,-0.9223,0.56,-1.05,-0.63,0.02435734403328711,0.8229788686645558,-0.5350669132506296,0.18925089132602532,-170.0632118958253,-19.72856481071579,-67.79259927411077,2
1767367888.852963,2,right_wrist,-0.0708,-0.0337,-0.9653,1.05,-2.45,-0.7,0.03891727157255951,-0.05377024065995457,0.9976752568976842,-0.015436611249167977,-177.98918742276513,4.358310724496842,-173.75347333187418,2
1767367888.9053829,1,left_wrist,0.3353,-0.1532,-0.9213,0.49,-1.05,-0.77,0.023516099885506465,0.8235332327770676,-0.534523602467924,0.18847951072368532,-170.05050547385,-19.607695879681298,-67.69555710848523,2
1767367888.9053829,2,right_wrist,-0.0708,-0.0337,-0.9653,1.05,-2.45,-0.7,0.03502379599485939,-0.054157916945799446,0.9977931299764282,-0.015783647171832567,-177.97282011153675,3.909653629800251,-173.71713311108186,2
1767367888.961455,1,left_wrist,0.3353,-0.1542,-0.9194,0.42,-1.19,-0.63,0.027952379963443182,0.8243458795118307,-0.5335117873793588,0.18718362138159253,-170.60269357464458,-19.781490071438093,-67.46351064851082,2
1767367888.961455,2,right_wrist,-0.0698,-0.0346,-0.9648,0.98,-2.52,-0.63,0.041113710766110194,-0.054356306574882295,0.997538880216592,-0.01646927985085426,-177.85389706086227,4.602052487275862,-173.67578259863245,2
1767367889.0504892,1,left_wrist,0.3343,-0.1547,-0.9213,0.42,-1.05,-0.7,0.022716257374237575,0.8242186025391935,-0.5341000708237543,0.1867746803646236,-170.10626297212642,-19.399435654802556,-67.58231149314882,2
1767367889.0504892,2,right_wrist,-0.0678,-0.0346,-0.9638,1.19,-2.59,-0.56,0.03349860673581758,-0.054966753500435374,0.9977994653111822,-0.01589737025738401,-177.96656608728304,3.732717187447256,-173.62748921833222,2
1767367889.108133,1,left_wrist,0.3357,-0.1532,-0.9213,0.42,-0.91,-0.84,0.031168697053033108,0.8256953683697786,-0.5319929356697486,0.18503834028166774,-171.10972526971076,-19.799740226227122,-67.14171838156125,2
1767367889.108133,2,right_wrist,-0.0683,-0.0342,-0.9653,1.05,-2.52,-0.56,0.0395905829425072,-0.05511220673454729,0.9975674035563871,-0.015953237066161023,-177.91964149025057,4.42937019574846,-173.59517305996107,2
1767367889.162265,1,left_wrist,0.3338,-0.1532,-0.9194,0.56,-1.05,-0.63,0.026318605919104034,0.8252342320081744,-0.5323582165183309,0.18679004954701303,-170.49958204120745,-19.65239683742098,-67.30123412331208,2
1767367889.162265,2,right_wrist,-0.0703,-0.0351,-0.9658,1.05,-2.52,-0.56,0.03573659417897132,-0.05545660320797473,0.9976822727566124,-0.01665964058200439,-177.86261265313604,3.9829581521580746,-173.56259679305234,2
1767367889.21522,1,left_wrist,0.3357,-0.1532,-0.9223,0.35,-1.05,-0.77,0.03048602032035778,0.8255378989685116,-0.531131804057518,0.1882997255714641,-170.829440045049,-20.07691577218695,-67.13929528136973,2
1767367889.21522,2,right_wrist,-0.0703,-0.0332,-0.9638,1.05,-2.52,-0.56,0.04040989980705698,-0.05551324335156818,0.997547759896682,-0.013556789269027161,-178.1872707749791,4.537780921161891,-173.55775683648997,2
1767367889.3052669,1,left_wrist,0.3357,-0.1532,-0.9223,0.35,-1.05,-0.77,0.025596574370728625,0.8257146949146499,-0.5317688333438076,0.1864456110147308,-170.46809257711806,-19.580120005884986,-67.21234472617674,2
1767367889.3052669,2,right_wrist,-0.0683,-0.0342,-0.9653,0.98,-2.45,-0.63,0.03393450236878622,-0.056198932676891536,0.997746036114323,-0.013891613769364064,-178.18892243524337,3.7931520097251505,-173.49236514048025,2
1767367889.357368,1,left_wrist,0.3348,-0.1523,-0.9199,0.49,-1.12,-0.63,0.024713421334879054,0.826134436089827,-0.5312549884074164,0.1861700233783742,-170.41390971865758,-19.503302453105114,-67.13821075790007,2
1767367889.357368,2,right_wrist,-0.0693,-0.0337,-0.9648,1.05,-2.52,-0.63,0.0394589800697972,-0.056479504370620666,0.9974851864529545,-0.016623997257427067,-177.83753383731346,4.407047432491298,-173.4353125275089,2
1767367889.409773,1,left_wrist,0.3362,-0.1527,-0.9213,0.35,-1.05,-0.7,0.02870400277493388,0.826356376705383,-0.5300605073028364,0.18800818466467714,-170.70227781751842,-19.947151324435115,-66.99421953083976,2
1767367889.409773,2,right_wrist,-0.0693,-0.0337,-0.9648,1.05,-2.52,-0.63,0.036060990849005575,-0.056757838828391374,0.9976247357909879,-0.014934497262371728,-178.0529732383528,4.028655145866818,-173.41908005182756,2
1767367889.468259,1,left_wrist,0.3343,-0.1542,-0.9228,0.35,-1.12,-0.63,0.023962226420548068,0.826581556068814,-0.5307439995456724,0.1857405443571542,-170.3835206312136,-19.42028393626882,-67.05793255829445,2
1767367889.468259,2,right_wrist,-0.0688,-0.0346,-0.9662,1.05,-2.59,-0.56,0.03933913013190624,-0.05712363618710991,0.9973942983451821,-0.019847837608905693,-177.46582942405794,4.3705013546558495,-173.3474586806751,2
1767367890.900308,1,left_wrist,0.3343,-0.1513,-0.9189,0.63,-1.05,-0.63,0.022129220401817994,0.8324429046702861,-0.5210586682286527,0.18720836608519287,-170.3319977916939,-19.556837480900665,-65.75817922662688,3
1767367890.900308,2,right_wrist,-0.0698,-0.0342,-0.9658,1.05,-2.52,-0.63,0.040196635535532495,-0.06480491822374171,0.9969360530499034,-0.01740859543208088,-177.7051463764626,4.467329050345706,-172.4720239435433,3
1767367890.952637,1,left_wrist,0.3323,-0.1532,-0.9199,0.42,-1.12,-0.77,0.02643659483571233,0.8333504634878941,-0.520067570487968,0.18535866201703885,-170.91246784194377,-19.659828375861398,-65.51174130799427,3
1767367890.952637,2,right_wrist,-0.0698,-0.0346,-0.9648,0.98,-2.59,-0.56,0.0371291116139275,-0.06503156431102555,0.9970774846852699,-0.015126607277136439,-177.98935498924934,4.133107507109164,-172.46410072923297,3
1767367891.0110662,1,left_wrist,0.3338,-0.1513,-0.9209,0.42,-0.98,-0.63,0.025990327737868708,0.8337954405943918,-0.5195063871994,0.18499399927324497,-170.90748033856397,-19.60285971587886,-65.4249339580031,3
1767367891.0110662,2,right_wrist,-0.0683,-0.0351,-0.9638,0.98,-2.52,-0.63,0.03478644843533953,-0.06549621979636261,0.9970635552269996,-0.01908965782139205,-177.55160329614304,3.8341150234662438,-172.401417492262,3
1767367891.06236,1,left_wrist,0.3333,-0.1537,-0.9199,0.42,-0.98,-0.7,0.022164976087680446,0.8331867746780008,-0.5195784571296315,0.18800728502772002,-170.31483530573544,-19.653024498814695,-65.57706439283622,3
1767367891.06236,2,right_wrist,-0.0683,-0.0351,-0.9638,0.98,-2.52,-0.63,0.03818024622108179,-0.06557798472607587,0.9970038294418313,-0.015005358912337738,-177.99281492591385,4.2531697763533325,-172.39903472825776,3
1767367891.121653,1,left_wrist,0.3372,-0.1532,-0.9199,0.28,-0.91,-0.7,0.026667917553428865,0.8336179311149732,-0.5183868845637651,0.188798848008215,-170.7342542386516,-20.024431553939223,-65.39028632126958,3
1767367891.121653,2,right_wrist,-0.0678,-0.0332,-0.9648,0.91,-2.59,-0.63,0.0343662618979576,-0.06592425033606135,0.997121154031279,-0.014911654640567406,-178.03180231046494,3.816920928668606,-172.3692474769542,3
1767367891.2043278,1,left_wrist,0.3372,-0.1532,-0.9199,0.28,-0.91,-0.7,0.021553024370761925,0.8335470569511664,-0.5190150912665016,0.18803751228450982,-170.2657563591058,-19.624168577167673,-65.50505946317311,3
1767367891.2043278,2,right_wrist,-0.0693,-0.0337,-0.9667,1.05,-2.45,-0.56,0.036704341992241735,-0.066382216676807,0.9970057769828251,-0.015022424932846574,-177.9990239132074,4.082594676731631,-172.31023091323607,3
1767367891.255517,1,left_wrist,0.3328,-0.1518,-0.9218,0.42,-0.91,-0.7,0.025151385184005025,0.8345922172660386,-0.518284691932023,0.18494382068944923,-170.8573327515854,-19.558947760277626,-65.25994415998039,3
1767367891.255517,2,right_wrist,-0.0688,-0.0346,-0.9653,1.05,-2.52,-0.63,0.037357135685192486,-0.0668405277284688,0.9968555910385143,-0.02038918540874888,-177.37711193583985,4.114719677117033,-172.23372454999912,3
1767367891.315383,1,left_wrist,0.3372,-0.1537,-0.9209,0.49,-1.26,-0.77,0.026639322483333183,0.8351472348246111,-0.5171793525312312,0.1853239325554351,-171.00506834383674,-19.70029797963357,-65.1020774887397,3
1767367891.315383,2,right_wrist,-0.0688,-0.0346,-0.9653,1.05,-2.52,-0.63,0.03778390781271856,-0.06695734167846358,0.9969143227557916,-0.01584057417251797,-177.89437516123326,4.19857266220263,-172.23785470754916,3
1767367891.399266,1,left_wrist,0.3353,-0.1542,-0.9199,0.56,-0.98,-0.7,0.022684582939603924,0.8345473928457122,-0.5172654263064335,0.18828844239438675,-170.40258611265614,-19.73919110249878,-65.25611986834323,3
1767367891.399266,2,right_wrist,-0.0703,-0.0346,-0.9653,0.98,-2.45,-0.63,0.03922795813585573,-0.06753460434130457,0.9967995181144463,-0.017057702182965803,-177.7409058680547,4.35298470935518,-172.1622347411925,3
1767367891.4537401,1,left_wrist,0.3348,-0.1532,-0.9209,0.42,-1.12,-0.49,0.02614977237277838,0.8355685920733573,-0.5166248518020157,0.18504075185197638,-170.98967629974777,-19.64842935921203,-65.01969000533279,3
1767367891.4537401,2,right_wrist,-0.0703,-0.0337,-0.9662,1.05,-2.52,-0.56,0.03710820671767785,-0.06769837123254911,0.9969218137280883,-0.01366780303329836,-178.1455791045595,4.136760851722961,-172.16333364885574,3
1767367891.505357,1,left_wrist,0.3333,-0.1537,-0.9189,0.49,-0.98,-0.7,0.02635222401554997,0.8358503758118476,-0.5157734370220092,0.18611144835052626,-170.95566397268024,-19.773712324273184,-64.93404189708147,3
1767367891.505357,2,right_wrist,-0.0703,-0.0361,-0.9662,0.98,-2.52,-0.56,0.03895424175523927,-0.06810683449026135,0.9967367920341277,-0.01896822475896436,-177.52171361810667,4.305274251057197,-172.0889636119727,3
1767367891.5588238,1,left_wrist,0.3343,-0.1542,-0.9209,0.49,-1.05,-0.63,0.02150909419815733,0.8353862259609729,-0.5161445679871084,0.1877817810088567,-170.34867623332204,-19.62996636487618,-65.09332196963761,3
1767367891.5588238,2,right_wrist,-0.0712,-0.0337,-0.9662,1.05,-2.52,-0.56,0.03878544020511288,-0.0681993413759912,0.9968114683085825,-0.014540842907625423,-178.0299580430314,4.320769138474121,-172.09780700769574,3
1767367891.614021,1,left_wrist,0.3348,-0.1557,-0.9209,0.56,-0.98,-0.77,0.025430358324846532,0.835605471362186,-0.5148957740863621,0.18973437994484527,-170.63178892672158,-20.076478410667633,-64.94422575127709,3
1767367891.614021,2,right_wrist,-0.0698,-0.0351,-0.9648,1.05,-2.59,-0.56,0.03587021526938457,-0.0686197255861688,0.9968385814010886,-0.017818629219780134,-177.67635011950537,3.9604700538583697,-172.04389301577825,3
1767367891.6988852,1,left_wrist,0.3362,-0.1542,-0.9204,0.35,-1.12,-0.77,0.020964160558018755,0.8359575987702642,-0.5155199192571853,0.18701499907605473,-170.36331732671297,-19.52925372921542,-64.98498857017393,3
1767367891.6988852,2,right_wrist,-0.0664,-0.0346,-0.9648,1.12,-2.52,-0.63,0.03611218014242264,-0.0690787251126252,0.9968276054548664,-0.016086179947173738,-177.8709718115235,4.000938314122898,-171.99727101916721,3
1767367891.7552042,1,left_wrist,0.3367,-0.1532,-0.9213,0.35,-0.84,-0.7,0.025082300388432278,0.8361856603128814,-0.5143138739310981,0.1888005793855552,-170.67697294275254,-19.971033290021694,-64.83395637126439,3
1767367891.7552042,2,right_wrist,-0.0673,-0.0342,-0.9643,1.05,-2.45,-0.63,0.03629037783961913,-0.06919817280098518,0.9968754645135203,-0.011572796041404886,-178.38597552159698,4.057200377981034,-172.0011854564035,3
1767367891.809185,1,left_wrist,0.3338,-0.1532,-0.9209,0.42,-1.12,-0.63,0.024250976877022636,0.836622916745488,-0.5138174037672406,0.1883232882111899,-170.63978433001444,-19.87884229532344,-64.75667415131865,3
1767367891.809185,2,right_wrist,-0.0698,-0.0342,-0.9653,1.05,-2.45,-0.63,0.038629656926249936,-0.06962059906131639,0.9966837534965717,-0.016799324631928087,-177.7663394941237,4.2819136233565525,-171.92498900197612,3
1767367891.862946,1,left_wrist,0.3343,-0.1532,-0.9228,0.49,-0.98,-0.63,0.02031226783835988,0.8370958367523413,-0.5144285049604611,0.18498995959593276,-170.4658447705925,-19.305626252337635,-64.77000631799643,3
1767367891.862946,2,right_wrist,-0.0678,-0.0356,-0.9672,0.98,-2.59,-0.63,0.0351160826901824,-0.06992218319860523,0.9968149492027543,-0.015417719648093645,-177.9523654162572,3.890644932353035,-171.90549506681262,3
1767367893.198947,1,left_wrist,0.3333,-0.1532,-0.9209,0.56,-0.91,-0.7,0.01825063836557119,0.8421571951439899,-0.5051592095967264,0.1877560806633635,-170.28885597342648,-19.553032945965917,-63.59119918390329,4
1767367893.198947,2,right_wrist,-0.0683,-0.0346,-0.9638,1.05,-2.45,-0.56,0.039941287500774365,-0.07696291087169785,0.9961371303141825,-0.013864397295270175,-178.05894089248105,4.441426752241773,-171.08877583573639,4
1767367893.252488,1,left_wrist,0.3353,-0.1518,-0.9218,0.42,-1.05,-0.63,0.022818067786988205,0.8428275590335716,-0.5040680227879535,0.18718031391848594,-170.81243214149796,-19.787044957685623,-63.370324197370415,4
1767367893.252488,2,right_wrist,-0.0683,-0.0346,-0.9638,1.05,-2.45,-0.56,0.03637830086425372,-0.07734975446185251,0.9962112695263676,-0.01602314512148381,-177.8425946371664,4.014112079226694,-171.04486327941012,4
1767367893.30656,1,left_wrist,0.3362,-0.1542,-0.9204,0.49,-0.98,-0.7,0.018634039718139463,0.8422445045169524,-0.5042212607101657,0.18983647547989027,-170.2066035328358,-19.789702484242316,-63.52721533950962,4
1767367893.30656,2,right_wrist,-0.0693,-0.0346,-0.9667,0.98,-2.52,-0.63,0.04025378427933152,-0.07742661756495646,0.9961103377358703,-0.012204376238598486,-178.2441066169552,4.491116945213998,-171.0419328407881,4
1767367893.404546,1,left_wrist,0.3348,-0.1537,-0.9209,0.35,-1.12,-0.7,0.018694774151432416,0.8427053851799944,-0.5035043388244695,0.1896879542643607,-170.2402039865952,-19.787212416228304,-63.421655747412274,4
1767367893.404546,2,right_wrist,-0.0673,-0.0356,-0.9662,1.05,-2.45,-0.56,0.03523890966119606,-0.07828207994885458,0.996123897276905,-0.019165502306001544,-177.48972219639248,3.8534103957435764,-170.92863962073127,4
1767367893.4572082,1,left_wrist,0.3353,-0.1523,-0.9189,0.56,-1.05,-0.63,0.022482306843522065,0.8437043569044458,-0.502700862636455,0.18694744374827144,-170.8276065579197,-19.75875296509151,-63.17591063751504,4
1767367893.4572082,2,right_wrist,-0.0669,-0.0337,-0.9653,1.05,-2.45,-0.56,0.036984781296349974,-0.07834796178665049,0.9961328829041683,-0.014594602884942168,-177.9964790038273,4.094207175542505,-170.93402645810187,4
1767367893.512865,1,left_wrist,0.3357,-0.1562,-0.9213,0.35,-1.05,-0.77,0.022494411535410964,0.8439233425866003,-0.501867112524414,0.18819350321821043,-170.76385601921027,-19.890289877773597,-63.10135721573021,4
1767367893.512865,2,right_wrist,-0.0669,-0.0337,-0.9653,1.05,-2.45,-0.56,0.03310527875022316,-0.07868496838769132,0.9962334310748779,-0.015220613570893795,-177.9593600566814,3.6445151814380496,-170.9030965920456,4
1767367893.5678542,1,left_wrist,0.3348,-0.1513,-0.9218,0.42,-0.77,-0.7,0.018211244655436113,0.8442734550938301,-0.5024869688442132,0.18541178423655008,-170.50853430907972,-19.35245536596635,-63.14170692378188,4
1767367893.5678542,2,right_wrist,-0.0673,-0.0337,-0.9653,0.98,-2.52,-0.63,0.039118460702369094,-0.07884157167264609,0.9960126483639417,-0.01457933151798653,-177.9763597063157,4.337194403046975,-170.87148993129964,4
1767367893.618332,1,left_wrist,0.3348,-0.1513,-0.9218,0.42,-0.77,-0.7,0.02191143623243604,0.8443452557141962,-0.5012993552574634,0.18788276805926632,-170.74018036475022,-19.830834895503187,-63.01845953606436,4
1767367893.618332,2,right_wrist,-0.0673,-0.0337,-0.9653,0.98,-2.52,-0.63,0.03526194199313691,-0.0792040397240137,0.9961218188294352,-0.014987914805185059,-177.96400782181496,3.892010669583049,-170.83849405903243,4
1767367893.7027829,1,left_wrist,0.3372,-0.1523,-0.9213,0.56,-0.98,-0.7,0.018082517589904475,0.8437191430179152,-0.5013479414769892,0.1909483486168732,-170.14422687611037,-19.897883756824,-63.17149710757995,4
1767367893.7027829,2,right_wrist,-0.0683,-0.0342,-0.9653,0.98,-2.52,-0.56,0.03726950329098722,-0.07968294030130445,0.9960038190902214,-0.015427427104844918,-177.89299511992195,4.116376267515578,-170.7761270119074,4
1767367893.7558908,1,left_wrist,0.3343,-0.1518,-0.9184,0.49,-1.05,-0.7,0.020762408813243455,0.8448514436014333,-0.5008214848756368,0.187010162589653,-170.69555339844635,-19.681310097533192,-62.93568271515496,4
1767367893.7558908,2,right_wrist,-0.0678,-0.0322,-0.9658,0.98,-2.52,-0.63,0.03573431278693851,-0.07985425559169544,0.9960987558047439,-0.011559646957520325,-178.34933732214859,3.976288664744585,-170.77583748084228,4
1767367893.80745,1,left_wrist,0.3333,-0.1527,-0.9209,0.63,-1.19,-0.77,0.020100665620459358,0.8452898664022428,-0.5001933736098971,0.18678221006306517,-170.65948916953096,-19.62597755197607,-62.848203338037536,4
1767367893.80745,2,right_wrist,-0.0678,-0.0322,-0.9658,0.98,-2.52,-0.63,0.03796871710846123,-0.08027734203819285,0.9959078770472531,-0.016775735800665065,-177.7295915129464,4.182481880334449,-170.70010831510746,4
1767367893.86188,1,left_wrist,0.3353,-0.1527,-0.9218,0.49,-1.05,-0.77,0.02007812947534223,0.8447648868084121,-0.49945206865644926,0.1910936572655823,-170.3811533168007,-20.054544028182896,-62.89054302932502,4
1767367893.86188,2,right_wrist,-0.0698,-0.0346,-0.9638,1.05,-2.52,-0.63,0.03771764484434496,-0.0804034280509212,0.995971841284059,-0.012359587141056384,-178.236886996966,4.194583678017237,-170.70462798589926,4
1767367893.912951,1,left_wrist,0.3348,-0.1513,-0.9199,0.42,-0.91,-0.77,0.020503135660113227,0.845870850104866,-0.49937986435862036,0.18628439935791824,-170.75317873702537,-19.61041408886657,-62.714408117634804,4
1767367893.912951,2,right_wrist,-0.0698,-0.0346,-0.9638,1.05,-2.52,-0.63,0.03832576150395268,-0.08086234643717778,0.9958307677216075,-0.0177059027674329,-177.61725602617872,4.213228919338544,-170.62777433103213,4
1767367893.968637,1,left_wrist,0.3328,-0.1542,-0.9223,0.35,-1.05,-0.63,0.0158668621813856,0.8453584241830532,-0.49969968254422253,0.1881956551370548,-170.14916891281737,-19.51434751505969,-62.873515762355474,4
1767367893.968637,2,right_wrist,-0.0688,-0.0346,-0.9653,0.98,-2.59,-0.56,0.037168993018802964,-0.08099397951625902,0.9959280000612047,-0.013633045667669997,-178.0938816484486,4.118924646775051,-170.63273966248227,4
1767367894.054844,1,left_wrist,0.3328,-0.1542,-0.9223,0.35,-1.05,-0.63,0.020167379786124973,0.8462427255518831,-0.49877883383336696,0.18624231839973704,-170.73651778787382,-19.59263907451324,-62.63339093161655,4
1767367894.054844,2,right_wrist,-0.0688,-0.0351,-0.9648,0.98,-2.52,-0.56,0.037901096314141985,-0.08154087015185592,0.9958466863617541,-0.014281829552913487,-178.0103458447628,4.19540743261241,-170.56513496671846,4
1767367894.1101089,1,left_wrist,0.3353,-0.1547,-0.9189,0.42,-0.98,-0.7,0.01948004814189048,0.8467075783234256,-0.4982216697468926,0.18569322100897467,-170.71762074203633,-19.503623868510427,-62.54571537572799,4
1767367894.1101089,2,right_wrist,-0.0688,-0.0351,-0.9648,0.98,-2.52,-0.56,0.035369935993664024,-0.08197074658205245,0.9958437866363004,-0.018025452850335064,-177.60462704551057,3.869876373583387,-170.50792117999393,4
1767367894.162515,1,left_wrist,0.3353,-0.1537,-0.9223,0.49,-1.12,-0.7,0.018723224643378996,0.8461195549940602,-0.4976318415434388,0.18998339347872664,-170.36454204635893,-19.88490876053473,-62.615365713506115,4
1767367894.162515,2,right_wrist,-0.0703,-0.0351,-0.9648,0.98,-2.52,-0.7,0.039616693617145766,-0.08208139464296538,0.9957327443281877,-0.014472875076048438,-177.96960309473053,4.388526738255083,-170.4973607984681,4
1767367895.5557618,1,left_wrist,0.3338,-0.1532,-0.9213,0.42,-0.91,-0.77,0.019700880924666788,0.8523298394530622,-0.4875236951977522,0.18832516212508302,-170.81850589231036,-19.89147264295419,-61.15153216602534,5
1767367895.5557618,2,right_wrist,-0.0673,-0.0342,-0.9677,0.91,-2.45,-0.56,0.033702147379664225,-0.08966235285381521,0.9952972556328539,-0.014429160489340107,-178.00348095979044,3.6981337918551693,-169.64023361295412,5
1767367895.613767,1,left_wrist,0.3328,-0.1537,-0.9228,0.42,-0.84,-0.77,0.014830596380930294,0.8524702362637802,-0.4881356822313375,0.1865425030064399,-170.4276028691037,-19.421955704868775,-61.23387717164818,5
1767367895.613767,2,right_wrist,-0.0673,-0.0342,-0.9677,0.91,-2.45,-0.56,0.03978309827734975,-0.08982047787197013,0.9950534083420915,-0.014775025992946961,-177.89917896083062,4.388471843127626,-169.6036196762615,5
1767367895.666314,1,left_wrist,0.3333,-0.1532,-0.9204,0.42,-1.12,-0.63,0.01853127797054607,0.852574563119637,-0.4869628842657128,0.18878653396298284,-170.68230369483842,-19.874271515804725,-61.103126061049345,5
1767367895.666314,2,right_wrist,-0.0688,-0.0346,-0.9658,1.05,-2.52,-0.63,0.035943781864839285,-0.09017041223019401,0.9951669652009794,-0.014834172580981077,-177.93158720141938,3.948794687489773,-169.57401287719367,5
1767367895.754624,1,left_wrist,0.3353,-0.1532,-0.9213,0.28,-0.84,-0.7,0.013627629390697971,0.8526474747950755,-0.48760950908350376,0.18719919362570753,-170.27415106759074,-19.421786388112917,-61.19675846253134,5
1767367895.754624,2,right_wrist,-0.0698,-0.0351,-0.9667,0.98,-2.59,-0.63,0.03827113478072863,-0.09070321465761498,0.9950278951929398,-0.015090887358872231,-177.8753059304545,4.21068074400601,-169.50491318228526,5
1767367895.812841,1,left_wrist,0.3353,-0.1532,-0.9204,0.42,-0.98,-0.84,0.012714218738400328,0.8529636401243359,-0.4869021592448444,0.18766370077993905,-170.16705344423121,-19.421909411144654,-61.12527273883021,5
1767367895.812841,2,right_wrist,-0.0673,-0.0361,-0.9658,1.05,-2.59,-0.56,0.03451506518779095,-0.09106571149676847,0.9951137846378318,-0.01625737028060356,-177.78061462729187,3.768875291349019,-169.46949560224786,5
1767367895.900716,1,left_wrist,0.3353,-0.1532,-0.9209,0.35,-0.98,-0.63,0.01722179566896032,0.8534077862808654,-0.48573365588285355,0.18831191043533826,-170.6099169227502,-19.763843665370594,-60.93375970130591,5
1767367895.900716,2,right_wrist,-0.0688,-0.0342,-0.9643,0.98,-2.52,-0.63,0.03596330029099892,-0.09157837062259173,0.9950266380011621,-0.015557401273838976,-177.84310958403617,3.940439442195729,-169.40886155046883,5
1767367895.966298,1,left_wrist,0.3343,-0.1542,-0.9213,0.42,-1.05,-0.7,0.016539845874722087,0.8538789318963853,-0.48521442742264764,0.18757441878582612,-170.60164298180894,-19.656624887386034,-60.84628830162265,5
1767367895.966298,2,right_wrist,-0.0673,-0.0346,-0.9667,0.98,-2.52,-0.7,0.0383788922534463,-0.0916924881139064,0.994985974477914,-0.011066112466235282,-178.33016431486917,4.263505778200923,-169.40744733152803,5
1767367896.057046,1,left_wrist,0.3353,-0.1537,-0.9233,0.42,-1.05,-0.63,0.01521285743788751,0.8532238465651233,-0.48476083637481976,0.19179303464509498,-170.19728950910127,-20.000843452107656,-60.9389721211289,5
1767367896.057046,2,right_wrist,-0.0693,-0.0337,-0.9648,0.98,-2.52,-0.63,0.0391768576923769,-0.09226778270321762,0.9949009191384905,-0.011135133307234882,-178.31117765020667,4.352898869665332,-169.33882560763726,5
1767367896.112232,1,left_wrist,0.3343,-0.1537,-0.9233,0.56,-1.05,-0.77,0.012163750097302632,0.8540448431757864,-0.4846937289961229,0.18849784640745817,-170.1073745946915,-19.497310709949375,-60.855917997853794,5
1767367896.112232,2,right_wrist,-0.0683,-0.0346,-0.9677,1.05,-2.52,-0.63,0.03735531769212891,-0.09273103427293478,0.994869060399049,-0.015527014635966174,-177.8268461507558,4.0971383801107,-169.27203249675506,5
1767367896.206329,1,left_wrist,0.3343,-0.1537,-0.9233,0.56,-1.05,-0.77,0.016619871210818628,0.8548468973703546,-0.4836011045852365,0.18732467424542254,-170.66441245814784,-19.65420201690882,-60.61568868007085,5
1767367896.206329,2,right_wrist,-0.0664,-0.0332,-0.9658,1.05,-2.52,-0.56,0.03639190733812062,-0.09323729449274736,0.9948698355677649,-0.01471211314987378,-177.92846281379428,3.9948602537121682,-169.21972089548356,5
1767367896.256574,1,left_wrist,0.3357,-0.1542,-0.9238,0.63,-0.84,-0.63,0.016291269687190975,0.8552458247460827,-0.4829489864384392,0.1872149841344339,-170.6535188645872,-19.63125236780886,-60.5265182482869,5
1767367896.256574,2,right_wrist,-0.0664,-0.0332,-0.9658,1.05,-2.52,-0.56,0.034491123336499944,-0.09339584637371609,0.9949693134758182,-0.011119511346400338,-178.3592088730846,3.8163244244811243,-169.22027005236893,5
1767367896.308425,1,left_wrist,0.3357,-0.1542,-0.9238,0.63,-0.84,-0.63,0.016291269687190975,0.8552458247460827,-0.4829489864384392,0.1872149841344339,-170.6535188645872,-19.63125236780886,-60.5265182482869,5
1767367896.308425,2,right_wrist,-0.0698,-0.0346,-0.9638,1.05,-2.52,-0.63,0.0390498828113037,-0.0937358603337148,0.9947163185956216,-0.01510432585373072,-177.85234193454957,4.29291842635145,-169.15289606395757,5
1767367896.366553,1,left_wrist,0.3353,-0.1547,-0.9228,0.42,-0.98,-0.77,0.015712509252726485,0.8557181958433854,-0.4823480711719185,0.18665429165238687,-170.64547254157353,-19.54850445832295,-60.432812478359246,5
1767367896.366553,2,right_wrist,-0.0688,-0.0337,-0.9648,1.05,-2.52,-0.63,0.03581372990090235,-0.09399942386707064,0.9948419100657121,-0.013078954088514463,-178.118428138701,3.945018471055142,-169.13985286001932,5
1767367896.448107,1,left_wrist,0.3353,-0.1547,-0.9228,0.42,-0.98,-0.77,0.01449132823129464,0.8550943206345538,-0.48182679011685736,0.1909100535600725,-170.25274138463897,-19.904708780015437,-60.514957775102495,5
1767367896.448107,2,right_wrist,-0.0693,-0.0337,-0.9638,1.05,-2.52,-0.56,0.03794110354765459,-0.0944943616691155,0.9947027400244083,-0.014062263767503561,-177.9805044126703,4.176126009226869,-169.07301100708062,5
1767367896.501384,1,left_wrist,0.3333,-0.1537,-0.9204,0.42,-0.98,-0.7,0.015318166905184283,0.8562004956665301,-0.48170193975568937,0.1861432411307461,-170.65388231447378,-19.48192396137475,-60.33247209677494,5
1767367896.501384,2,right_wrist,-0.0698,-0.0356,-0.9643,0.98,-2.45,-0.63,0.037593486725340686,-0.0949652211153242,0.994585601419326,-0.01917858137889083,-177.3976098859438,4.079311697602105,-168.99891888948997,5
1767367896.556077,1,left_wrist,0.3353,-0.1537,-0.9204,0.42,-0.91,-0.63,0.017128649970073732,0.8565993830951926,-0.4805745723606817,0.18706198606741622,-170.8051024119413,-19.690402568806494,-60.18615686496878,5
1767367896.556077,2,right_wrist,-0.0688,-0.0356,-0.9653,0.98,-2.45,-0.56,0.038157142713701096,-0.09504690590880695,0.994634830037639,-0.01454898666868532,-177.92013645412615,4.194311134755514,-169.00665645039984,5
1767367897.9595,1,left_wrist,0.3348,-0.1532,-0.9209,0.42,-0.98,-0.63,0.016051814991534335,0.8617774630422405,-0.47010533048479874,0.18995505172996988,-170.7555304983328,-20.028654345694147,-58.861392726591596,6
1767367897.9595,2,right_wrist,-0.0683,-0.0332,-0.9667,0.98,-2.52,-0.56,0.03675401798149689,-0.10229632011656412,0.9939810314762235,-0.013649692974125865,-178.00911198395448,4.02966566674079,-168.17804956879647,6
1767367898.0171452,1,left_wrist,0.3343,-0.1537,-0.9218,0.42,-0.98,-0.7,0.01152784750245176,0.8620711009189563,-0.47073854489374706,0.18736527971760564,-170.44150543367627,-19.505514919819934,-58.92059834141487,6
1767367898.0171452,2,right_wrist,-0.0693,-0.0337,-0.9643,0.98,-2.52,-0.63,0.04286798451156048,-0.10248599622536313,0.9937099180130248,-0.01412640521007517,-177.88029954492575,4.72084911692353,-168.13588401801292,6
1767367898.098426,1,left_wrist,0.3343,-0.1537,-0.9218,0.42,-0.98,-0.7,0.015214831084303862,0.8621517063404792,-0.4695344677554162,0.1897375233287134,-170.69688834149306,-19.965413318877157,-58.78709332674562,6
1767367898.098426,2,right_wrist,-0.0669,-0.0346,-0.9672,1.05,-2.52,-0.63,0.03520269300832092,-0.10320006239685328,0.9939291089111439,-0.0146780102652536,-177.90677218006053,3.838733120548722,-168.07423865462755,6
1767367898.153536,1,left_wrist,0.3333,-0.1542,-0.9218,0.49,-0.98,-0.63,0.010791467726550256,0.8624738316954744,-0.47017906386612734,0.18696010742082206,-170.4047399933634,-19.429349200466163,-58.8405826643173,6
1767367898.153536,2,right_wrist,-0.0683,-0.0342,-0.9662,0.98,-2.52,-0.63,0.04089259094540611,-0.10332132680463979,0.9937224773314021,-0.012966783696880138,-178.03281549538818,4.50765470364863,-168.0506822539809,6
1767367898.2128189,1,left_wrist,0.3343,-0.1532,-0.9233,0.42,-1.05,-0.77,0.01040157463098537,0.8630032140257383,-0.46955133795662174,0.18611502048353884,-170.43324976535627,-19.329717529559964,-58.733252432668216,6
1767367898.2128189,2,right_wrist,-0.0693,-0.0337,-0.9638,1.05,-2.52,-0.49,0.037140023230601976,-0.10364994500476135,0.9938176537306235,-0.014275107996044317,-177.92751834436726,4.063475768736855,-168.01822640645796,6
1767367898.2636092,1,left_wrist,0.3348,-0.1532,-0.9218,0.49,-0.91,-0.63,0.013613997898685575,0.8629418236149308,-0.4684093567837311,0.18904693225441063,-170.60288479436198,-19.81759603226545,-58.631807360569496,6
1767367898.2636092,2,right_wrist,-0.0693,-0.0337,-0.9638,1.05,-2.52,-0.49,0.04060463530841632,-0.10366071160594156,0.9937311526659149,-0.010203758233723086,-178.35040878655553,4.507220287186409,-168.02457800082095,6
1767367898.3242261,1,left_wrist,0.3353,-0.1542,-0.9223,0.49,-0.91,-0.63,0.008605750047322917,0.8629931292623763,-0.4690597268558355,0.18748805976377078,-170.17175724441108,-19.3704749475295,-58.73188443655302,6
1767367898.3242261,2,right_wrist,-0.0683,-0.0342,-0.9662,1.05,-2.52,-0.63,0.038208949197367136,-0.10411498187547932,0.9937312518117206,-0.014083533754430546,-177.93444515661426,4.186674168379794,-167.96217468304357,6
1767367898.398863,1,left_wrist,0.3353,-0.1542,-0.9223,0.49,-0.91,-0.63,0.012912449933632107,0.8633148575891524,-0.46785893452138605,0.1887557752521665,-170.56216088314451,-19.75468895760857,-58.55639740450984,6
1767367898.398863,2,right_wrist,-0.0688,-0.0337,-0.9662,1.05,-2.52,-0.56,0.04049298494960663,-0.10465286449543017,0.9935763287953473,-0.014634718320902452,-177.8411660459518,4.439283300171508,-167.89078792109584,6
1767367898.452279,1,left_wrist,0.3348,-0.1532,-0.9204,0.42,-0.98,-0.63,0.012606065204432113,0.8635264203274685,-0.4675924803221217,0.18846877954371044,-170.5551901990883,-19.71151988954039,-58.51484619962268,6
1767367898.452279,2,right_wrist,-0.0688,-0.0337,-0.9662,1.05,-2.52,-0.56,0.03688074891167652,-0.10492372941429347,0.993704599316213,-0.013490391518207074,-178.0150857514064,4.040765511239952,-167.87509326698805,6
1767367898.513397,1,left_wrist,0.3323,-0.1532,-0.9209,0.49,-0.98,-0.7,0.012033796445467645,0.8639891634123936,-0.4669831724988159,0.18789526298446826,-170.5470666506272,-19.62837698102031,-58.42096227586342,6
1767367898.513397,2,right_wrist,-0.0688,-0.0351,-0.9638,0.98,-2.52,-0.56,0.04032672909702543,-0.1052798408475263,0.9934573993779754,-0.018229252661710573,-177.42989057123646,4.375198517427796,-167.80333002014373,6
1767367898.603783,1,left_wrist,0.3348,-0.1542,-0.9189,0.35,-1.12,-0.63,0.011985701717524902,0.8634229506769505,-0.46630348386203085,0.19214112557383337,-170.28606548536757,-20.058296062127727,-58.46567507202573,6
1767367898.603783,2,right_wrist,-0.0703,-0.0351,-0.9667,0.98,-2.52,-0.63,0.0351154048931557,-0.10579659534888317,0.9936654607010729,-0.014245734852900354,-177.94716226121994,3.8285810851181967,-167.77648953243698,6
1767367898.653905,1,left_wrist,0.3348,-0.1542,-0.9189,0.35,-1.12,-0.63,0.011756924754957536,0.8644595159371511,-0.46640116277942234,0.18719368414563425,-170.5767903646768,-19.54880028038638,-58.32321099063385,6
1767367898.653905,2,right_wrist,-0.0654,-0.0337,-0.9633,1.05,-2.45,-0.63,0.03950115729199985,-0.1058826073140758,0.99353473011064,-0.01082922457721221,-178.2825581587675,4.370076322002781,-167.76817941384684,6
1767367898.704789,1,left_wrist,0.3348,-0.1518,-0.9223,0.42,-1.05,-0.77,0.015346403098399396,0.8645259644505582,-0.46517858226958736,0.18965292325833114,-170.8196815790516,-20.010807544052494,-58.19003791567468,6
1767367898.704789,2,right_wrist,-0.0683,-0.0351,-0.9658,1.05,-2.45,-0.63,0.037679302548123614,-0.10634617175351847,0.9934983123864416,-0.015227120481249874,-177.80108448033124,4.1076118211400345,-167.70153984204666,6
1767367898.7567449,1,left_wrist,0.3338,-0.1537,-0.9213,0.49,-1.12,-0.7,0.010488333799275166,0.8647181485569482,-0.46581347844678767,0.18753752079960587,-170.4375685771814,-19.518147578989268,-58.270046583662044,6
1767367898.7567449,2,right_wrist,-0.0693,-0.0332,-0.9658,0.98,-2.45,-0.63,0.03811815647380399,-0.10645348261314065,0.9935302104671272,-0.010601088421399453,-178.3233013504599,4.214238401805247,-167.70686283422094,6
1767367898.81296,1,left_wrist,0.3328,-0.1508,-0.9228,0.56,-1.05,-0.77,0.010015584152694117,0.8651089193475225,-0.4650547980473898,0.18764402615735837,-170.39953810500785,-19.510562646757286,-58.176427014962485,6
1767367898.81296,2,right_wrist,-0.0688,-0.0346,-0.9648,0.98,-2.45,-0.56,0.03801815776054826,-0.10688589129508862,0.9934190123993325,-0.01576996278002161,-177.73263126062906,4.138332729092036,-167.6359592271971,6
1767367898.910068,1,left_wrist,0.3343,-0.1527,-0.9228,0.35,-1.05,-0.7,0.01456039092462208,0.8655867506819528,-0.46386062300214437,0.18809809804472674,-170.86848085087007,-19.824391088598023,-57.971952746719104,6
1767367898.910068,2,right_wrist,-0.0688,-0.0337,-0.9667,1.05,-2.59,-0.63,0.038246994010812566,-0.10744757037834696,0.9933324295504558,-0.01681878331853256,-177.60767417711418,4.150105464316116,-167.56608401122935,6
1767367898.960078,1,left_wrist,0.3338,-0.1542,-0.9209,0.35,-1.05,-0.7,0.013993018662096849,0.8658802452705401,-0.4632070685233508,0.1884006580374792,-170.80594902754748,-19.829855557089118,-57.90000232063653,6
1767367898.960078,2,right_wrist,-0.0693,-0.0332,-0.9667,1.05,-2.59,-0.49,0.038270555629997954,-0.10750808429772268,0.9933911638231835,-0.012303333711878153,-178.12258669533432,4.208712396202286,-167.57761008886638,6
1767367900.35137,1,left_wrist,0.3357,-0.1518,-0.9213,0.56,-0.98,-0.63,0.007319506010308921,0.8708348018264201,-0.45432942477569915,0.18755784852329382,-170.37252494834897,-19.470090551204247,-56.75913852478489,7
1767367900.35137,2,right_wrist,-0.0669,-0.0346,-0.9658,1.05,-2.45,-0.63,0.033838683778475244,-0.11512052443474804,0.9926765003950122,-0.013984773774358132,-177.95819246376362,3.6672482526567753,-166.7045628623124,7
1767367900.4033191,1,left_wrist,0.3357,-0.1518,-0.9213,0.56,-0.98,-0.63,0.011503463729691289,0.8711042381499906,-0.4531164877266371,0.18902519712890253,-170.74516777538363,-19.861407017604325,-56.58735683940211,7
1767367900.4033191,2,right_wrist,-0.0664,-0.0351,-0.9648,0.98,-2.45,-0.56,0.039926824309583955,-0.11527887502619054,0.9924247363279338,-0.014483521591057025,-177.8186311870783,4.35347881135773,-166.66564515812232,7
1767367900.453708,1,left_wrist,0.3338,-0.1532,-0.9213,0.56,-0.98,-0.7,0.006552520034271157,0.8712285859137936,-0.45373660660788656,0.187192167015108,-170.32902496362067,-19.39753611949198,-56.67777511738726,7
1767367900.453708,2,right_wrist,-0.0664,-0.0351,-0.9648,0.98,-2.45,-0.56,0.03608424740208967,-0.11559178701112095,0.9925390276294177,-0.014238837643940768,-177.89716989297102,3.9185480672135973,-166.64249186833132,7
1767367900.515491,1,left_wrist,0.3343,-0.1523,-0.9209,0.49,-0.98,-0.7,0.0058246658586791145,0.8716389574445921,-0.4531224872791086,0.1867929673583391,-170.2920455633835,-19.324056265375717,-56.59207324914035,7
1767367900.515491,2,right_wrist,-0.0703,-0.0342,-0.9643,0.98,-2.52,-0.56,0.04182167166945757,-0.11568218839429713,0.9923252651464405,-0.012615356480299223,-178.0042727283767,4.593316978391786,-166.62125188268556,7
1767367900.6053572,1,left_wrist,0.3338,-0.1518,-0.9218,0.42,-1.05,-0.7,0.010202170549289102,0.8720091609587888,-0.45190430522995245,0.18782555160218847,-170.71215918036324,-19.681546223737858,-56.403928671638,7
1767367900.6053572,2,right_wrist,-0.0683,-0.0351,-0.9662,0.98,-2.52,-0.56,0.03457347689451639,-0.11632739068964457,0.9925243082391656,-0.012965740438900782,-178.05992296168952,3.762078784777076,-166.5667330773727,7
1767367900.6635242,1,left_wrist,0.3343,-0.1527,-0.9189,0.42,-1.05,-0.7,0.010010054387536842,0.8724368560518057,-0.45120856341599913,0.18752216752605455,-170.72699870324777,-19.64770049021984,-56.303484806419696,7
1767367900.6635242,2,right_wrist,-0.0688,-0.0342,-0.9662,1.05,-2.52,-0.63,0.04063638285692488,-0.11653886669177872,0.9922545556510863,-0.01408097042701904,-177.84931524116118,4.436909815453143,-166.51943838372497,7
1767367900.754357,1,left_wrist,0.3333,-0.1527,-0.9223,0.21,-0.98,-0.63,0.005113144294380126,0.8720119325239436,-0.4516512897535257,0.1886270334688502,-170.13769010806868,-19.48674426888727,-56.46059011586412,7
1767367900.754357,2,right_wrist,-0.0678,-0.0356,-0.9648,1.05,-2.45,-0.63,0.038418821763828465,-0.1172955058610419,0.9921770957889198,-0.018718147102377573,-177.34764871721325,4.119990145521128,-166.42011527140323,7
1767367900.806922,1,left_wrist,0.3348,-0.1542,-0.9213,0.42,-0.98,-0.7,0.009701992675849069,0.8725526083299784,-0.4504649006535051,0.18878344819897966,-170.6341211376508,-19.766503128310475,-56.24640582480434,7
1767367900.806922,2,right_wrist,-0.0698,-0.0342,-0.9643,1.05,-2.45,-0.56,0.03907584856377763,-0.11737056798077956,0.9922191465566156,-0.014085206329722965,-177.86657684485957,4.2573967883475925,-166.42824379385783,7
1767367900.861998,1,left_wrist,0.3343,-0.1547,-0.9199,0.56,-1.12,-0.63,0.009030628011234134,0.8729084787921108,-0.44984320370489633,0.18865398880246637,-170.58645513335196,-19.723420240412324,-56.167597739322865,7
1767367900.861998,2,right_wrist,-0.0698,-0.0346,-0.9662,1.05,-2.45,-0.56,0.03570840894748604,-0.11761160785139192,0.9923418656070536,-0.012249122113930677,-178.12116709945593,3.8984683616204125,-166.41780641451132,7
1767367900.961422,1,left_wrist,0.3357,-0.1547,-0.9204,0.35,-0.98,-0.63,0.006075584471311764,0.8722124834988183,-0.4497325726430003,0.19222144522936055,-170.05915559099319,-19.92444351164297,-56.30365904363978,7
1767367900.961422,2,right_wrist,-0.0693,-0.0346,-0.9648,1.12,-2.52,-0.63,0.03773415791902439,-0.11814201596806109,0.9921887647066361,-0.013418367227952718,-177.95784274099557,4.112110457435318,-166.34596100896078,7
1767367901.051212,1,left_wrist,0.3353,-0.1552,-0.9223,0.42,-1.05,-0.63,0.006697892792647716,0.8726517270642061,-0.44893115671119616,0.19208049879658232,-170.15175499798804,-19.95320416903262,-56.183150016638,7
1767367901.051212,2,right_wrist,-0.0683,-0.0332,-0.9653,0.98,-2.52,-0.56,0.04004152724858119,-0.11862048514066688,0.992033096595122,-0.0140068504842294,-177.85672278434427,4.365694879664507,-166.28097553767466,7
1767367901.110044,1,left_wrist,0.3323,-0.1542,-0.9218,0.49,-0.98,-0.77,0.004765149659425574,0.8730947317827937,-0.44858871761138724,0.19092156796345924,-170.0296552746185,-19.73439786285963,-56.125912542115316,7
1767367901.110044,2,right_wrist,-0.0688,-0.0351,-0.9667,1.05,-2.52,-0.63,0.03622357352933355,-0.11896473894850487,0.9921402381854291,-0.013892133782794714,-177.92143076489026,3.931993657010521,-166.2535805824038,7
1767367901.205332,1,left_wrist,0.3353,-0.1542,-0.9209,0.42,-0.98,-0.56,0.008804429556833205,0.8740212869070603,-0.44775830159989966,0.18847221387217306,-170.62237308248424,-19.715014814102346,-55.88486471375325,7
1767367901.205332,2,right_wrist,-0.0678,-0.0346,-0.9662,1.05,-2.59,-0.56,0.03839460240452694,-0.11945182795938208,0.9920008983371771,-0.013832317289386501,-177.8959951697714,4.178868535608574,-166.19080007093123,7
1767367901.258923,1,left_wrist,0.3353,-0.1527,-0.9199,0.63,-0.98,-0.77,0.008443475183481637,0.874506738272484,-0.4470020571916195,0.188031468933545,-170.62916778508932,-19.65879342590058,-55.77457452071543,7
1767367901.258923,2,right_wrist,-0.0673,-0.0351,-0.9658,1.05,-2.59,-0.63,0.03458528550771328,-0.11981403468792587,0.9920922424099834,-0.01419287384855121,-177.90671088941414,3.7396329235494647,-166.15924059707024,7
1767367876.799927,1,left_wrist,0.3333,-0.1606,-0.9155,1.4,1.82,-0.98,0.051751228232803814,0.739556012156563,-0.6440747867658799,0.18853748781598925,-169.79125103873685,-20.214237023661006,-83.92925207598877,0
1767367876.799927,2,right_wrist,-0.062,-0.0473,-0.9658,0.63,-2.59,-0.56,0.03677287760641658,0.011818937957569992,0.9989992653581999,-0.022550742601422355,-177.46047174347552,4.2440660189907184,178.73846957597596,0
1767367876.852556,1,left_wrist,0.3655,-0.1459,-0.9106,1.89,-1.26,-0.91,0.055585668300144934,0.7401953064184854,-0.642719719231153,0.1895587094994539,-170.07161181287697,-20.614158178808797,-83.74622454669729,0
1767367876.852556,2,right_wrist,-0.0586,-0.0195,-0.9687,-0.14,-2.38,-0.21,0.03539890234365997,0.011810238535844297,0.9991388713523625,-0.018137026529115963,-177.9657628231559,4.080917707727725,178.71802599403924,0
1767367876.903923,1,left_wrist,0.3396,-0.1967,-0.9043,1.47,-10.85,0.98,0.0411694040115782,0.7397325740960576,-0.6443286275885257,0.1895822213828051,-168.78230130839745,-19.48338794676564,-84.04549970713995,0
1767367876.903923,2,right_wrist,-0.083,-0.0366,-0.9736,2.45,-3.01,-0.77,0.04160738350429797,0.011547180928063654,0.998866647014491,-0.020022730397450506,-177.7547908725797,4.794539154614068,178.76935514627158,0
1767367876.9627872,1,left_wrist,0.3323,-0.1259,-0.9311,-2.03,12.67,-3.57,0.049257688474155084,0.740536277872796,-0.6427877423253342,0.18974619784540558,-169.50690424712332,-20.142266612977693,-83.78487209366418,0
1767367876.9627872,2,right_wrist,-0.062,-0.0508,-0.9623,-0.14,-1.82,-0.77,0.03826900895954773,0.010994583652768529,0.9989468848735268,-0.022797440317572023,-177.4300908423487,4.4137735556952284,178.83788812261568,0
1767367877.0484061,1,left_wrist,0.3416,-0.1654,-0.9179,2.59,-17.99,2.59,0.046332928791908604,0.7422475729056481,-0.6435204508363567,0.18111661873116625,-169.98077825572258,-19.177703226058153,-83.54667542029159,0
1767367877.0484061,2,right_wrist,-0.0849,-0.0249,-0.9653,1.89,-3.15,-0.07,0.03912307106909728,0.010621523403006492,0.9989320000958504,-0.022168169415304098,-177.50152045361727,4.510023293876297,178.8800076742904,0
1767367877.102879,1,left_wrist,0.3528,-0.1547,-0.9213,-1.4,20.23,-3.71,0.056833853720115825,0.7415283585260507,-0.641060271380758,0.1895978244342747,-170.2239261446211,-20.735365771535346,-83.48037707125893,0
1767367877.102879,2,right_wrist,-0.1113,-0.0444,-0.9594,0.7,-3.29,-0.56,0.04549565570281118,0.010449222055347552,0.9986474496654262,-0.02289607711703854,-177.4226868580117,5.241088410432784,178.9190103911302,0
1767367877.164088,1,left_wrist,0.3445,-0.1484,-0.9311,-2.66,49.0,-6.44,0.05998662864456877,0.7417719235746635,-0.6399896746764209,0.19128312546529355,-170.3816617446864,-21.134502432419424,-83.37267455641809,0
1767367877.164088,2,right_wrist,-0.0488,-0.0137,-0.9823,-1.61,-0.91,-0.77,0.04191124792099574,0.010120835833553653,0.9988853824108799,-0.019209601391115674,-177.8416442240037,4.825302612737177,178.9299333057144,0
1767367877.2188318,1,left_wrist,0.2582,-0.1137,-0.974,-4.69,38.78,-8.54,0.07154135545679208,0.7414510917512389,-0.6371896944456119,0.1977913200638708,-170.90181629766994,-22.61121413144379,-83.17293850296379,0
1767367877.2188318,2,right_wrist,-0.0727,-0.0669,-0.9609,1.75,-4.06,0.0,0.042292700728923875,0.00989056587975715,0.9987488000805435,-0.02478585300744169,-177.20000122403562,4.874291729621356,178.98443880066614,0
1767367877.3007889,1,left_wrist,0.4153,-0.1889,-0.8638,13.44,-51.73,7.35,0.051645125554900306,0.7431857357567846,-0.6396317759260568,0.18941735506479898,-169.83045687627302,-20.34134082677934,-83.26372532545676,0
1767367877.3007889,2,right_wrist,-0.0488,-0.0185,-0.9677,-0.98,-1.4,-1.12,0.03585577109681224,0.00894191896000153,0.9991623778140448,-0.0175769316249865,-178.01872834372176,4.126905143760424,179.04589150766296,0
1767367877.353232,1,left_wrist,0.4153,-0.1889,-0.8638,13.44,-51.73,7.35,0.033745683500459665,0.7449486435681991,-0.6413069304435348,0.18066036714254238,-168.9887077775846,-18.206824791868456,-83.21831659878673,0
1767367877.353232,2,right_wrist,-0.0508,-0.0527,-0.9643,0.7,-2.17,-0.63,0.033281406662400724,0.00847276778332861,0.9991798263928563,-0.021453081508329988,-177.56982066707678,3.834330661261969,179.10967705806468,0
1767367877.4049878,1,left_wrist,0.2718,-0.1493,-0.9609,-8.82,35.63,-8.19,0.046930405087127224,0.7449622309918393,-0.6392408726454117,0.18493219896370744,-169.81909986847847,-19.605054420439462,-83.02830609516917,0
1767367877.4049878,2,right_wrist,-0.0508,-0.0527,-0.9643,0.7,-2.17,-0.63,0.030383727336607654,0.007999401843698987,0.9991941666650899,-0.024977109234939024,-177.1615270471264,3.503992408981596,179.16945631948147,0
1767367877.463907,1,left_wrist,0.063,-0.3699,-1.1527,53.34,-108.22,18.34,-0.060110122894752996,0.7491966768324236,-0.6445395451870214,0.1402137198669869,-164.1435455764586,-7.62035965385383,-82.47409268440713,0
1767367877.463907,2,right_wrist,-0.3157,-0.0932,-0.8501,-19.32,16.8,0.77,0.027724688202935253,0.008347917728205591,0.9994293975399345,-0.017393483452620737,-178.03106791120712,3.193494288511288,179.09776598211192,0
1767367877.5566301,1,left_wrist,0.447,-0.1196,-0.7564,10.85,44.38,-1.19,-0.047307859862765436,0.7466663974051772,-0.6438691923964918,0.16026141289739193,-163.6479964659943,-10.27678062571163,-83.02444946873142,0
1767367877.5566301,2,right_wrist,-0.1771,-0.0439,-0.9511,-9.87,4.13,-2.45,0.02805763339262883,0.007487555567792069,0.9995558643675838,-0.006691765715903388,-179.2563987696949,3.221178187331548,179.16253263954485,0
1767367877.609717,1,left_wrist,0.2255,-0.3011,-0.8857,-27.72,-149.45,5.46,-0.039543856233008524,0.7456685902302068,-0.6481438121541038,0.1494129704699866,-165.14000691080028,-9.878818508247646,-83.28653808165782,0
1767367877.609717,2,right_wrist,0.0132,0.0093,-0.9672,7.49,-7.14,1.19,0.026407074035068034,0.008090896415598386,0.9995832797768708,-0.008394678469886944,-179.06156758285886,3.0339675598271554,179.09733793756857,0
1767367877.660529,1,left_wrist,0.2255,-0.3011,-0.8857,-27.72,-149.45,5.46,-0.07334905262124217,0.7524428719162964,-0.6473091203975375,0.09716245999401418,-166.32105412804466,-2.9382337732697112,-81.76178331334093,0
1767367877.660529,2,right_wrist,-0.1498,-0.0717,-0.9662,-0.49,1.05,-2.52,0.03021075793600894,0.0069585895774780205,0.9994623350485666,-0.010673750760192832,-178.79933598813273,3.4706698018106166,179.23856563408097,0
1767367877.7493289,1,left_wrist,0.3011,-0.1898,-0.9438,-13.3,-77.07,3.5,-0.0872130427901719,0.7551756330712202,-0.6458016779438127,0.07102000526413335,-167.08794266201272,0.3082243544202726,-81.03709591753194,0
1767367877.7493289,2,right_wrist,-0.0625,-0.0215,-0.9565,2.66,-5.11,0.98,0.03279313980436845,0.006343970850295257,0.9993868226198559,-0.010504417614043677,-178.81822466059793,3.7658599858418302,179.31145066159354,0
1767367877.804607,1,left_wrist,0.3011,-0.1898,-0.9438,-13.3,-77.07,3.5,-0.10123187986696253,0.7571477673786102,-0.6437779287853898,0.04504823260662353,-167.77765066144102,3.5618147506759956,-80.36537582715104,0
1767367877.804607,2,right_wrist,-0.0664,-0.0464,-0.9672,1.89,-3.57,-0.35,0.034818343450824525,0.006043424064905151,0.9992422575905329,-0.016311671596973533,-178.15152322552257,4.001413102063635,179.37153655929393,0
1767367877.8671072,1,left_wrist,0.3211,-0.1205,-0.9457,-2.8,-40.95,1.68,-0.11495780676573923,0.7587463076066016,-0.6407795002117673,0.02214442289419262,-168.2201727524013,6.5298721161641415,-79.68943504884668,0
1767367877.8671072,2,right_wrist,-0.0664,-0.0464,-0.9672,1.89,-3.57,-0.35,0.035908884630289656,0.005712883977198583,0.9990938519643536,-0.02212215921427676,-177.48345276335996,4.1291820479021295,179.4354999894456,0
1767367877.9514072,1,left_wrist,0.3475,-0.1718,-0.8965,4.2,25.83,-1.26,-0.10599815894629218,0.7590604845760572,-0.6413537626884375,0.03545309775663082,-168.04790214110545,4.711729966434799,-79.89750257052984,0
1767367877.9514072,2,right_wrist,-0.0488,-0.0298,-0.9677,1.89,-3.36,-0.28,0.03030000768941643,0.0054632954004950355,0.9993524998111608,-0.01861835273519959,-177.8824505666254,3.4836789306668057,179.4379555064488,0
1767367878.001836,1,left_wrist,0.3177,-0.142,-0.937,-4.83,-23.59,-0.35,-0.10747878882938551,0.760233586646688,-0.640017982550298,0.029498910121013067,-168.34324799415805,5.3203703165270895,-79.64257920917548,0
1767367878.001836,2,right_wrist,-0.0776,-0.06,-0.9428,-0.14,0.98,-1.12,0.03295136018735026,0.004919123946133211,0.999192248844224,-0.022469088344398903,-177.43944094218296,3.7883229335936552,179.52055414846237,0
1767367878.063995,1,left_wrist,0.3396,-0.1552,-0.9277,11.27,-4.83,-0.21,-0.10506845860682035,0.7608706533648968,-0.6390133139673535,0.04121228489810216,-167.69569276931767,4.103929512753564,-79.60754596537171,0
1767367878.063995,2,right_wrist,-0.0503,-0.0405,-0.9755,1.75,-3.64,-0.14,0.02966480993597344,0.004774581568478602,0.9993027646189286,-0.022162740066934822,-177.47304355733337,3.411107219130279,179.5277513340233,0
1767367878.1152582,1,left_wrist,0.3187,-0.12,-0.9345,-5.88,2.66,-3.71,-0.0985620065034785,0.7626185932291002,-0.6378075104985671,0.04358889407746681,-168.09465695215968,3.3964069812152147,-79.45985127883992,0
1767367878.1152582,2,right_wrist,-0.0717,-0.0595,-0.9453,-0.84,-2.03,-0.77,0.03376920927689996,0.004366283115731943,0.9990922158525483,-0.02559922458613429,-177.07813688918665,3.881931065037648,179.598250441178,0
1767367878.199989,1,left_wrist,0.3416,-0.1283,-0.9126,2.8,-5.04,1.19,-0.09737923821223243,0.7627227965426472,-0.6377120956554324,0.04576573668286747,-168.0402696680473,3.117666328411199,-79.47130097055337,0
1767367878.199989,2,right_wrist,-0.0996,-0.0444,-0.9633,1.61,-2.03,-1.19,0.042793342171952985,0.0036145874634259355,0.9986820877751346,-0.028102529785088655,-176.7881707368979,4.9149588198867145,179.72313348912832,0
1767367878.254721,1,left_wrist,0.326,-0.1801,-0.9233,-3.36,7.07,-3.22,-0.09106300923471644,0.7640231577711708,-0.6367032065470064,0.05084456225838379,-168.22647364487514,2.1930944998443707,-79.3865187988732,0
1767367878.254721,2,right_wrist,-0.0293,-0.0356,-0.9662,1.61,-2.45,-0.28,0.03914326961944859,0.003431173287662729,0.9988581672853792,-0.02717339030489916,-176.89403226770065,4.49566233409299,179.72831445965176,0
1767367878.3053792,1,left_wrist,0.2464,-0.1718,-0.9594,-0.98,-4.9,0.84,-0.08867765019173417,0.7643549879612399,-0.6365215565201554,0.052326234533013376,-168.32936152891577,1.8853045958652674,-79.37942496573152,0
1767367878.3053792,2,right_wrist,-0.1464,-0.0381,-0.9628,-0.35,-1.54,-1.4,0.04465247441888112,0.002965664941587298,0.9986577034248065,-0.026079738304219842,-177.01740001776645,5.125625267862729,179.79323345151994,0
1767367878.36128,1,left_wrist,0.4568,-0.1288,-0.8682,7.56,17.36,-1.75,-0.08074930609147711,0.7647781486494662,-0.6359036309803313,0.06496541402985437,-168.10403716257937,0.19075494758887654,-79.46633924954061,0
1767367878.36128,2,right_wrist,0.0176,0.0117,-0.9721,-1.26,-2.87,0.35,0.041624207313784245,0.003064463068200643,0.9988647078159795,-0.022963665023267656,-177.37613021263644,4.777967490660404,179.7579268342445,0
1767367878.448998,1,left_wrist,0.1923,-0.2411,-0.955,0.49,-49.07,6.16,-0.09239857814318818,0.7645807784752053,-0.6356860103850004,0.052744972690931965,-167.96599454992702,2.109957491713099,-79.25904819772573,0
1767367878.448998,2,right_wrist,-0.0708,-0.001,-0.977,-1.89,0.77,-1.4,0.04333358432352251,0.001978071041343711,0.9987982589377824,-0.022810647677919627,-177.3883313880385,4.97110048264173,179.88644493550393,0
1767367878.508606,1,left_wrist,0.4704,0.0137,-0.9292,-30.03,72.45,-16.24,-0.0577896550964398,0.7684975913311692,-0.6332291332867822,0.07136296405626877,-169.6698397739964,-2.091551061835515,-79.16498276680345,0
1767367878.508606,2,right_wrist,-0.0966,0.0249,-0.9594,1.26,-1.82,0.49,0.045079211735985156,0.0024317147709740513,0.9988100148425134,-0.018452796070868218,-177.8914854357996,5.171711872139583,179.81625081136312,0
1767367878.559576,1,left_wrist,0.4631,-0.1308,-0.8447,12.95,-63.77,6.09,-0.044543746668138255,0.7717458328937514,-0.6286566827736899,0.08494115167499684,-169.86036581500454,-4.306997485755009,-78.7141345141919,0
1767367878.559576,2,right_wrist,-0.0644,-0.0415,-0.9682,3.99,0.14,-2.73,0.04015595588639602,0.0011781658927248768,0.9989622768448049,-0.021458811081285452,-177.54028254734817,4.6046105600774325,179.9637587002827,0
1767367878.6559832,1,left_wrist,0.4631,-0.1308,-0.8447,12.95,-63.77,6.09,-0.06363039010486847,0.7721052181849705,-0.6283978895455303,0.07014839927870815,-169.25164065867818,-1.624752744331511,-78.43548591251447,0
1767367878.6559832,2,right_wrist,-0.1118,-0.059,-0.9536,0.84,-3.57,-0.07,0.05200004663899147,0.0010739175805702288,0.9982848435623634,-0.02687402024708302,-176.9139656282112,5.96261002713232,-179.9625119935267,0
1767367878.7155762,1,left_wrist,0.2103,-0.1557,-1.0092,-4.55,-27.51,1.75,-0.07934534498238167,0.7731810516135545,-0.6268836335683119,0.05396561515979644,-169.02495579947964,0.9185029575707659,-77.98100257925303,0
1767367878.7155762,2,right_wrist,-0.0634,-0.042,-0.9648,2.38,-2.87,-0.7,0.0484321808430957,0.0007271008267999308,0.9984707344111153,-0.02664559452699629,-176.93953724000914,5.552338059053606,-179.93500635617576,0
1767367878.7994099,1,left_wrist,0.3933,-0.1215,-0.8701,17.29,17.85,-4.06,-0.07690178254933587,0.7735346605023202,-0.6253726261203522,0.0681125784391479,-168.21893799726195,-0.526575168135813,-77.96270648521967,0
1767367878.7994099,2,right_wrist,-0.0586,-0.0488,-0.9638,1.82,-1.89,-1.33,0.04014205721540929,-0.0006213183051188609,0.9988219538543748,-0.02725681024272378,-176.86577844139603,4.59751345967668,-179.80287164822482,0
1767367878.8527281,1,left_wrist,0.3933,-0.1215,-0.8701,17.29,17.85,-4.06,-0.07431561618128898,0.7737910029066508,-0.623683151092369,0.082121861010378,-167.43340247051415,-1.9708775398764329,-77.9553376893433,0
1767367878.8527281,2,right_wrist,-0.1093,-0.0268,-0.9667,1.4,-3.22,-0.28,0.04536938280885476,-0.0005243624596690005,0.9986652784327902,-0.024678042878477937,-177.16031883081462,5.197652328059389,-179.81091498073602,0
1767367878.903029,1,left_wrist,0.3338,-0.1566,-0.9438,3.71,-20.72,2.1,-0.07769496815513371,0.7741752382770603,-0.6231739801440197,0.07918574892927867,-167.3458897029703,-1.4768090823864823,-77.82855496827227,0
1767367878.903029,2,right_wrist,-0.0649,-0.0298,-0.9633,2.31,-2.38,-0.98,0.04248540447877287,-0.0008879098014204617,0.9988405660630294,-0.022621352951284427,-177.39618763623787,4.866371155946099,-179.78747306064085,0
1767367878.9593248,1,left_wrist,0.3187,-0.1645,-0.9267,0.77,-12.88,0.56,-0.07236685563934324,0.7752603439633025,-0.6218829387453958,0.0836423802875474,-167.50183796308457,-2.2741976505042887,-77.71945268118256,0
1767367878.9593248,2,right_wrist,-0.0649,-0.0298,-0.9633,2.31,-2.38,-0.98,0.0396520630927093,-0.001249438073524013,0.9990024482618098,-0.020500272288485267,-177.63943217379185,4.5410766682249655,-179.76307437684272,0
1767367879.012151,1,left_wrist,0.326,-0.142,-0.9204,-0.56,13.44,-2.52,-0.06473013505065763,0.7757711988224906,-0.6210346367221999,0.09113197400015285,-167.6418271410059,-3.496973158206377,-77.73594402269616,0
1767367879.012151,2,right_wrist,-0.0664,-0.0366,-0.9658,1.75,-3.29,-0.49,0.036323574868695974,-0.001501901048664483,0.9991426767861875,-0.01980539387465272,-177.7195574369663,4.1590494620382366,-179.74493234556132,0
1767367879.104039,1,left_wrist,0.3611,-0.1527,-0.9096,1.12,-10.99,1.05,-0.06465882251636129,0.7761698760431949,-0.6205839402291097,0.09085776424501256,-167.67028279105864,-3.485140012565485,-77.66448454378815,0
1767367879.104039,2,right_wrist,-0.0561,-0.039,-0.9667,1.68,-2.94,-0.56,0.03823268269089035,-0.0019035117626857534,0.9990704956785316,-0.019818760856328707,-177.71544216555841,4.377003486650639,-179.69435467824098,0
1767367879.1589482,1,left_wrist,0.3279,-0.143,-0.9316,-2.66,-0.7,-1.54,-0.05573037503846499,0.7775041148559386,-0.6188584944952685,0.09693111198787069,-168.03416246186538,-4.689176971054651,-77.52815153792001,0
1767367879.1589482,2,right_wrist,-0.0561,-0.039,-0.9667,1.68,-2.94,-0.56,0.034526251340100275,-0.0022494477407690983,0.9991869550566539,-0.020695574354780855,-177.61513533930872,3.9509961181017834,-179.65975088234674,0
1767367879.249483,1,left_wrist,0.3489,-0.164,-0.9057,-0.63,-1.75,-0.77,-0.05263921608421801,0.7780036797815734,-0.6180880480516754,0.09953166346464788,-168.12500883833928,-5.152139327076875,-77.46723093106101,0
1767367879.249483,2,right_wrist,-0.0742,-0.0464,-0.9628,1.61,-2.38,-0.49,0.03948350450469125,-0.0027879293461321245,0.9989600178703055,-0.02263101894630333,-177.38774281566225,4.517219193781446,-179.57714823932983,0
1767367879.30525,1,left_wrist,0.3235,-0.1425,-0.9282,-1.82,1.96,-1.19,-0.047711649472018974,0.7785185790592397,-0.617316609448497,0.10272596684019715,-168.33715319230154,-5.799162801675661,-77.4172111228686,0
1767367879.30525,2,right_wrist,-0.0717,-0.0215,-0.9667,1.4,-3.01,-0.35,0.03976276467402783,-0.0027768037942504835,0.9990365908437278,-0.018360339362556884,-177.87826151891932,4.551029261205452,-179.59717642517623,0
1767367879.364489,1,left_wrist,0.3294,-0.1571,-0.9248,-3.43,13.93,-3.29,-0.039096008618826145,0.7791633161949488,-0.6155417892924513,0.11173331840062015,-168.45885481721567,-7.2377314491264295,-77.35011259641664,0
1767367879.364489,2,right_wrist,-0.0717,-0.0215,-0.9667,1.4,-3.01,-0.35,0.039336922601787616,-0.0027753360833176655,0.9991198774384695,-0.014295962268525695,-178.3453964179052,4.50380211276867,-179.6166215270834,0
1767367879.421686,1,left_wrist,0.2845,-0.1762,-0.9409,0.77,5.25,-1.05,-0.034522647395083005,0.7792768762305392,-0.6146606785154725,0.1171664938286821,-168.47395460235873,-8.057732768227272,-77.3443193706644,0
1767367879.421686,2,right_wrist,-0.0508,-0.0303,-0.9653,0.91,-2.45,-0.21,0.03544055862704607,-0.002957553152376302,0.9992519847526948,-0.015188503920856702,-178.2441436683793,4.056391261140136,-179.59865081157162,0
1767367879.5018308,1,left_wrist,0.3782,-0.143,-0.8989,1.05,-3.36,-0.84,-0.032253055719620526,0.7797823398566778,-0.6137050751159708,0.11943753020425535,-168.51843683270363,-8.43474005765739,-77.2564590366354,0
1767367879.5018308,2,right_wrist,-0.0576,-0.0366,-0.9628,0.98,-2.59,-0.7,0.03755028456786507,-0.003658735756933076,0.9991218364947558,-0.018224862712239973,-177.89127700985657,4.295548883707015,-179.5012801446479,0
1767367879.555708,1,left_wrist,0.3782,-0.143,-0.8989,1.05,-3.36,-0.84,-0.02997922457004117,0.7802803107278373,-0.6127414255896323,0.12170385429818438,-168.56415723320282,-8.811675885227364,-77.1679721179317,0
1767367879.555708,2,right_wrist,-0.0922,-0.0366,-0.9643,1.12,-2.45,-0.56,0.043583743247741495,-0.0038221564509749884,0.998862359205166,-0.01896933861970887,-177.8007958265283,4.986632060240187,-179.4657424108937,0
1767367879.612822,1,left_wrist,0.2899,-0.1728,-0.9379,1.33,-21.84,1.47,-0.028469636040337275,0.7813034310309164,-0.611134844246159,0.12356630054861945,-168.57911990726848,-9.107538177233872,-76.97760389089866,0
1767367879.612822,2,right_wrist,-0.0922,-0.0366,-0.9643,1.12,-2.45,-0.56,0.04961479961884381,-0.003957209102173664,0.9985766368753785,-0.019168005675138967,-177.77265010187256,5.67794169343677,-179.4354251423095,0
1767367879.667443,1,left_wrist,0.2899,-0.1728,-0.9379,1.33,-21.84,1.47,-0.03139111623951802,0.7821372192241953,-0.6106767220298847,0.11979110691664455,-168.60224275640957,-8.571674967835563,-76.8209586265993,0
1767367879.667443,2,right_wrist,-0.0727,-0.0395,-0.9653,0.91,-2.52,-0.56,0.04575044854810065,-0.00432075848980362,0.9987429574554946,-0.020018302544731314,-177.67598056329493,5.233387485263748,-179.3980312953331,0
1767367879.75393,1,left_wrist,0.3528,-0.1464,-0.9194,-1.33,22.75,-2.87,-0.021136090388166415,0.7817659156102482,-0.6094332831346458,0.13033185443666556,-168.75416586446502,-10.254214566439115,-76.88934557215572,0
1767367879.75393,2,right_wrist,-0.0864,-0.0356,-0.9648,1.26,-2.87,-0.63,0.04694325297265389,-0.004739210935526935,0.9987257999182839,-0.017906631666446165,-177.9155640040417,5.370582604042791,-179.35846366784764,0
1767367879.8142872,1,left_wrist,0.3314,-0.1513,-0.9238,-0.14,-4.41,-0.49,-0.019753420677045323,0.7830305781297674,-0.6080764134491784,0.1292903379688588,-168.97474767608693,-10.279687547513577,-76.6582848981559,0
1767367879.8142872,2,right_wrist,-0.06,-0.0307,-0.9667,0.98,-2.45,-0.49,0.043074556855057976,-0.005009093669043889,0.9989033351560413,-0.0176527206541232,-177.94661706196092,4.926503039419087,-179.3370321903107,0
1767367879.9005408,1,left_wrist,0.3314,-0.1513,-0.9238,-0.14,-4.41,-0.49,-0.01726856368868257,0.7834662168777607,-0.6072512163920805,0.13087568112417977,-169.09143997639143,-10.608702095898702,-76.57313458229234,0
1767367879.9005408,2,right_wrist,-0.0722,-0.0337,-0.9638,0.98,-2.52,-0.77,0.03631223087756843,-0.005692937247290749,0.9991955563463606,-0.01603909386092996,-178.134623250683,4.150894560053002,-179.2795134986695,0
1767367879.955269,1,left_wrist,0.3382,-0.1562,-0.917,0.07,1.61,-1.12,-0.013403058796476915,0.7836720650737417,-0.6062367469405288,0.1347421949387815,-169.16479295559205,-11.241016156498617,-76.51945311965518,0
1767367879.955269,2,right_wrist,-0.0654,-0.0351,-0.9667,0.91,-2.38,-0.49,0.033383387305269394,-0.006083163961165268,0.9992344034923138,-0.019471811564607977,-177.74155262725756,3.8117634042502204,-179.2272330517378,0
1767367880.005436,1,left_wrist,0.3314,-0.1542,-0.9223,0.77,-3.08,-0.35,-0.010961446581837687,0.7839473244133244,-0.6054012551550411,0.1370976275897021,-169.22062015524506,-11.635363714070369,-76.45554736390719,0
1767367880.005436,2,right_wrist,-0.0654,-0.0351,-0.9667,0.91,-2.38,-0.49,0.03587901250258045,-0.00611589562057094,0.9992234607606042,-0.01509197628540448,-178.2420080222371,4.1011635531722135,-179.23568480551714,0
1767367880.0589912,1,left_wrist,0.3235,-0.1571,-0.9277,0.07,1.61,-1.19,-0.0030127608405188214,0.7843262226438585,-0.6032335596466102,0.14468093261177759,-169.40161223813652,-12.904066727318721,-76.3304593686402,0
1767367880.0589912,2,right_wrist,-0.0761,-0.0303,-0.9638,0.98,-2.45,-0.7,0.041903706573971605,-0.006362985421109198,0.9989732608033381,-0.01600049973716919,-178.13094624090022,4.790794698409915,-179.1919229629586,0
1767367880.111827,1,left_wrist,0.3518,-0.1547,-0.914,0.7,-2.52,-0.49,-0.0005321294880665193,0.7845395387668287,-0.6023295647480305,0.14729740113181888,-169.4431702810173,-13.325346866805287,-76.26706550275568,0
1767367880.111827,2,right_wrist,-0.0732,-0.0337,-0.9658,1.19,-2.38,-0.56,0.03815276541371885,-0.006737711816149818,0.999088727742682,-0.017907647201049773,-177.91385537101817,4.358376538976223,-179.14783110623452,0
1767367880.208961,1,left_wrist,0.3294,-0.1527,-0.9262,0.63,-0.91,-0.49,0.0026513872712802073,0.7846835282641974,-0.6014081254975185,0.1502431269707504,-169.52409164474187,-13.826095935383826,-76.20920727568193,0
1767367880.208961,2,right_wrist,-0.062,-0.0371,-0.9648,0.98,-2.52,-0.7,0.03519175382304026,-0.007311084070249228,0.9991994408745084,-0.017566043056016493,-177.95374447454702,4.018025477070124,-179.08976849135465,0
1767367880.265257,1,left_wrist,0.3357,-0.1513,-0.9209,-0.56,-2.17,-0.63,0.009324654199263194,0.7850049368148997,-0.5993755719674987,0.15629850840277812,-169.70565144438814,-14.86652477706126,-76.0723516891389,0
1767367880.265257,2,right_wrist,-0.0683,-0.0303,-0.9672,0.91,-2.45,-0.7,0.036597521616028375,-0.00744005365144968,0.9992180443394802,-0.01298333083659736,-178.477948114777,4.183133847224465,-179.091191178159,0
1767367880.3524969,1,left_wrist,0.3357,-0.1513,-0.9209,-0.56,-2.17,-0.63,0.012574559624760104,0.7852195254105219,-0.5984563532779331,0.15849974948117698,-169.85076592624853,-15.305452876466251,-75.99301072289002,0
1767367880.3524969,2,right_wrist,-0.0722,-0.04,-0.9658,1.19,-2.66,-0.7,0.0380458423889208,-0.008368643243716119,0.9989543254729187,-0.023931888895840636,-177.21492394458798,4.336362050045597,-178.93457911736206,0
1767367880.4049878,1,left_wrist,0.3367,-0.1454,-0.9199,1.05,-1.05,-0.56,0.015727686228211423,0.7853699395866778,-0.5974302713475247,0.16131884191608806,-169.94212004066426,-15.79416955966361,-75.91908596124337,0
1767367880.4049878,2,right_wrist,-0.0771,-0.0327,-0.9667,0.98,-2.45,-0.56,0.04032803841357249,-0.008408895076464896,0.9989605026582522,-0.01951547924286306,-177.71920042208356,4.602592595169136,-178.94376154956973,0
1767367880.459882,1,left_wrist,0.3504,-0.1508,-0.914,-0.42,2.8,-1.33,0.022930950004319307,0.7853555904562972,-0.595230939240992,0.1684959852377104,-170.09198819577264,-16.97515213254907,-75.80007647596832,0
1767367880.459882,2,right_wrist,-0.0771,-0.0327,-0.9667,0.98,-2.45,-0.56,0.040693201329106074,-0.008471808886943993,0.9990231138163486,-0.01500366223490126,-178.2368030330754,4.649076431779957,-178.95669691243864,0
1767367880.5503411,1,left_wrist,0.3187,-0.1537,-0.9277,0.49,-7.98,0.21,0.024523333699704428,0.785795045793434,-0.5945283398538748,0.16870330530651628,-170.23739514170785,-17.115092060396865,-75.69445019133542,0
1767367880.5503411,2,right_wrist,-0.0683,-0.0395,-0.9648,1.26,-2.73,-0.49,0.035560317571330845,-0.009345066840403534,0.9990751978803766,-0.022290861810640276,-177.4025615485717,4.0506466228325735,-178.83630453867926,0
1767367880.603621,1,left_wrist,0.3401,-0.1454,-0.917,0.42,9.59,-1.96,0.030733110331075127,0.785437232083898,-0.5928899150881479,0.1750010827753125,-170.35381734630263,-18.14045191930461,-75.63838537322901,0
1767367880.603621,2,right_wrist,-0.0678,-0.0278,-0.9643,0.56,-2.17,-0.84,0.036287025992411286,-0.009551835465465747,0.999141618901888,-0.017551055865136844,-177.94500611903453,4.139005863652107,-178.83026741210304,0
1767367880.653832,1,left_wrist,0.3299,-0.1669,-0.9179,1.4,-14.0,1.19,0.027620487147582612,0.7855828260756793,-0.5928328792041161,0.17505973094700383,-170.06432009752606,-17.92648754665535,-75.65035456820485,0
1767367880.653832,2,right_wrist,-0.0659,-0.0312,-0.9638,-0.07,-1.96,-0.56,0.033349030363152884,-0.009762791352551967,0.9992939736214683,-0.014285809835650058,-178.3228767851046,3.8056348975567604,-178.82478927861465,0
1767367880.708823,1,left_wrist,0.3304,-0.1649,-0.9213,3.01,-12.46,1.19,0.03007842020501685,0.7853366905551311,-0.5910208914605685,0.18175774251194798,-169.80671489372767,-18.725589185210666,-75.61306170193262,0
1767367880.708823,2,right_wrist,-0.0649,-0.0273,-0.9609,1.61,-2.94,-0.56,0.03835845979275855,-0.009836692316563016,0.9991476499152313,-0.011655115420582465,-178.61814807181176,4.382944897736831,-178.81899096144747,0
1767367880.759316,1,left_wrist,0.3304,-0.1649,-0.9213,3.01,-12.46,1.19,0.03007842020501685,0.7853366905551311,-0.5910208914605685,0.18175774251194798,-169.80671489372767,-18.725589185210666,-75.61306170193262,0
1767367880.759316,2,right_wrist,-0.0698,-0.0444,-0.9648,0.91,-2.24,-0.7,0.038414401653504585,-0.010336882593809507,0.9990644396277684,-0.016962549192206695,-178.00632184864733,4.382026121779329,-178.73812968240145,0
1767367880.819175,1,left_wrist,0.3309,-0.1586,-0.9199,2.73,10.57,-1.61,0.03642002366838244,0.7855548692570301,-0.5888393062164713,0.18666922809362402,-170.05717664322574,-19.64363535402422,-75.43480070637949,0
1767367880.819175,2,right_wrist,-0.0708,-0.04,-0.9648,0.63,-2.73,-0.28,0.03743435702480054,-0.01067837276872467,0.9990057555593387,-0.021728820227219277,-177.45886935763255,4.262739281192725,-178.68058975193267,0
1767367880.9009001,1,left_wrist,0.3309,-0.1586,-0.9199,2.73,10.57,-1.61,0.03928231507410321,0.7860203173893543,-0.5881125338667778,0.1864205135771164,-170.36038365312004,-19.832128630042103,-75.29783715491381,0
1767367880.9009001,2,right_wrist,-0.0742,-0.04,-0.9643,1.19,-2.31,-0.84,0.039959838244781644,-0.01137490497577844,0.998880976281555,-0.022596860114859927,-177.35212022039573,4.549260270611069,-178.58993384956352,0
1767367880.959777,1,left_wrist,0.3421,-0.1664,-0.9165,0.49,-11.97,0.7,0.03417040073565821,0.7859054750785223,-0.5884763728348673,0.1867632902105903,-169.85109130967763,-19.497974287754513,-75.39899167563374,0
1767367880.959777,2,right_wrist,-0.0742,-0.04,-0.9643,1.19,-2.31,-0.84,0.03846469995262086,-0.011629303245305273,0.9990151942493873,-0.018811374815319158,-177.7882244006235,4.382593143411872,-178.58148471958359,0
1767367881.010171,1,left_wrist,0.3392,-0.1552,-0.9228,1.4,-6.79,0.28,0.03867843057717728,0.7872633433392405,-0.5868999189993609,0.18511858988483829,-170.43882183914266,-19.686589771182078,-75.07128668343947,0
1767367881.010171,2,right_wrist,-0.0639,-0.0366,-0.9638,0.7,-2.52,-0.42,0.034586558797608524,-0.011907699659147125,0.9991526760169689,-0.01886548826554273,-177.78703995398735,3.937325267048228,-178.5583097068922,0
1767367881.068059,1,left_wrist,0.3279,-0.1484,-0.9257,0.49,-2.66,-0.35,0.03850132899853101,0.7884187564178445,-0.5870366384883955,0.17972617301364574,-170.8430999735988,-19.183965958978025,-74.89153557075731,0
1767367881.068059,2,right_wrist,-0.0708,-0.0288,-0.9643,1.33,-2.52,-0.7,0.03792967692810087,-0.012016614886765248,0.9990958817310022,-0.014978640891098035,-178.22756530633043,4.325974462691823,-178.55486896036865,0
1767367881.153595,1,left_wrist,0.3279,-0.1484,-0.9257,0.49,-2.66,-0.35,0.042019439383155825,0.7887077582003228,-0.5860197642172105,0.18098418388177342,-171.09673567961866,-19.55646703512528,-74.76300506105864,0
1767367881.153595,2,right_wrist,-0.0786,-0.0327,-0.9667,0.84,-2.38,-0.7,0.04134003221845461,-0.012580590685631918,0.998920237282937,-0.01706136046095383,-177.98018026160216,4.712820011640578,-178.4737636789744,0
1767367881.207227,1,left_wrist,0.3226,-0.162,-0.9257,0.21,-4.41,-0.28,0.037175974646207186,0.7884953406297152,-0.5859959123330405,0.1830350661575584,-170.48670244879702,-19.40324380853902,-74.86822042248332,0
1767367881.207227,2,right_wrist,-0.0688,-0.0381,-0.9638,1.19,-2.52,-0.63,0.03781053801311546,-0.013010108510083326,0.999011255446893,-0.01943223564434744,-177.7120043479331,4.30355940276994,-178.421781239118,0
1767367881.261863,1,left_wrist,0.3396,-0.1479,-0.9199,0.63,3.99,-1.26,0.04253847757084253,0.7885429026410566,-0.584521884495089,0.1863457409405473,-170.7620964671443,-20.097124571697154,-74.73714818955413,0
1767367881.261863,2,right_wrist,-0.0688,-0.0381,-0.9638,1.19,-2.52,-0.63,0.033951637459374774,-0.01336773465236472,0.9991441152680647,-0.01948401676470676,-177.71139932001532,3.8603149294451167,-178.38981282850253,0
1767367881.3186939,1,left_wrist,0.3323,-0.1586,-0.9252,0.63,-5.04,-0.35,0.03637333684215556,0.7888821193407212,-0.585360869571617,0.18356098312500818,-170.38691121442443,-19.402300969369204,-74.79894503269358,0
1767367881.3186939,2,right_wrist,-0.0678,-0.0346,-0.9662,1.05,-2.45,-0.56,0.03764361081841102,-0.013421271572860693,0.9990780063969548,-0.015683276692256807,-178.14105883491868,4.289548632564044,-178.39108379583982,0
1767367881.405092,1,left_wrist,0.3338,-0.1527,-0.9213,0.07,3.36,-1.26,0.04195733041970122,0.7890666648582874,-0.5839455007235097,0.18606728089118924,-170.74507063445654,-20.037833527070855,-74.64477342979346,0
1767367881.405092,2,right_wrist,-0.0703,-0.0346,-0.9638,1.05,-2.52,-0.56,0.03960570524826446,-0.013903615556756385,0.998985508570623,-0.01631046449772011,-178.06338242781348,4.512552580702449,-178.32893838003844,0
1767367881.4558332,1,left_wrist,0.3299,-0.1527,-0.9233,0.07,2.24,-1.26,0.03900565338380863,0.7894592453844241,-0.5843396187425314,0.18379300544087904,-170.63915190458246,-19.619932033071144,-74.63806871263151,0
1767367881.4558332,2,right_wrist,-0.0649,-0.0356,-0.9662,1.05,-2.45,-0.7,0.03586514634931877,-0.014340880534761133,0.9990901215686461,-0.018082018880021086,-177.8649966664886,4.079835444236393,-178.27921844165346,0
1767367881.510305,1,left_wrist,0.3406,-0.1523,-0.9165,0.49,-2.94,-0.35,0.042808991657970745,0.789272731586836,-0.5825426928093765,0.18936725287409786,-170.60096017126213,-20.41399329613566,-74.55625644727574,0
1767367881.510305,2,right_wrist,-0.0712,-0.0317,-0.9643,1.05,-2.52,-0.56,0.03933682801929877,-0.014387453209191504,0.9990224268983426,-0.014135264612985587,-178.31153466913608,4.4845347764101104,-178.28370356568823,0
1767367881.561546,1,left_wrist,0.3406,-0.1523,-0.9165,0.49,-2.94,-0.35,0.042808991657970745,0.789272731586836,-0.5825426928093765,0.18936725287409786,-170.60096017126213,-20.41399329613566,-74.55625644727574,0
1767367881.561546,2,right_wrist,-0.0669,-0.0356,-0.9662,1.05,-2.45,-0.63,0.03655626168057541,-0.01484006418733108,0.9990634572327192,-0.017765715551697692,-177.8979353437478,4.158554582871804,-178.22165847592433,0
1767367881.653583,1,left_wrist,0.3289,-0.1542,-0.9218,0.42,-3.01,-0.49,0.03455819739395425,0.7906777353645263,-0.5839195552083654,0.18075509076363355,-170.47392790254932,-19.03807828943201,-74.49307286196556,0
1767367881.653583,2,right_wrist,-0.0688,-0.0342,-0.9653,0.91,-2.66,-0.56,0.03835894850260818,-0.015366732167292006,0.9989635907891413,-0.01908399564917862,-177.74072859070898,4.3616625643891345,-178.15136769109876,0
1767367881.71413,1,left_wrist,0.3396,-0.1537,-0.9213,0.7,-3.64,-0.21,0.04020116350364145,0.7904907965126783,-0.5817719688226964,0.18721523275061952,-170.54784039880303,-20.04509675346777,-74.37757189274426,0
1767367881.71413,2,right_wrist,-0.0634,-0.0312,-0.9653,1.05,-2.52,-0.56,0.035279114416885436,-0.015593164691004375,0.9991141741260232,-0.016825705374636526,-178.00529492798807,4.012321242609836,-178.1418374725123,0
1767367881.7645628,1,left_wrist,0.3289,-0.1581,-0.9233,0.28,-0.21,-0.77,0.036094968513278904,0.7908287489103283,-0.5823989706707025,0.1846577431538052,-170.34982519982213,-19.5183444724706,-74.40254430337805,0
1767367881.7645628,2,right_wrist,-0.0678,-0.0366,-0.9638,1.12,-2.52,-0.56,0.03670743665150816,-0.016007243502570316,0.998949249040867,-0.02228744244216144,-177.37354572939492,4.164727283157131,-178.06841785891,0
1767367881.851943,1,left_wrist,0.3338,-0.1557,-0.9228,0.84,-1.82,-0.42,0.03989664077945742,0.7911675170942316,-0.5812889421224794,0.18591767994355068,-170.63387479891634,-19.911423180504155,-74.25875275277087,0
1767367881.851943,2,right_wrist,-0.0659,-0.0312,-0.9662,1.05,-2.52,-0.56,0.03425647660591648,-0.016285008047567946,0.999174379551434,-0.014555121828622545,-178.2652784590003,3.898106937388412,-178.07346091026236,0
1767367881.90901,1,left_wrist,0.3333,-0.1576,-0.9199,0.28,0.14,-0.77,0.03765957537206055,0.7911361138358539,-0.5809045828146506,0.18771060554064534,-170.29437296206433,-19.923337576810628,-74.28579765809744,0
1767367881.90901,2,right_wrist,-0.0659,-0.0312,-0.9662,1.05,-2.52,-0.56,0.035519722177025904,-0.01669672451304123,0.9990294109050477,-0.019995121247846158,-177.63647506931008,4.031378549077776,-178.00181986674684,0
1767367881.963679,1,left_wrist,0.3304,-0.1557,-0.9223,0.63,0.35,-0.84,0.03572108169676884,0.791912878736716,-0.5812307137461936,0.18376303820798712,-170.414441473485,-19.425021508811202,-74.1985712226108,0
1767367881.963679,2,right_wrist,-0.0673,-0.0346,-0.9662,0.91,-2.45,-0.56,0.03571885107560199,-0.01679281486575234,0.9991010265381727,-0.015469447859991096,-178.15523676491526,4.063035617960656,-178.00869280208116,0
1767367882.057593,1,left_wrist,0.3304,-0.1557,-0.9223,0.63,0.35,-0.84,0.03892383730686166,0.7917811963506713,-0.5800390312629271,0.18740916254648185,-170.45849071487436,-19.994430120892098,-74.13686200349935,0
1767367882.057593,2,right_wrist,-0.0664,-0.0361,-0.9653,1.12,-2.52,-0.56,0.03824738085704496,-0.017349842265418813,0.9989654200393056,-0.01744162826789271,-177.92092506969098,4.347787536656203,-177.9310656127731,0
1767367882.1106188,1,left_wrist,0.3274,-0.1508,-0.9248,0.21,-1.05,-0.63,0.03576524387657014,0.7935953904162045,-0.5807510380036717,0.17791974454303539,-170.88419086121382,-18.901003199147326,-73.91362533832837,0
1767367882.1106188,2,right_wrist,-0.0664,-0.0361,-0.9653,1.12,-2.52,-0.56,0.03443522106737554,-0.01771490138265242,0.9990739226970412,-0.018753527822530976,-177.77736904130003,3.907289943278857,-177.8925279478691,0
1767367882.161196,1,left_wrist,0.3357,-0.1527,-0.9184,0.84,-0.28,-0.77,0.03700512549819889,0.7932071279505715,-0.5798206406025344,0.1823762528031951,-170.6777467859202,-19.40460613217935,-73.92960056172531,0
1767367882.161196,2,right_wrist,-0.0703,-0.0298,-0.9658,1.19,-2.59,-0.63,0.03792358442919339,-0.017796626298457477,0.9990117081685268,-0.014855597552338387,-178.21667462118074,4.315210526989728,-177.8916628602103,0
1767367882.2155352,1,left_wrist,0.3338,-0.1488,-0.9228,0.49,-1.05,-0.77,0.04114580586431793,0.7935511357076181,-0.5786146961519169,0.18381689550732305,-170.98371173408242,-19.837359640160635,-73.77481237399249,0
1767367882.2155352,2,right_wrist,-0.0688,-0.039,-0.9658,1.05,-2.45,-0.56,0.036987768411164766,-0.018242603679464443,0.9989514398099044,-0.01987796017389618,-177.64022982826503,4.1962382015167154,-177.82112644179725,0
1767367882.300601,1,left_wrist,0.3338,-0.1488,-0.9228,0.49,-1.05,-0.77,0.03612953219526788,0.7937086590200851,-0.5792391990124814,0.18221737520683384,-170.622823031777,-19.33618001130257,-73.84401912756725,0
1767367882.300601,2,right_wrist,-0.0649,-0.0322,-0.9638,0.91,-2.45,-0.63,0.035434039024167176,-0.01862620247155988,0.9990982713307843,-0.014147002642287118,-178.30025280653126,4.0299067742027175,-177.80411046357318,0
1767367882.361799,1,left_wrist,0.3348,-0.1547,-0.9194,0.14,-0.35,-0.77,0.039909817131966216,0.7940625251311327,-0.5777353585768809,0.18464497861817128,-170.82613403231406,-19.837517560387493,-73.68447831405237,0
1767367882.361799,2,right_wrist,-0.0693,-0.0366,-0.9653,1.05,-2.45,-0.56,0.03737511197618788,-0.019029080042641387,0.9989296263911616,-0.019508886065391737,-177.6783536077317,4.23961534641429,-177.7314091561749,0
1767367882.4550889,1,left_wrist,0.3333,-0.1576,-0.9213,0.35,-0.42,-0.84,0.035005391727876436,0.793713415685015,-0.5781528066936118,0.18583048303199298,-170.26404309805878,-19.60107384194454,-73.82603970373938,0
1767367882.4550889,2,right_wrist,-0.0683,-0.0346,-0.9658,1.05,-2.52,-0.49,0.038978328522946255,-0.01952077892803599,0.9988312819694275,-0.020873410236709487,-177.51552550004533,4.419055060246683,-177.6648785616415,0
1767367882.508403,1,left_wrist,0.3348,-0.1493,-0.9228,0.42,-1.26,-0.7,0.038344610507779986,0.7941793420663311,-0.5767247394653635,0.187609803498391,-170.47456147093396,-20.01220043575183,-73.65791972547905,0
1767367882.508403,2,right_wrist,-0.0683,-0.0346,-0.9658,1.05,-2.52,-0.49,0.03672867012195452,-0.019669591763058502,0.998976045091313,-0.017634434628478822,-177.8924775283297,4.168414699501811,-177.66730569573159,0
1767367882.5593941,1,left_wrist,0.3362,-0.1547,-0.9209,0.56,-0.56,-0.77,0.03505638124191932,0.7948054038501393,-0.5772371346950691,0.18399106085314268,-170.43493801552705,-19.44767561153394,-73.62176042772593,0
1767367882.5593941,2,right_wrist,-0.0693,-0.0337,-0.9662,0.98,-2.52,-0.63,0.0351036957052466,-0.01984586540020775,0.9990902097273836,-0.013878940926563527,-178.3269121384594,3.990590047718213,-177.66576765923799,0
1767367882.6211479,1,left_wrist,0.3294,-0.1513,-0.9218,0.42,-0.63,-0.84,0.03831426524872754,0.7959195949118589,-0.5765811606433019,0.18054966271088757,-171.02281915904626,-19.365225184204114,-73.37549322310062,0
1767367882.6211479,2,right_wrist,-0.0693,-0.0342,-0.9653,1.05,-2.52,-0.63,0.037821804115850455,-0.020260396867939748,0.9988975305467633,-0.01904602110031783,-177.7251161717005,4.289067450030558,-177.59088779941385,0
1767367882.70089,1,left_wrist,0.3294,-0.1513,-0.9218,0.42,-0.63,-0.84,0.03484512180475464,0.7953211525040875,-0.5765428008611869,0.1839795658249018,-170.43345703430538,-19.440336874871473,-73.52049193202609,0
1767367882.70089,2,right_wrist,-0.0698,-0.0337,-0.9648,1.19,-2.45,-0.56,0.036875564820776835,-0.020848281292067707,0.9988947863210168,-0.020365356540110183,-177.5736190603281,4.176000971873859,-177.52019110098541,0
1767367882.75422,1,left_wrist,0.3387,-0.1571,-0.9189,0.49,-0.77,-0.7,0.03641647586085508,0.7949840861134992,-0.5755992629377058,0.18804156885574505,-170.28914781243955,-19.931881142367995,-73.52229127157248,0
1767367882.75422,2,right_wrist,-0.0673,-0.0376,-0.9658,1.12,-2.52,-0.56,0.03441112389832684,-0.02104522013461776,0.9990352386476411,-0.017365632778289904,-177.9237160714727,3.9005532090603574,-177.5157143741863,0
1767367882.813985,1,left_wrist,0.3348,-0.1527,-0.9223,0.56,-0.07,-0.77,0.036280992707263385,0.7954047647568381,-0.5749435283401743,0.18829468656880863,-170.27361275072414,-19.953660241382458,-73.43613044500812,0
1767367882.813985,2,right_wrist,-0.0673,-0.0376,-0.9658,1.12,-2.52,-0.56,0.037982750904284206,-0.02139425797749381,0.998803274966704,-0.022172376397722193,-177.360805792935,4.296962921523031,-177.44680790322067,0
1767367882.90144,1,left_wrist,0.3387,-0.1557,-0.9199,0.56,-1.61,-0.7,0.03953740816175976,0.7965543110320114,-0.5742471873073702,0.18487344536666755,-170.86304158318458,-19.87272941100381,-73.18065293289102,0
1767367882.90144,2,right_wrist,-0.0693,-0.0332,-0.9653,1.05,-2.45,-0.56,0.035219175709512295,-0.0216746827114431,0.9990367629411181,-0.01467528820272381,-178.2278846838375,3.998728628300499,-177.45239067465258,0
1767367882.9545212,1,left_wrist,0.3318,-0.1537,-0.9228,0.21,-0.98,-0.77,0.03451865473024775,0.7966201288682792,-0.5748859633399633,0.183605451749622,-170.47324140716765,-19.403343759256675,-73.26505493387114,0
1767367882.9545212,2,right_wrist,-0.0683,-0.0332,-0.9633,0.91,-2.45,-0.56,0.03770560609697174,-0.02206549438604414,0.9988481503327039,-0.019843734610590972,-177.6260901668894,4.269542341847492,-177.38047383972315,0
1767367883.0055182,1,left_wrist,0.3314,-0.1547,-0.9213,0.35,-1.05,-0.77,0.03346104815393765,0.7970397200591604,-0.5743566122431659,0.1836369376705257,-170.3847031558998,-19.33974532022435,-73.19608242115628,0
1767367883.0055182,2,right_wrist,-0.0683,-0.0332,-0.9633,0.91,-2.45,-0.56,0.03629919706804024,-0.022205524370057773,0.9989676809960202,-0.01590142462485619,-178.08203652579363,4.11837076874933,-177.38425733020142,0
1767367883.059194,1,left_wrist,0.3382,-0.1537,-0.9199,0.28,-0.63,-0.77,0.03682963271663648,0.7970398240623223,-0.5732055207076794,0.18656507723284738,-170.50411602259368,-19.85381489664015,-73.11054836644225,0
1767367883.059194,2,right_wrist,-0.0673,-0.0346,-0.9658,1.12,-2.52,-0.56,0.03393860746611343,-0.022636342942067036,0.9989679561253799,-0.019969715474967918,-177.6199509189779,3.8361295255883765,-177.32411358897596,0
1767367883.1519942,1,left_wrist,0.3357,-0.1532,-0.9204,0.49,-1.47,-0.63,0.0359988674772571,0.7980936526139485,-0.5733925609011021,0.18158076522847072,-170.80546820510133,-19.33676161710953,-72.96061855106586,0
1767367883.1519942,2,right_wrist,-0.0664,-0.0351,-0.9648,0.98,-2.52,-0.63,0.03406709570163389,-0.02318921457180113,0.9989593975395447,-0.01954009686333437,-177.6667629389511,3.850713837828307,-177.26197530693796,0
1767367883.202549,1,left_wrist,0.3318,-0.1552,-0.9228,0.49,-0.77,-0.7,0.033824876995868586,0.7974426697049227,-0.5730977792764033,0.18574176056706995,-170.28789365223693,-19.572947473939113,-73.08641877800063,0
1767367883.202549,2,right_wrist,-0.0683,-0.0332,-0.9658,1.05,-2.59,-0.7,0.03742544799354819,-0.02330478462570117,0.9989072576281571,-0.015508498116402375,-178.1193536546769,4.2464245816227635,-177.25730253180927,0
1767367883.253726,1,left_wrist,0.3362,-0.1542,-0.9184,0.42,-0.77,-0.84,0.03805090529908042,0.7977820358447207,-0.5718520602600122,0.18729968784211118,-170.59708038043158,-20.021188679123163,-72.92948787827426,0
1767367883.253726,2,right_wrist,-0.0698,-0.0356,-0.9648,1.05,-2.45,-0.63,0.03644982190953053,-0.023781052200538333,0.9988419869478931,-0.020507490070309324,-177.54631850023256,4.119668731346774,-177.18398458171376,0
1767367883.314362,1,left_wrist,0.3328,-0.1513,-0.9218,0.63,-0.98,-0.7,0.03782268047667203,0.7984101507800557,-0.5712168636542321,0.1866064592932163,-170.6454801927299,-19.94920222641335,-72.81184108605729,0
1767367883.314362,2,right_wrist,-0.0659,-0.0356,-0.9662,1.05,-2.52,-0.56,0.03475318105283859,-0.023942278645681894,0.9989673960289907,-0.016826329695414474,-177.9732873420836,3.9352377438343327,-177.18447185134173,0
1767367883.369598,1,left_wrist,0.3357,-0.1518,-0.9228,0.35,-1.4,-0.7,0.03483209743178201,0.7991706932836135,-0.5717216646172584,0.18233832891732496,-170.67902921670256,-19.3457212038591,-72.75151177563673,0
1767367883.369598,2,right_wrist,-0.0678,-0.0361,-0.9653,1.12,-2.52,-0.56,0.03880466875029306,-0.024273714190307813,0.9987244345952655,-0.021318729440440318,-177.44390114623357,4.385998410067989,-177.11753401810392,0
1767367883.451348,1,left_wrist,0.3357,-0.1518,-0.9228,0.35,-1.4,-0.7,0.03704785919324368,0.7990045886216474,-0.5707098993990458,0.1857668813827713,-170.6500731415513,-19.82475129847572,-72.71205650800896,0
1767367883.451348,2,right_wrist,-0.0673,-0.0351,-0.9658,0.98,-2.45,-0.56,0.033470773850811965,-0.024682774947956888,0.9990108489037243,-0.01574140055256742,-178.098776766748,3.7899138288892207,-177.10642940070315,0
1767367883.5069902,1,left_wrist,0.3338,-0.1532,-0.9243,0.56,-0.77,-0.84,0.03299726759051701,0.7994882046966646,-0.5712630500213935,0.18272470703963112,-170.48789174609595,-19.261051234394643,-72.71201537761652,0
1767367883.5069902,2,right_wrist,-0.0708,-0.0342,-0.9648,0.98,-2.52,-0.56,0.03936133993450421,-0.024896066379721478,0.9987609124482335,-0.01753597909867281,-177.87379852286006,4.459361206511393,-177.06138000157608,0
1767367883.5697331,1,left_wrist,0.3348,-0.1527,-0.9194,0.49,-0.7,-0.63,0.03375035086970388,0.7990536094406009,-0.5700161328870011,0.18829724189341765,-170.1615648929189,-19.840059339901337,-72.73012835740535,0
1767367883.5697331,2,right_wrist,-0.0703,-0.0346,-0.9658,0.98,-2.52,-0.63,0.035603697537630166,-0.025221064825758175,0.9989051775600936,-0.01687367340983607,-177.96016391632685,4.0299715180837845,-177.03555141607134,0
1767367883.649326,1,left_wrist,0.3348,-0.1523,-0.9228,0.49,-1.4,-0.63,0.035981495829311774,0.800234922332787,-0.569620397456586,0.1840163140548268,-170.71143024948103,-19.60319792242765,-72.49587456771276,0
1767367883.649326,2,right_wrist,-0.0698,-0.0361,-0.9658,1.12,-2.52,-0.63,0.03754549435865877,-0.025790997141892882,0.9987974809446667,-0.018131529951405476,-177.80725874190603,4.247526027697013,-176.96034384354178,0
1767367883.7035332,1,left_wrist,0.3348,-0.1523,-0.9228,0.49,-1.4,-0.63,0.035254749321732955,0.7996803655377719,-0.5690576343864989,0.1882599914216481,-170.3309637211799,-19.951196481645205,-72.57638145903287,0
1767367883.7035332,2,right_wrist,-0.0688,-0.0351,-0.9648,1.05,-2.52,-0.63,0.034377784259251844,-0.026054841267259956,0.9989408478179931,-0.01601548490154316,-178.0592213933855,3.8904033290099576,-176.94592558486346,0
1767367883.7579148,1,left_wrist,0.3338,-0.1542,-0.9199,0.49,-0.56,-0.7,0.03435154500475837,0.800650029300055,-0.5692634740094219,0.18362624838603975,-170.5962689137479,-19.460133199326172,-72.4417886143274,0
1767367883.7579148,2,right_wrist,-0.0688,-0.0351,-0.9648,1.05,-2.52,-0.63,0.03951942058182616,-0.026361910672749636,0.9986830454897885,-0.019376266766326748,-177.6554056360174,4.468624125308671,-176.8843770823588,0
1767367883.80912,1,left_wrist,0.3304,-0.1513,-0.9252,0.56,-0.98,-0.7,0.03401161766232594,0.8011690824360908,-0.5686260762731623,0.18340037239518325,-170.59729402537064,-19.423574884279915,-72.34284468661745,0
1767367883.80912,2,right_wrist,-0.0708,-0.0346,-0.9643,0.91,-2.52,-0.63,0.03710829757601102,-0.026575843881621642,0.9988260026597298,-0.01622698936264522,-178.02399719910977,4.201653188620614,-176.8792798885152,0
1767367883.8658292,1,left_wrist,0.3362,-0.1562,-0.9184,0.56,-0.77,-0.56,0.03429369314060387,0.8006334113299943,-0.567918601815309,0.1878258368409914,-170.3026608044867,-19.859287928034853,-72.40051410472972,0
1767367883.8658292,2,right_wrist,-0.0708,-0.0346,-0.9643,0.91,-2.52,-0.63,0.038025023089402185,-0.027039511609090773,0.9986774332752132,-0.021595061885170866,-177.4026808530809,4.288675106735942,-176.80088595765463,0
1767367883.916773,1,left_wrist,0.3367,-0.1527,-0.9209,0.28,-1.26,-0.7,0.0374946875549324,0.8017683810096266,-0.567303477669635,0.1841965684867617,-170.89929059936293,-19.74945115347915,-72.1512284605437,0
1767367883.916773,2,right_wrist,-0.0678,-0.0361,-0.9662,1.05,-2.59,-0.63,0.03645094948482684,-0.027225368253645514,0.9988050141036426,-0.017850809688356284,-177.83707127927576,4.119838007803752,-176.7994381158651,0
1767367884.001013,1,left_wrist,0.3328,-0.1518,-0.9228,0.42,-0.98,-0.77,0.0322676492259819,0.8016322902837082,-0.5678564464353683,0.18407478433973878,-170.40003964723843,-19.37608263612664,-72.26824416297845,0
1767367884.001013,2,right_wrist,-0.0688,-0.0346,-0.9643,1.05,-2.45,-0.56,0.03870240639247562,-0.0276975753500039,0.9987199880961635,-0.01712756364348012,-177.91043793863264,4.379193403424396,-176.7429364304396,0
1767367884.060452,1,left_wrist,0.3343,-0.1537,-0.9228,0.49,-0.98,-0.7,0.0345535884930073,0.8025148142368262,-0.5668306766623408,0.1829726931736016,-170.72583829439364,-19.44176915552731,-72.06061662276144,0
1767367884.060452,2,right_wrist,-0.0688,-0.0351,-0.9638,0.98,-2.52,-0.63,0.034826684874241745,-0.028067863200070806,0.9988438310306557,-0.017615285636503608,-177.8662399986471,3.9326604438601036,-176.70751841678805,0
1767367884.151246,1,left_wrist,0.3328,-0.1523,-0.9194,0.56,-0.91,-0.63,0.03469080927076911,0.8019930357174424,-0.5661239922975548,0.18736953796692346,-170.4209703248134,-19.86570854606111,-72.11752635762127,0
1767367884.151246,2,right_wrist,-0.0703,-0.0346,-0.9648,1.05,-2.59,-0.56,0.03682963032128035,-0.028558009451852995,0.9987611733581732,-0.017439524613672878,-177.87744720496755,4.161724041226235,-176.64719722972256,0
1767367884.201868,1,left_wrist,0.3338,-0.1542,-0.9209,0.49,-0.98,-0.7,0.032966629529124075,0.802905830555151,-0.5664448043387106,0.18274493764729158,-170.60240783032737,-19.317430726637088,-72.00831828970784,0
1767367884.201868,2,right_wrist,-0.0688,-0.0351,-0.9667,0.98,-2.45,-0.63,0.03332091197927874,-0.028849287279545714,0.99890166831137,-0.01590259391084808,-178.06500186877258,3.76423667943423,-176.62780797638158,0
1767367884.2609339,1,left_wrist,0.3348,-0.1547,-0.9194,0.49,-0.84,-0.77,0.029673589577752815,0.8026201601422244,-0.5660747153560941,0.18568729964474667,-170.075631096838,-19.370028044102742,-72.08722249827002,0
1767367884.2609339,2,right_wrist,-0.0688,-0.0351,-0.9658,1.05,-2.52,-0.56,0.03899208407151115,-0.029083878176932917,0.9986478458881617,-0.018336447662626067,-177.76451749359504,4.405350218470383,-176.57766958521634,0
1767367884.31216,1,left_wrist,0.3333,-0.1537,-0.9209,0.49,-1.19,-0.7,0.034161382732765436,0.8033540682566843,-0.5649837411360937,0.18506380844747447,-170.57564490554273,-19.629999669724626,-71.86997723683143,0
1767367884.31216,2,right_wrist,-0.0693,-0.0351,-0.9643,0.98,-2.45,-0.63,0.03555812910530099,-0.029367658201274155,0.9987975227976842,-0.016633356832385784,-177.97117914094048,4.01707599897837,-176.56047507061479,0
1767367884.401999,1,left_wrist,0.3333,-0.1552,-0.9204,0.49,-0.56,-0.7,0.030528500533294735,0.8027038963657641,-0.5650149269582341,0.18839479220188265,-169.9760675519381,-19.69107400443555,-72.02658762661748,0
1767367884.401999,2,right_wrist,-0.0688,-0.0346,-0.9648,1.05,-2.45,-0.63,0.037674736243838526,-0.029924185454367837,0.9986877939393508,-0.017545586636027274,-177.85646566043775,4.255287688289237,-176.4878176773916,0
1767367884.458737,1,left_wrist,0.3333,-0.1532,-0.9213,0.42,-1.05,-0.7,0.031173753616507607,0.804363953848031,-0.5646742973955603,0.18212568379075494,-170.52289053793598,-19.159359324514263,-71.7417690984019,0
1767367884.458737,2,right_wrist,-0.0693,-0.0346,-0.9653,0.98,-2.45,-0.63,0.0343972003759872,-0.030192560711184677,0.9988312696111996,-0.015535016281765396,-178.09816940793814,3.886253051183193,-176.4726642496722,0
1767367884.5125382,1,left_wrist,0.3382,-0.1557,-0.9209,0.49,-1.4,-0.56,0.03288514795795939,0.804094592274786,-0.5637521819689927,0.18583307306135938,-170.42684076119457,-19.62927624353793,-71.72857230644006,0
1767367884.5125382,2,right_wrist,-0.0703,-0.0351,-0.9662,0.98,-2.52,-0.56,0.039757412337718345,-0.030456070815802462,0.9985731488721719,-0.018532195395762813,-177.7330988116681,4.489277777148348,-176.4172217046381,0
1767367884.604064,1,left_wrist,0.3382,-0.1557,-0.9209,0.49,-1.4,-0.56,0.03488600928080769,0.8038622252879272,-0.5627807236657368,0.18938412336273241,-170.37091859247937,-20.10513350219826,-71.7023018897555,0
1767367884.604064,2,right_wrist,-0.0678,-0.0361,-0.9667,1.05,-2.52,-0.63,0.03402362991471319,-0.031165533497150292,0.9987225856159372,-0.020598522031482068,-177.5147816929304,3.823113078133735,-176.34232708080341,0
1767367884.661641,1,left_wrist,0.3367,-0.1523,-0.9213,0.42,-0.98,-0.7,0.034903158843227346,0.8044363856545931,-0.5621330295439428,0.18886589960468722,-170.4287547183996,-20.06595582378429,-71.58819303330564,0
1767367884.661641,2,right_wrist,-0.0703,-0.0346,-0.9653,1.12,-2.45,-0.7,0.038061111126498896,-0.03127703183038132,0.9986404441612274,-0.017040023038835204,-177.90724697910701,4.298510721576122,-176.33366152814008,0
1767367884.7163048,1,left_wrist,0.3348,-0.1513,-0.9209,0.35,-1.05,-0.63,0.03440154628165996,0.8054768321425697,-0.5622958853656354,0.18397538910375433,-170.748337506172,-19.576400794201913,-71.43652053236669,0
1767367884.7163048,2,right_wrist,-0.0698,-0.0337,-0.9633,1.05,-2.45,-0.56,0.0347309922203568,-0.031515003331163506,0.9987846441268349,-0.015159069920613825,-178.13488427885986,3.9233621454699183,-176.3215634163049,0
1767367884.799052,1,left_wrist,0.3338,-0.1552,-0.9204,0.35,-0.91,-0.7,0.03139875824280926,0.8048269785099103,-0.5621929208603141,0.1876346779728274,-170.187659465798,-19.71436080158674,-71.57965906295429,0
1767367884.799052,2,right_wrist,-0.0688,-0.0366,-0.9643,1.05,-2.66,-0.49,0.037236965350744056,-0.03196983285211399,0.9986667047734034,-0.01600471730170626,-178.0263171121532,4.206497719020063,-176.2603974541993,0
1767367884.856437,1,left_wrist,0.3338,-0.1532,-0.9204,0.49,-1.05,-0.84,0.0346393627668823,0.8059747873182741,-0.5615014667455871,0.18417616457327265,-170.77565488976146,-19.620146396470847,-71.32616886101171,0
1767367884.856437,2,right_wrist,-0.0703,-0.0337,-0.9648,0.91,-2.52,-0.56,0.0342394221234438,-0.03239120444068589,0.9987037991559505,-0.019214406027902187,-177.66805173942936,3.850040502350637,-176.206337343703,0
1767367884.909885,1,left_wrist,0.3353,-0.1557,-0.9179,0.42,-0.84,-0.63,0.035210148223804,0.8063958248594593,-0.5607466064857805,0.18452442230222832,-170.8226635936854,-19.699521129084356,-71.2242092485685,0
1767367884.909885,2,right_wrist,-0.0693,-0.0346,-0.9653,1.05,-2.45,-0.56,0.03855447387417619,-0.032445889281323956,0.9986039609251052,-0.01584127639176954,-178.03785785872208,4.357149696540956,-176.2034361599191,0
1767367884.9608152,1,left_wrist,0.3343,-0.1513,-0.9209,0.49,-0.77,-0.7,0.03119286915128854,0.805796246376401,-0.5608726998538641,0.18745993918288292,-170.21450326793897,-19.70025741206563,-71.38260673015156,0
1767367884.9608152,2,right_wrist,-0.0693,-0.0346,-0.9653,1.05,-2.45,-0.56,0.034995013455410076,-0.032837868982825216,0.9986837192745315,-0.018106690749868544,-177.79040480645241,3.9398243201190115,-176.15744636410057,0
1767367885.054497,1,left_wrist,0.3343,-0.1513,-0.9209,0.49,-0.77,-0.7,0.03483896069877808,0.8068463543216119,-0.5601329720783926,0.18448918918456866,-170.8053198881881,-19.67824496565717,-71.13669277797588,0
1767367885.054497,2,right_wrist,-0.0693,-0.0361,-0.9662,1.05,-2.52,-0.63,0.036764750285420596,-0.033347456490910976,0.9985996349323827,-0.018304900845109523,-177.75843847401555,4.140684567497677,-176.09368289868502,0
1767367885.106765,1,left_wrist,0.3348,-0.1523,-0.9204,0.35,-1.05,-0.7,0.03178309050214813,0.8062055384233782,-0.560040565992144,0.1880878236803286,-170.24401513174772,-19.80831921004761,-71.27992360308713,0
1767367885.106765,2,right_wrist,-0.0693,-0.0361,-0.9662,1.05,-2.52,-0.63,0.03584448679548252,-0.03349979975656828,0.9986950543820036,-0.014181838229411367,-178.23471298955616,4.05104883883498,-176.0951929370077,0
1767367885.1590679,1,left_wrist,0.3343,-0.1552,-0.9209,0.56,-0.91,-0.84,0.031557853713452204,0.8067931855870526,-0.5592891401219812,0.18784172939182342,-170.26013186886968,-19.7793493464617,-71.16337477695951,0
1767367885.1590679,2,right_wrist,-0.0683,-0.0342,-0.9653,0.98,-2.59,-0.56,0.03703685606116874,-0.03391989170847279,0.9985462372806947,-0.019573560027653824,-177.609329105331,4.16552861440609,-176.02194962011322,0
1767367885.216343,1,left_wrist,0.3362,-0.1527,-0.9184,0.42,-1.12,-0.63,0.035748007129028266,0.8077236556013302,-0.5583881101087612,0.1857613917300707,-170.84016847707971,-19.877499475085706,-70.92140259888423,0
1767367885.216343,2,right_wrist,-0.0698,-0.0371,-0.9662,0.98,-2.45,-0.63,0.03700278658821507,-0.0340452683919083,0.9986207269024179,-0.015111495151582142,-178.12104785669868,4.179108698047104,-176.02626256135085,0
1767367885.301847,1,left_wrist,0.3333,-0.1532,-0.9223,0.56,-1.05,-0.7,0.03053694392160787,0.8077345948722183,-0.5590115386246852,0.18476584908203128,-170.4019614555711,-19.42815229948741,-71.01893685445653,0
1767367885.301847,2,right_wrist,-0.0708,-0.0356,-0.9648,1.05,-2.52,-0.56,0.03818733013969818,-0.03458509505996071,0.9985449402015923,-0.015924867795156856,-178.02046523081881,4.31053074950831,-175.9581452598788,0
1767367885.354987,1,left_wrist,0.3338,-0.1523,-0.9233,0.35,-0.98,-0.63,0.035077068314825675,0.8082594567924304,-0.5578849013932107,0.18506941017231873,-170.84082043596666,-19.773708248867408,-70.82887378876968,0
1767367885.354987,2,right_wrist,-0.0678,-0.0356,-0.9658,0.98,-2.52,-0.56,0.034805881929562216,-0.03498919450239376,0.9986101156438711,-0.01849712909923248,-177.73792184729513,3.9117914492514183,-175.90933483349008,0
1767367885.4090781,1,left_wrist,0.3353,-0.1532,-0.9204,0.42,-0.98,-0.84,0.03480536187774593,0.8087695741047427,-0.5571428811720291,0.18512745000761707,-170.82912721707976,-19.76931731491178,-70.72549682278901,0
1767367885.4090781,2,right_wrist,-0.0678,-0.0356,-0.9658,0.98,-2.52,-0.56,0.03854510362801788,-0.035041178130152596,0.9985348567677107,-0.014646864560162707,-178.16365955214974,4.355853371811638,-175.910491916637,0
1767367885.50336,1,left_wrist,0.3357,-0.1547,-0.9204,0.42,-1.26,-0.63,0.030613427083158132,0.808198674766058,-0.5573286335630427,0.1877831579225453,-170.22363592445362,-19.73410949524967,-70.88426432321305,0
1767367885.50336,2,right_wrist,-0.0678,-0.0356,-0.9653,1.05,-2.52,-0.63,0.036105261356796425,-0.035620816781422864,0.9986166496710464,-0.013869192981432934,-178.2608594255424,4.078466250113605,-175.85230366755192,0
1767367885.565983,1,left_wrist,0.3357,-0.1557,-0.9194,0.42,-1.19,-0.7,0.030036948437955686,0.8086587953531373,-0.5567206014889428,0.1876989778990237,-170.19010251182993,-19.695008299562694,-70.79776951450127,0
1767367885.565983,2,right_wrist,-0.0703,-0.0342,-0.9667,0.98,-2.52,-0.63,0.0387071098391162,-0.03604157416839289,0.9984190851093406,-0.019028795778869127,-177.6556268637063,4.354095423238458,-175.77606198976613,0
1767367885.6174898,1,left_wrist,0.3338,-0.1532,-0.9204,0.42,-1.26,-0.7,0.0334488069473915,0.8097640464411926,-0.5560306523295745,0.1843726662901252,-170.78369131614116,-19.62081795525385,-70.54847118686527,0
1767367885.6174898,2,right_wrist,-0.0688,-0.0346,-0.9648,1.05,-2.52,-0.56,0.03623728006342658,-0.036229801472476314,0.9985581951282652,-0.015993497461503893,-178.0140403953037,4.083556547255557,-175.7733907779407,0
1767367885.702865,1,left_wrist,0.3348,-0.1532,-0.9228,0.49,-0.84,-0.84,0.030491156336457638,0.8091401986744401,-0.5558521511538467,0.18812446500121782,-170.22322934298393,-19.775482970909636,-70.68370158191742,0
1767367885.702865,2,right_wrist,-0.0683,-0.0337,-0.9648,0.98,-2.45,-0.63,0.037886584375608885,-0.036762891008896396,0.9984791895103274,-0.015887249095342,-178.01671365216268,4.271908554105274,-175.70879404119867,0
1767367885.760056,1,left_wrist,0.3362,-0.1532,-0.9209,0.35,-1.05,-0.63,0.030141164740406127,0.8095665991509274,-0.5552756424218153,0.18804891028754667,-170.20986557352788,-19.751998279729996,-70.60032523698995,0
1767367885.760056,2,right_wrist,-0.0683,-0.0342,-0.9658,1.12,-2.59,-0.7,0.03417468747825159,-0.03719325445414318,0.9985705180179741,-0.01748350949288874,-177.84841553878832,3.838888975923507,-175.6617229857486,0
1767367885.811978,1,left_wrist,0.3343,-0.1532,-0.9223,0.56,-0.91,-0.7,0.03291959997817529,0.8106997383467974,-0.5547364075156674,0.1842545857185718,-170.7739853592307,-19.58918175372028,-70.3612848537526,0
1767367885.811978,2,right_wrist,-0.0683,-0.0342,-0.9658,1.12,-2.59,-0.7,0.03948534798638717,-0.03733046037218932,0.9984069844931115,-0.01519333202974951,-178.08669681059646,4.456979921956547,-175.6429525004407,0
1767367885.8664079,1,left_wrist,0.3328,-0.1537,-0.9204,0.42,-1.05,-0.7,0.02919322017884445,0.8100919886504353,-0.5547827297355543,0.18738956376260524,-170.18094966163036,-19.633198146822682,-70.51276157807487,0
1767367885.8664079,2,right_wrist,-0.0673,-0.0327,-0.9643,1.05,-2.52,-0.63,0.03563789847652532,-0.037705215730617955,0.9985231231288091,-0.016119226903727253,-177.99630384777362,4.011401051062341,-175.60478751093984,0
1767367885.9537542,1,left_wrist,0.3348,-0.1527,-0.9218,0.42,-1.12,-0.7,0.03328145089229477,0.8110706218636208,-0.5539010436830587,0.18506870395364441,-170.7686926074492,-19.698879001261133,-70.26645199576423,0
1767367885.9537542,2,right_wrist,-0.0683,-0.0351,-0.9653,1.05,-2.52,-0.56,0.037174374289943114,-0.03822644374004958,0.9984263839816792,-0.01736550213522608,-177.84410751183816,4.180806875724,-175.536109425617,0
1767367886.006343,1,left_wrist,0.3343,-0.1547,-0.9213,0.35,-0.98,-0.7,0.032640614214654994,0.8115794033963313,-0.5533572795019377,0.1845783939380752,-170.75729923116904,-19.616563242276943,-70.17573218224506,0
1767367886.006343,2,right_wrist,-0.0703,-0.0351,-0.9662,0.98,-2.52,-0.56,0.03669029005344858,-0.03833057058616096,0.9985062386979539,-0.013033850375006959,-178.34294120701932,4.144481080489462,-175.54326623715187,0
1767367886.064051,1,left_wrist,0.3353,-0.1542,-0.9228,0.42,-0.84,-0.7,0.029944106477356368,0.8109157560152532,-0.5531789208373229,0.18844646103001692,-170.213640545643,-19.801180507718637,-70.31306962756501,0
1767367886.064051,2,right_wrist,-0.0693,-0.0361,-0.9648,0.98,-2.52,-0.63,0.03759854704020504,-0.03878667778475014,0.9983700138627817,-0.01841896594590907,-177.7188754328948,4.223411582168025,-175.46623255416236,0
1767367886.152658,1,left_wrist,0.3338,-0.1532,-0.9223,0.42,-1.19,-0.63,0.03187614094435576,0.8120740440768848,-0.5528638446988764,0.18401420542959798,-170.73812324802444,-19.518587787387272,-70.0908406036244,0
1767367886.152658,2,right_wrist,-0.0664,-0.0342,-0.9643,1.05,-2.52,-0.56,0.035179806182323595,-0.03943008256338087,0.9983940486517221,-0.02041992759149212,-177.49815862051418,3.9356645252455036,-175.39075459544551,0
1767367886.2043679,1,left_wrist,0.3367,-0.1532,-0.9209,0.49,-0.98,-0.7,0.03342508419728127,0.8122735173595587,-0.5516425660535895,0.18650730833012033,-170.7317282627107,-19.868789059784262,-69.99026462352406,0
1767367886.2043679,2,right_wrist,-0.0683,-0.0327,-0.9648,0.98,-2.59,-0.63,0.03709409818544548,-0.03952554373528829,0.9984035523777652,-0.015877842161247394,-178.00974562783867,4.175664588644955,-175.39326837083007,0
1767367886.262346,1,left_wrist,0.3348,-0.1532,-0.9223,0.42,-1.26,-0.63,0.02825925802071609,0.8123188963312106,-0.5523118482077061,0.18517842025665457,-170.31770813365134,-19.39408200054971,-70.08347644363457,0
1767367886.262346,2,right_wrist,-0.0703,-0.0346,-0.9653,1.12,-2.38,-0.7,0.037327029426431194,-0.0400221894219119,0.9982748967350261,-0.021263766758216684,-177.38853037381,4.176160354700536,-175.31309791310954,0
1767367886.320022,1,left_wrist,0.3353,-0.1552,-0.9233,0.28,-1.12,-0.7,0.03204304551715269,0.8124865345088323,-0.551141555822124,0.1873015214080824,-170.55211378267438,-19.85740570612811,-69.95861423272126,0
1767367886.320022,2,right_wrist,-0.0688,-0.0346,-0.9648,1.05,-2.52,-0.63,0.03735215381024074,-0.04014948056430792,0.9983536415291167,-0.016817914903594654,-177.89801828615302,4.199578278049912,-175.31702629870503,0
1767367886.399615,1,left_wrist,0.3333,-0.1552,-0.9209,0.42,-1.05,-0.7,0.027427036722085733,0.8127749382213634,-0.5517927259491094,0.184849790493675,-170.27492862319906,-19.314342170408956,-70.00387294727254,0
1767367886.399615,2,right_wrist,-0.0664,-0.0332,-0.9662,1.05,-2.45,-0.56,0.03979832574980751,-0.040627524037969216,0.9982448782994497,-0.016512434919572227,-177.91903661027686,4.480237347503259,-175.25740491563695,0
1767367886.454885,1,left_wrist,0.3333,-0.1552,-0.9209,0.42,-1.05,-0.7,0.03124670878863043,0.8129640441770616,-0.5506081292906744,0.18693259219349462,-170.51635554482544,-19.776277686125695,-69.87517762290598,0
1767367886.454885,2,right_wrist,-0.0664,-0.0332,-0.9662,1.05,-2.45,-0.56,0.03596275355412706,-0.040928652458479216,0.998384137418653,-0.016144346241031744,-177.9788700619081,4.042002591708523,-175.23363153156606,0
1767367886.5096881,1,left_wrist,0.3343,-0.1527,-0.9228,0.28,-0.98,-0.77,0.030949268066256575,0.8135184726495914,-0.5499996316457836,0.1863605179579124,-170.5454703462422,-19.710002984574118,-69.76935081099643,0
1767367886.5096881,2,right_wrist,-0.0698,-0.0346,-0.9662,0.98,-2.52,-0.63,0.04185373111540104,-0.04117012665322916,0.9981139484765974,-0.017939668880245667,-177.74248909373412,4.707698989616491,-175.18320595322282,0
1767367886.5696929,1,left_wrist,0.3377,-0.1542,-0.9228,0.35,-1.05,-0.77,0.03246552783869949,0.8131904442735839,-0.5490457629409371,0.19030512615505196,-170.42159064016698,-20.191486216541804,-69.76176280218807,0
1767367886.5696929,2,right_wrist,-0.0703,-0.0342,-0.9653,1.05,-2.45,-0.63,0.038264329896128074,-0.04146516314974925,0.998268244909965,-0.016643091868498976,-177.90797158117365,4.302136677350119,-175.16434694530807,0
1767367886.651569,1,left_wrist,0.3338,-0.1527,-0.9218,0.35,-1.05,-0.63,0.0306627800297991,0.8140835526727777,-0.5494199137033704,0.18564892031653202,-170.58510844459823,-19.630983353999635,-69.66275680828204,0
1767367886.651569,2,right_wrist,-0.0678,-0.0356,-0.9662,0.98,-2.45,-0.56,0.038390424270125054,-0.04210124331062199,0.9981776743927238,-0.0198743799901572,-177.53380222648744,4.2993524421472955,-175.07702136793122,0
1767367886.7051551,1,left_wrist,0.3338,-0.1527,-0.9218,0.35,-1.05,-0.63,0.03409715258493532,0.8141125051054009,-0.548289962248313,0.1882453997163057,-170.7518680486017,-20.114425445745933,-69.56277519149783,0
1767367886.7051551,2,right_wrist,-0.0673,-0.0332,-0.9658,0.98,-2.52,-0.56,0.03664587712875195,-0.04225813229029144,0.9983033292726022,-0.0161800095191163,-177.96592236004147,4.1173757125931765,-175.07911349747036,0
1767367886.768419,1,left_wrist,0.3348,-0.1527,-0.9213,0.42,-0.98,-0.56,0.0337979314661858,0.8147537070978174,-0.5478227993706954,0.1868803817649829,-170.83616369656932,-19.97155134751392,-69.44889553995259,0
1767367886.768419,2,right_wrist,-0.0673,-0.0361,-0.9648,1.05,-2.52,-0.63,0.034068575200931595,-0.04271945283805035,0.9983064523544147,-0.019965162672483435,-177.54310027668225,3.802414877446338,-175.01782853841962,0
1767367886.848507,1,left_wrist,0.3348,-0.1527,-0.9213,0.42,-0.98,-0.56,0.028690665432626678,0.8147611164837254,-0.548515505102396,0.18566612358071696,-170.41609249087057,-19.513054511215504,-69.55033232514654,0
1767367886.848507,2,right_wrist,-0.0703,-0.0342,-0.9672,1.05,-2.59,-0.56,0.03451868234545603,-0.04305821011009853,0.9983546387307539,-0.015571333791111693,-178.04342081451497,3.8751644392784126,-174.99462411685687,0
1767367886.898947,1,left_wrist,0.3357,-0.1527,-0.9194,0.35,-0.84,-0.7,0.03264112825726753,0.8149423506353798,-0.5473272474726801,0.1877136277976483,-170.6751330447123,-19.979403764542216,-69.41779755923585,0
1767367886.898947,2,right_wrist,-0.0703,-0.0346,-0.9653,0.98,-2.45,-0.63,0.04039092825106493,-0.04329837060020106,0.9980949559037838,-0.017328676170115402,-177.81026086455222,4.53840794035672,-174.94523620804856,0
1767367886.953523,1,left_wrist,0.3333,-0.1532,-0.9218,0.56,-1.05,-0.63,0.028501346526259946,0.8153932177466354,-0.5479572954372454,0.1845653707391437,-170.49290742524943,-19.403681941906758,-69.4324865711616,0
1767367886.953523,2,right_wrist,-0.0703,-0.0346,-0.9653,0.98,-2.45,-0.63,0.03672168075737552,-0.04360516998822762,0.9982417791115005,-0.016231381609630304,-177.95407199293948,4.123048862262885,-174.92394188415716,0
1767367887.0115058,1,left_wrist,0.3343,-0.1552,-0.9218,0.35,-0.98,-0.7,0.027027681400208548,0.8156686366325655,-0.5475147844039583,0.1848830454941388,-170.33810824294696,-19.341791570328805,-69.39298940400381,0
1767367887.0115058,2,right_wrist,-0.0698,-0.0346,-0.9662,1.05,-2.59,-0.56,0.03786577678448532,-0.043850571653417846,0.9981814168118154,-0.016648406702532,-177.8991803990011,4.251450992876875,-174.89118759115559,0
1767367887.1070411,1,left_wrist,0.3357,-0.1542,-0.9218,0.42,-1.19,-0.77,0.030607834954741293,0.815813159219461,-0.5463184170716927,0.18721174336036145,-170.5411465203599,-19.810044195818797,-69.27270572654213,0
1767367887.1070411,2,right_wrist,-0.0678,-0.0332,-0.9658,1.05,-2.52,-0.63,0.039917332852901145,-0.04441513538324275,0.9980563400710376,-0.0178169674974202,-177.75168897037713,4.4791785655633936,-174.81591253185096,0
1767367887.16473,1,left_wrist,0.3353,-0.1532,-0.9209,0.56,-1.19,-0.63,0.02994805392856167,0.8163492458352422,-0.5457801654046823,0.18655035229385308,-170.53963118455536,-19.710670425997943,-69.1775040437955,0
1767367887.16473,2,right_wrist,-0.0678,-0.0356,-0.9653,0.98,-2.52,-0.56,0.036191567045768036,-0.04470981492845323,0.9981990208608998,-0.017026969083667336,-177.86109189245485,4.055930182787457,-174.79507072037714,0
1767367887.248275,1,left_wrist,0.3348,-0.1532,-0.9209,0.56,-0.77,-0.63,0.029616490237823655,0.8165691677876891,-0.5455201709737711,0.18640118236014774,-170.52501947841625,-19.67787632373136,-69.13777631006535,0
1767367887.248275,2,right_wrist,-0.0698,-0.0342,-0.9648,1.05,-2.52,-0.56,0.03889309802902456,-0.04521230673168875,0.9980669016931476,-0.017482390864678888,-177.79209533181123,4.3618418859630514,-174.72846976457566,0
1767367887.302979,1,left_wrist,0.3338,-0.1537,-0.9204,0.42,-1.12,-0.77,0.029262875338928383,0.8168488123558384,-0.5452260319415098,0.18609211690200747,-170.520874497147,-19.628979760556074,-69.08766177485522,0
1767367887.302979,2,right_wrist,-0.0688,-0.0342,-0.9653,1.05,-2.59,-0.56,0.03568819772495582,-0.045449065975204365,0.9982090273412185,-0.015474904834097464,-178.03884449268728,4.004907813515169,-174.7176013929604,0
1767367887.361245,1,left_wrist,0.3377,-0.1532,-0.9243,0.42,-1.05,-0.63,0.02935608767340918,0.8174738625310094,-0.5446011593629014,0.1851601507228997,-170.61385346599812,-19.55441080855496,-68.96405468470041,0
1767367887.361245,2,right_wrist,-0.0688,-0.0342,-0.9653,1.05,-2.59,-0.56,0.04055494161273899,-0.045745637036926266,0.997944808985056,-0.01920394810066824,-177.58301649160174,4.541789641857158,-174.6549545935779,0
1767367887.417024,1,left_wrist,0.3343,-0.1527,-0.9213,0.49,-0.98,-0.63,0.031027518694142362,0.8171400746402973,-0.5436598185015412,0.18908567700226608,-170.50994711826155,-20.04486144102802,-68.9541596697333,0
1767367887.417024,2,right_wrist,-0.0683,-0.0346,-0.9667,0.98,-2.52,-0.63,0.03750729703296962,-0.04600232104010305,0.9980946321800737,-0.016855098383789995,-177.86828106172862,4.204752240640617,-174.64393001144737,0
1767367887.4998899,1,left_wrist,0.3343,-0.1537,-0.9189,0.35,-0.91,-0.77,0.027995214531526993,0.8178370624676972,-0.5441537374255814,0.18508246071228152,-170.4987960780817,-19.463239113698542,-68.9092862735331,0
1767367887.4998899,2,right_wrist,-0.0693,-0.0342,-0.9653,1.05,-2.52,-0.63,0.03995216542314789,-0.046531370405381085,0.9979716701786144,-0.01706462912298923,-177.8283139031684,4.48247565225311,-174.57592393116894,0
1767367887.563662,1,left_wrist,0.3333,-0.1547,-0.9213,0.42,-1.05,-0.7,0.02966490397525929,0.817526981230346,-0.5431927862915017,0.1889741393773533,-170.3978599934904,-19.950637721405577,-68.89552798810092,0
1767367887.563662,2,right_wrist,-0.0693,-0.0351,-0.9658,0.98,-2.52,-0.63,0.03616984874048664,-0.046863875587391725,0.9981091912987936,-0.016539693222303208,-177.90834444874042,4.051476348301075,-174.54957952722063,0
1767367887.649667,1,left_wrist,0.3367,-0.1547,-0.9204,0.42,-1.05,-0.7,0.029239096913043838,0.8180675486243576,-0.5426091075452316,0.18837706205483465,-170.41520071824985,-19.873287025643013,-68.79410321352339,0
1767367887.649667,2,right_wrist,-0.0683,-0.0337,-0.9662,0.98,-2.52,-0.56,0.03782304488208605,-0.0474047090053136,0.9980035464333733,-0.017638938357478047,-177.77065639281963,4.233582081805153,-174.4786307963125,0
1767367887.707419,1,left_wrist,0.3338,-0.1542,-0.9194,0.49,-1.05,-0.77,0.02904233083863456,0.8188168494364014,-0.5420406045257674,0.18678194009016344,-170.52748719499363,-19.716395074520467,-68.65729002863606,0
1767367887.707419,2,right_wrist,-0.0698,-0.0351,-0.9653,0.98,-2.59,-0.63,0.03595062532990916,-0.047594280006094974,0.9981206051800403,-0.014056833360332407,-178.19137097051063,4.038574510769176,-174.47619008242654,0
