timestamp,node_id,node_name,ax,ay,az,gx,gy,gz,qw,qx,qy,qz,roll,pitch,yaw,rep_number
1767557472.0439968,1,left_wrist,0.304,0.7203,-0.9467,44.1,-26.04,-18.69,0.11728230425596259,0.5888291268273362,-0.7976398312689893,-0.05740923341542701,166.62285525912537,-6.862647862517632,-106.32371408345031,1
1767557472.0439968,2,right_wrist,-0.0195,-0.8896,-0.4407,-7.07,-6.86,2.03,0.024396965848415098,-0.06964789449267642,-0.8476172761645394,0.5254511509146544,-116.5410083704383,1.824293762380117,171.73329128981078,1
1767557472.09904,1,left_wrist,0.1806,0.5422,-1.0116,92.33,-43.68,-45.43,0.08025728190940398,0.6075075122687988,-0.7891423554183556,-0.04180591013552291,170.56270633265254,-4.351443756031666,-104.46015002006283,1
1767557472.09904,2,right_wrist,0.0522,-1.3459,-0.3314,-75.74,-5.11,42.42,0.007477999702653015,-0.08672362368787777,-0.8670759768253289,0.4905123270900458,-121.33475318214853,4.135189126512728,170.90106396313732,1
1767557472.1517599,1,left_wrist,0.1283,0.2738,-1.0009,123.62,-56.84,-64.68,0.030870502085722618,0.6316440203864059,-0.7744186200193041,-0.018672026629958437,176.10442695815672,-1.3881395379793877,-101.5489144976173,1
1767557472.1517599,2,right_wrist,0.0371,-1.1707,-0.5563,-89.39,-3.22,92.33,-0.014286105225167253,-0.11959255692012355,-0.8803327559451035,0.45881125349853974,-125.72625091010887,7.752483221830316,168.50545727425052,1
1767557472.2445052,1,left_wrist,-0.0961,-0.0024,-0.8999,71.89,-52.22,-94.92,-0.05417515596447045,0.6889221633184182,-0.7228072522460695,-0.0009906893473004298,-175.78804394720706,4.5702532379318885,-92.58181011632077,1
1767557472.2445052,2,right_wrist,-0.1205,-0.9999,-0.406,-48.93,16.17,147.49,-0.039677252754887246,-0.17847774604305533,-0.8790233725268122,0.44032865036561564,-128.7107326074698,13.116524247132402,163.36345520811815,1
1767557472.303241,1,left_wrist,-0.121,-0.1527,-0.8969,86.31,-45.01,-94.22,-0.09888054088039047,0.7150790956113087,-0.6918219971076974,0.016335543236498322,-170.49792786179447,6.514407700583043,-87.56388656804955,1
1767557472.303241,2,right_wrist,-0.345,-0.4787,-0.4202,159.81,105.42,177.38,-0.030389734167987972,-0.34891678345388755,-0.7971764294768062,0.4917756425119108,-123.99550200422952,23.055930351471677,145.10288248266585,1
1767557472.3612921,1,left_wrist,-0.1313,-0.3455,-0.8662,71.19,-37.52,-85.96,-0.13543076102303264,0.736999819367465,-0.661386936881601,0.03251299653091582,-165.83302788367675,7.540104482829723,-82.8715930885314,1
1767557472.3612921,2,right_wrist,-0.2655,-0.3523,-0.507,268.59,147.07,130.27,0.032169679626716234,-0.42631488544370816,-0.7161567033527033,0.5516704690345683,-115.45872991358836,25.105958925155882,134.477899548097,1
1767557472.444315,1,left_wrist,-0.1049,-0.4368,-0.8374,70.49,-28.77,-65.17,-0.2009659151550959,0.7635318665942892,-0.6098221677194469,0.06891090914267671,-156.7455034024743,8.04064723535145,-75.57064213112508,1
1767557472.444315,2,right_wrist,-0.2494,-0.752,-0.5451,210.84,124.81,56.84,0.0976954122549768,-0.46826018255006746,-0.6518124232578351,0.5884968757344905,-108.55675678091607,25.073538042188638,126.78433098576369,1
1767557472.5022311,1,left_wrist,-0.0039,-0.4314,-0.8579,45.78,9.8,-71.75,-0.21019900828163585,0.7782461808753973,-0.5840138873832739,0.09527349166348321,-153.86150827975783,5.5794429625644115,-72.47462661761989,1
1767557472.5022311,2,right_wrist,-0.2372,-0.7871,-0.4412,113.19,73.99,15.4,0.13908190393711803,-0.4859496116658925,-0.6180363307459839,0.6021131893564826,-105.0358281681556,24.410920783397344,122.48140599593111,1
1767557472.55341,1,left_wrist,-0.0664,-0.4719,-0.8013,23.17,-17.64,-40.95,-0.22338754775586547,0.7866576773393076,-0.5663553340219503,0.10251506140871097,-151.9943057775115,5.264000073416058,-70.19050319525044,1
1767557472.55341,2,right_wrist,-0.2416,-0.6364,-0.4509,91.21,7.35,-15.89,0.18284152359684006,-0.4825515934764212,-0.5945311083138405,0.6166406555922737,-100.74619776242167,22.192025207442207,120.31950042339801,1
1767557472.640189,1,left_wrist,0.08,-0.7491,-0.9096,23.59,-22.89,8.61,-0.231378287927416,0.7893158723698123,-0.5585637390617971,0.10700977014350023,-150.87213240467597,5.137720788567896,-69.23503181846303,1
1767557472.640189,2,right_wrist,-0.123,-0.997,-0.3421,151.55,0.49,6.86,0.21492172732346684,-0.470457278306322,-0.5540820101362522,0.6522819378583736,-93.50585323726617,22.05973493685204,120.11148118626399,1
1767557472.7031791,1,left_wrist,0.0874,-0.3401,-0.9004,54.39,-46.76,9.24,-0.2572479442510756,0.7847313386642436,-0.5541531476100988,0.1045682087952153,-148.4339916271833,6.949450386387344,-68.49063773756511,1
1767557472.7031791,2,right_wrist,-0.3626,-0.9672,-0.0015,53.9,-6.3,4.9,0.23765856822442813,-0.45136990644495745,-0.5161611323329625,0.688012571087287,-86.30727999066868,22.07105265366187,121.16400839843259,1
1767557472.797259,1,left_wrist,-0.0415,-0.2977,-0.9199,48.93,-74.69,17.78,-0.29625416876304433,0.7845371347042677,-0.5385106259583284,0.08210516116849548,-145.69721649778896,10.966962232002388,-65.53781053271102,1
1767557472.797259,2,right_wrist,-0.3514,-0.9496,-0.0473,54.53,-4.69,6.23,0.24528147417140067,-0.44675768191354426,-0.5014469037616924,0.69913916696703,-83.92691405918079,22.253200426936584,121.27567055341673,1
1767557472.848481,1,left_wrist,-0.0473,-0.7305,-0.8032,46.48,26.25,-0.56,-0.3068259126020499,0.7775716537906738,-0.5384580788611806,0.10631594370687017,-143.1384931535797,9.50241948398322,-66.23101023163134,1
1767557472.848481,2,right_wrist,-0.4036,-0.9487,0.2181,66.36,-12.95,8.54,0.2532039853571418,-0.43579590546291824,-0.47849238635073715,0.7190373472813442,-79.87725188351322,22.606167968453928,122.20033493405833,1
1767557472.8994172,1,left_wrist,-0.1064,-0.7017,-0.7886,0.84,9.8,-8.05,-0.30591580172691935,0.7787381507187243,-0.535516746749317,0.11490965503379337,-142.67994027549742,8.550264866853722,-66.13824654232097,1
1767557472.8994172,2,right_wrist,-0.4753,-0.9775,0.203,25.41,12.81,3.36,0.26086698235851774,-0.4435892158589615,-0.4522210119667219,0.7284731851101908,-77.4953772241915,24.226611817171214,121.04953139282382,1
1767557472.951097,1,left_wrist,-0.0913,-0.5563,-0.7974,8.61,7.56,-0.84,-0.302938389522074,0.7788927464656586,-0.5356030235923771,0.12117682441646446,-142.60260116708133,7.801524608233193,-66.3843692080461,1
1767557472.951097,2,right_wrist,-0.3631,-0.9819,0.0678,-13.58,-4.9,0.91,0.2574355535312634,-0.4444838921187903,-0.4598249288580535,0.7243770014472227,-78.50643680056417,24.028891466444602,121.14040062934099,1
1767557473.004072,1,left_wrist,-0.1127,-0.6349,-0.7876,3.01,21.63,-10.99,-0.2993234094661956,0.7798153262813282,-0.5329870710315054,0.1349753146154315,-142.09566076098818,6.232276603745193,-66.5615498321126,1
1767557473.004072,2,right_wrist,-0.3387,-0.8804,0.1093,-16.59,2.03,-9.73,0.258650249880143,-0.44514575603245155,-0.46980656331920573,0.7170962956154732,-79.82537184202549,23.29052260451774,120.76900989692994,1
1767557473.098243,1,left_wrist,-0.163,-0.5026,-1.0746,110.04,-34.3,16.59,-0.3411181708115096,0.7636668406701652,-0.5258946961613166,0.15455134600660875,-136.46765321886278,7.049858009160919,-66.28812352324066,1
1767557473.098243,2,right_wrist,-0.3206,-1.0799,0.0664,-41.3,2.59,-18.97,0.2584461742673021,-0.4462101956442129,-0.4892313866212774,0.7033880057652184,-82.36978473870144,22.014290649469487,120.33302965603681,1
1767557473.191338,1,left_wrist,-0.0834,-0.7544,-0.8755,-31.85,-8.4,-9.66,-0.3268204154425204,0.7746559393481055,-0.5181082068818529,0.15703654875332015,-137.76805707172687,5.471930338364956,-65.43652084659104,1
1767557473.191338,2,right_wrist,-0.2801,-1.1273,0.0839,-45.99,5.6,-18.06,0.2608659234261393,-0.4423989591052796,-0.5238575656266553,0.6795626401688863,-86.37598329897854,19.14515010897081,120.00832582030802,1
1767557473.250693,1,left_wrist,-0.0839,-0.6222,-0.9043,-3.64,-18.62,-2.8,-0.32587275892246254,0.7783827474379871,-0.5155764734623061,0.1486880744892665,-138.37379179752008,6.001367036429082,-64.75543803299838,1
1767557473.250693,2,right_wrist,-0.4202,-1.0458,0.2391,25.9,14.56,11.27,0.264172972506438,-0.44833936176805916,-0.511742585586622,0.6836109883432542,-85.46868414201721,20.035500297457098,119.20518868810692,1
1767557473.30401,1,left_wrist,-0.0839,-0.6222,-0.9043,-3.64,-18.62,-2.8,-0.3247629263693005,0.7820835451118036,-0.5129232802692942,0.14065588746721122,-138.9672204200455,6.496794159194715,-64.08368222088042,1
1767557473.30401,2,right_wrist,-0.3187,-0.9248,0.1279,-11.62,15.33,7.77,0.26455739842717346,-0.4537276254651074,-0.5105842799363771,0.6807674477448904,-85.91035232998814,20.34109750291385,118.5610801574301,1
1767557473.395272,1,left_wrist,-0.124,-0.4738,-0.7754,34.23,0.35,-10.64,-0.3322111642500888,0.779149146737324,-0.5100057928319544,0.1498547322040573,-137.60101682824396,6.0468054824845545,-64.06772724124399,1
1767557473.395272,2,right_wrist,-0.2635,-0.974,-0.0122,-17.71,4.2,3.92,0.2621955951974679,-0.4574359953174277,-0.5176471252277777,0.6738302707584582,-87.21605283622121,20.18294638112172,118.23307380553095,1
1767557473.448234,1,left_wrist,0.163,-0.5075,-0.8291,-101.15,35.56,-3.08,-0.285183387196962,0.7928800751639196,-0.519582612396971,0.14158224101088285,-143.06473382455488,4.119515767700974,-65.09817969600435,1
1767557473.448234,2,right_wrist,-0.2948,-1.0248,-0.0971,-47.67,1.05,-8.4,0.2556447316710032,-0.46180252094894253,-0.535733226379692,0.6590706433811689,-90.03303636628465,19.560754436462272,118.02696116858986,1
1767557473.503316,1,left_wrist,-0.0063,-0.3977,-0.9087,14.35,57.89,-42.07,-0.27005424274799983,0.7979943710140633,-0.5116768955269181,0.16870816336979322,-142.8670256944087,0.40707296022306916,-65.1995503214139,1
1767557473.503316,2,right_wrist,-0.2152,-1.0463,-0.3792,-53.55,-26.74,-14.49,0.2348409338929599,-0.45581343436348787,-0.5782057312153355,0.6346353135555757,-95.07421155520555,17.877196098224186,119.882543637801,1
1767557473.557605,1,left_wrist,-0.0063,-0.3977,-0.9087,14.35,57.89,-42.07,-0.25520445276270914,0.8022777712815307,-0.503372017082583,0.19451909267688328,-142.6815379941884,-3.163826289205636,-65.27929970778906,1
1767557473.557605,2,right_wrist,-0.1796,-1.2039,-0.4006,-88.55,-77.07,10.08,0.1955465941998979,-0.44570870072359925,-0.6104749914453496,0.6248404343637678,-98.65568586484603,18.556582865584108,123.7154453271462,1
1767557473.609035,1,left_wrist,0.0088,-0.571,-0.7706,22.96,12.25,-34.58,-0.2589236756973603,0.8058672162175688,-0.4921856196917534,0.2031991037326669,-141.75874246609,-4.164828451382537,-64.27366774156157,1
1767557473.609035,2,right_wrist,-0.0922,-1.1063,-0.4387,-164.85,-113.61,-2.73,0.13506221704592558,-0.42605218507090753,-0.665760418751423,0.5974954375950281,-105.32254082386906,19.225706302083942,129.48994580785768,1
1767557473.6962402,1,left_wrist,-0.0459,-0.5183,-0.8237,27.3,4.2,-64.82,-0.2535426604107844,0.8253563456245058,-0.4553601018817687,0.21714096735394756,-141.58489511595386,-7.326937237333783,-60.32786740607278,1
1767557473.6962402,2,right_wrist,-0.4124,-0.6817,-0.0547,-53.55,-112.91,7.7,0.08826491926283596,-0.40193008930895024,-0.6816588620778885,0.604981572517959,-105.73754882018316,21.468365691143863,135.2859065219395,1
1767557473.753013,1,left_wrist,-0.0185,-0.4929,-0.8364,9.31,7.35,-89.18,-0.24589550312184297,0.841385207971095,-0.42438611300125456,0.22694219626058837,-141.99636648970267,-9.972898878453096,-56.97378187636859,1
1767557473.753013,2,right_wrist,-0.8696,-1.1561,0.4558,-31.01,-19.88,30.17,0.034010066853475046,-0.3870249204311721,-0.6721811223118545,0.6302599187045317,-103.09583343854169,26.239909950568453,141.10654946747212,1
1767557473.805834,1,left_wrist,0.1308,-0.5836,-0.8169,37.66,-6.16,-86.17,-0.25112390646032556,0.8539897715773396,-0.3894593206236879,0.23655800816020725,-141.175024425571,-12.030429263641272,-53.28363433673355,1
1767557473.805834,2,right_wrist,-0.7139,-0.7837,0.3567,-103.11,68.25,25.06,0.028678319564149648,-0.41410132142985734,-0.6924313008598546,0.5901157032028143,-109.74632600654618,26.6808160932848,137.18034346530354,1
1767557473.894162,1,left_wrist,0.2245,-0.7764,-0.7671,26.32,-16.38,-73.64,-0.2678142105405285,0.8716579522691983,-0.3246937583266035,0.25112133756844834,-139.22374446928453,-15.299736656003619,-46.57645939785488,1
1767557473.894162,2,right_wrist,-0.426,-0.5392,-0.1859,-45.71,118.3,22.33,0.04666104648720071,-0.4532876537281304,-0.6956884488898094,0.5553112926995604,-114.9357059803891,26.008750103156785,130.58637235752255,1
1767557473.95025,1,left_wrist,0.3172,-0.7462,-0.7032,2.94,-20.37,-23.45,-0.27182207380977963,0.8754591810322957,-0.31244768073861356,0.24911930743536168,-139.05921629383158,-15.445831149685421,-45.07862570053413,1
1767557473.95025,2,right_wrist,-0.1274,-0.5885,-0.3938,51.38,119.84,-15.19,0.1452150693196451,-0.5002430993742653,-0.6755791242154261,0.5217875737263562,-115.92265386014577,19.016033157617787,118.92980007837028,1
1767557474.040438,1,left_wrist,0.3016,-0.7281,-0.6539,18.55,-11.83,15.61,-0.2976772378574582,0.8663804660398211,-0.316223332745944,0.24652779549824574,-136.23113367996297,-13.822143230571738,-45.67830423470433,1
1767557474.040438,2,right_wrist,0.0059,-0.651,-0.4685,58.87,90.58,-19.11,0.19131780522537808,-0.5100971359074045,-0.6623102369282103,0.5143379816841307,-114.40634942242244,15.741709367674313,114.97563851219732,1
1767557474.096234,1,left_wrist,-0.0551,-0.1708,-0.8062,36.47,38.29,-40.32,-0.2989740385429824,0.8644253484829949,-0.30298859013972723,0.26754673502491627,-134.96022225077417,-16.34240046151057,-45.44617628524148,1
1767557474.096234,2,right_wrist,0.0542,-0.8398,-0.487,96.11,50.61,-5.81,0.2313056762143201,-0.5098814596652599,-0.63949011309401,0.5268500512438719,-110.37433009286568,13.970764207891824,112.60701349523235,1
1767557474.154602,1,left_wrist,-0.0551,-0.1708,-0.8062,36.47,38.29,-40.32,-0.30025718334199214,0.8619422645073116,-0.2895036419749943,0.288251275436476,-133.67300754209987,-18.848131552139268,-45.25566913248928,1
1767557474.154602,2,right_wrist,-0.06,-0.9321,-0.4426,14.98,-56.56,0.07,0.2422767399429714,-0.4907196540941938,-0.6224360686555015,0.559526177050694,-105.34929812282665,14.331837162050096,114.4483524066668,1
1767557474.247734,1,left_wrist,0.4582,-1.1405,-0.6437,-152.95,-100.24,-41.72,-0.24631253910980241,0.9041478628553314,-0.27250531099303843,0.21814589304409646,-144.23703343584916,-15.08367055228893,-38.43688840505718,1
1767557474.247734,2,right_wrist,-0.2704,-0.7813,-0.2699,9.17,-18.55,-0.28,0.23592942454540952,-0.48780462289910637,-0.62222350606216,0.5649972256707511,-105.00905997804675,14.92858270637486,115.28913689202402,1
1767557474.30526,1,left_wrist,0.222,-0.3436,-0.8633,-64.89,-53.48,0.49,-0.22304243895326753,0.9169006109544057,-0.27295325216910615,0.18719471730666906,-148.38357257979212,-12.79818359982547,-36.793033708329794,1
1767557474.30526,2,right_wrist,-0.2855,-0.9862,-0.2167,-14.49,-20.23,-2.17,0.2264127546068172,-0.476745604618057,-0.6264342533539291,0.5736122551459495,-104.36908338691833,15.264111916801628,117.32889239549195,1
1767557474.390996,1,left_wrist,0.3353,-0.5241,-0.8711,-11.34,-5.18,25.76,-0.22000028235396088,0.9154828920809069,-0.27831794672663124,0.18981588606127792,-148.5427028295922,-13.007955253306369,-37.49776459575642,1
1767557474.390996,2,right_wrist,-0.265,-1.0194,-0.4553,-13.23,13.72,1.89,0.22614451221643694,-0.4831475882690337,-0.6299479236114123,0.5644401483610785,-105.65525734983159,15.099569890063686,116.50407731874391,1
1767557474.4457998,1,left_wrist,0.3353,-0.5241,-0.8711,-11.34,-5.18,25.76,-0.2162504873449831,0.9138490399400354,-0.287631394210036,0.1881059275741299,-148.93408393320223,-12.673793640044941,-38.47841270427498,1
1767557474.4457998,2,right_wrist,-0.3645,-0.9374,-0.1693,-16.31,13.02,0.35,0.22493927232617028,-0.48838853036815716,-0.6302003220691118,0.5601129539960601,-106.33780675211389,15.283298926610604,115.92667518249378,1
1767557474.500387,1,left_wrist,0.1845,-0.6271,-0.8086,12.25,-25.62,-20.3,-0.22689919663168517,0.9160485238922157,-0.27652674760368257,0.18139684204119386,-148.1680035518926,-11.937772385250202,-37.010410711947436,1
1767557474.500387,2,right_wrist,-0.1508,-0.815,-0.4724,6.3,-6.86,-20.23,0.22725925778156453,-0.4819848197938676,-0.6425599207164135,0.5506002284141932,-107.39933153339354,13.810210845306864,116.42016948562232,1
1767557474.5540538,1,left_wrist,0.1845,-0.6271,-0.8086,12.25,-25.62,-20.3,-0.23743846261988985,0.9179766252261431,-0.26522087563572977,0.1749279255411817,-147.37852794002606,-11.257121131750678,-35.53384397497104,1
1767557474.5540538,2,right_wrist,-0.2362,-0.7535,-0.5427,5.18,-22.82,-33.04,0.22822316415849805,-0.46838556595827624,-0.6521001609185965,0.5507218254921165,-107.24057014959935,12.606360822462273,117.92718005238339,1
1767557474.6042519,1,left_wrist,0.1532,-0.5363,-0.875,1.82,0.07,3.15,-0.23820681466210986,0.9179479825020972,-0.26764538331889204,0.1702790758048218,-147.4683798173607,-10.667240179157568,-35.630779427109964,1
1767557474.6042519,2,right_wrist,-0.1869,-1.0019,-0.2684,48.3,-25.76,-6.23,0.23544118288968446,-0.4528988854691001,-0.6439336955371566,0.5699117867637181,-104.19142911229014,12.298675743681642,119.35036013715742,1
1767557474.657177,1,left_wrist,0.1532,-0.5363,-0.875,1.82,0.07,3.15,-0.2387102273429751,0.9179598492984457,-0.270031913470787,0.16568013805265108,-147.58642229741034,-10.093595069051943,-35.724826692361106,1
1767557474.657177,2,right_wrist,-0.3152,-0.9838,0.0351,15.61,-9.73,-2.59,0.23662627975044512,-0.44749393156622436,-0.6395275662417303,0.5785859287606264,-102.92839760163098,12.425461500222712,119.94757763772097,1
1767557474.708249,1,left_wrist,-0.0556,-0.6246,-0.7876,68.39,24.15,-32.97,-0.26391188668236054,0.911822603857816,-0.2554698915321316,0.18348076106848396,-144.06567369364788,-11.522967439715583,-35.05113516358337,1
1767557474.708249,2,right_wrist,-0.2865,-0.978,-0.0142,5.18,14.28,-12.11,0.24494374303146701,-0.44650468943815486,-0.6370413664978377,0.578631508328089,-102.41112049349425,11.808705035301008,119.4509295410019,1
1767557474.7934139,1,left_wrist,0.1669,-0.469,-0.8267,-46.34,-31.85,2.73,-0.24523960327680314,0.9156775021493156,-0.27914578097472187,0.1531988316085961,-147.29911608878095,-8.258894134280629,-36.33466194610511,1
1767557474.7934139,2,right_wrist,-0.1547,-0.9589,-0.283,-7.49,18.76,-4.69,0.2504575974355652,-0.45072582529503236,-0.6402914432556266,0.5693365349180948,-103.3303955744188,11.098579979125608,118.49998518339733,1
1767557474.8461921,1,left_wrist,0.2133,-0.2767,-0.8569,-8.96,-45.78,-22.19,-0.24101276417004275,0.9234934706004345,-0.265528003121623,0.13626274921534207,-148.56607255944493,-7.104778790479764,-34.08429028413579,1
1767557474.8461921,2,right_wrist,-0.08,-0.7823,-0.4231,-9.8,5.88,-15.26,0.2536216681407993,-0.449700227374382,-0.6473914718293975,0.5606514399798452,-104.27253278272995,10.12900841480856,118.31271339044518,1
1767557474.902795,1,left_wrist,0.2133,-0.2767,-0.8569,-8.96,-45.78,-22.19,-0.2366491019684209,0.9307398964186214,-0.2517505923541601,0.1197584527351744,-149.7658679179666,-5.956584251105393,-31.88133518002995,1
1767557474.902795,2,right_wrist,-0.0351,-0.8281,-0.3855,-4.69,-26.67,-21.91,0.24968711207585575,-0.42977641166134034,-0.6733453063747178,0.5473158872405028,-106.18408962742008,7.7121094309899485,120.69812922682642,1
1767557474.997779,1,left_wrist,0.3274,-0.4856,-0.8032,-158.9,-20.3,39.76,-0.11470080843370832,0.9478910644484887,-0.28708342823648647,0.07700233577853806,-164.78131504266702,-4.595592669458574,-34.313761095711236,1
1767557474.997779,2,right_wrist,0.1479,-1.0858,-0.4329,-30.38,-66.36,2.03,0.22658105186323219,-0.4159599232129864,-0.6895207106857193,0.5479046986042907,-107.45889208836078,8.241635137024613,123.85061981341063,1
1767557475.049927,1,left_wrist,0.3172,-0.3333,-0.8272,-198.45,-28.49,60.76,-0.038363362737247476,0.9471766296466801,-0.3156849324557805,0.04156570787362217,-174.3147012455471,-3.1252387856634,-37.02069578481559,1
1767557475.049927,2,right_wrist,0.0903,-0.69,-0.4875,-81.83,-121.45,-37.31,0.14227965062524822,-0.34772022938570796,-0.764641328994266,0.5236131979694463,-114.560859998046,8.42739411872799,136.5128112840624,1
1767557475.100267,1,left_wrist,0.2547,-0.1923,-0.8467,-174.51,-37.24,89.04,0.026308683449093345,0.9350038882374724,-0.35362180190069253,0.005215685620401855,177.3905934087655,-1.625127392150823,-41.39657793875639,1
1767557475.100267,2,right_wrist,0.0903,-0.69,-0.4875,-81.83,-121.45,-37.31,0.14227965062524822,-0.34772022938570796,-0.764641328994266,0.5236131979694463,-114.560859998046,8.42739411872799,136.5128112840624,1
1767557475.153715,1,left_wrist,0.2547,-0.1923,-0.8467,-174.51,-37.24,89.04,0.08941520496622808,0.9160923974571668,-0.38959511311752487,-0.031548189757430546,169.1393796894806,-0.6800790684344472,-46.013437855786634,1
1767557475.153715,2,right_wrist,0.0605,-0.7618,-0.1806,-16.87,-156.66,-99.19,0.0815261554622906,-0.2159290692324699,-0.8047739987713097,0.5468701252926269,-112.99998689192057,6.024288967122877,153.95086246012565,1
1767557475.2401412,1,left_wrist,0.061,0.4221,-0.5675,-237.58,-39.62,137.27,0.2615346536040606,0.8271847571193262,-0.4803533102615641,-0.12894068355023897,146.1548567971628,-2.174469199463064,-59.62654624434076,1
1767557475.2401412,2,right_wrist,0.0181,-0.7281,-0.1698,-4.9,-140.98,-123.27,0.06302709285334455,-0.1367527892857561,-0.8185869866109261,0.5542937899167419,-112.21079840682113,2.7751247024095003,162.89617874238263,1
1767557475.291402,1,left_wrist,0.061,0.4221,-0.5675,-237.58,-39.62,137.27,0.3483682538304076,0.7617785875583206,-0.5174077643294379,-0.17499185316012802,134.35667898147742,-5.38725093127864,-66.10112766257082,1
1767557475.291402,2,right_wrist,0.0742,-0.8808,-0.0283,12.95,-119.14,-133.28,0.054572540876345534,-0.0585466847298663,-0.8225300713802937,0.5630616353158598,-111.1044482771774,-1.366308838278769,170.92001686007214,1
1767557475.3440902,1,left_wrist,0.1425,0.833,-0.3631,-164.85,-14.7,135.38,0.41150307515145057,0.7003851152091415,-0.5489817976568829,-0.1968372306648171,126.37792260661837,-10.142192396899429,-71.04509038742387,1
1767557475.3440902,2,right_wrist,0.063,-0.9897,-0.0332,28.14,-99.61,-132.65,0.052545357387391266,0.014782408453679436,-0.8172869164998885,0.5736397492638077,-109.76396073562687,-5.903241995700042,177.91891235260294,1
1767557475.401192,1,left_wrist,0.1425,0.833,-0.3631,-164.85,-14.7,135.38,0.47057348005806654,0.6329080789376583,-0.575039724428544,-0.21752535211011073,118.66912291479049,-15.417453157450474,-75.33700302622402,1
1767557475.401192,2,right_wrist,0.1225,-1.0067,0.0478,14.77,-57.33,-127.05,0.0666006807910143,0.13937271031247742,-0.7955239407769888,0.5859020878858323,-108.43617010684355,-15.621569705081154,-171.41841134901918,1
1767557475.455186,1,left_wrist,0.4524,0.8281,-0.2523,-60.06,8.68,143.08,0.5048419483138463,0.5819109647857346,-0.6056314552015976,-0.199310754238728,116.3621926411536,-22.30482679319014,-78.34064778561887,1
1767557475.455186,2,right_wrist,0.2211,-1.0228,-0.1362,-31.64,-35.0,-144.34,0.09240193925358584,0.19619109426178777,-0.7924412797096957,0.5700945135384121,-110.99955080000065,-21.724322930669864,-167.21448120404122,1
1767557475.540787,1,left_wrist,0.6456,1.0214,-0.3265,-22.05,15.82,126.0,0.5647799993581525,0.4796618489910262,-0.6507484475385396,-0.16575439956060284,112.06718538866637,-35.17300773158003,-83.1069153158267,1
1767557475.540787,2,right_wrist,0.4094,-0.9233,-0.1488,9.66,-27.3,-138.6,0.11711919474744442,0.2506750915128515,-0.7757732180286527,0.5671163962593588,-111.85241467630628,-27.777535488501652,-163.17505398863548,1
1767557475.591421,1,left_wrist,0.6886,0.8657,-0.365,-5.81,34.79,96.25,0.5820214129108949,0.45125727320895853,-0.6633922443648548,-0.13239591536668271,112.29768083972641,-40.747579139452334,-83.5759456046015,1
1767557475.591421,2,right_wrist,0.4778,-1.1224,-0.2089,23.59,-23.31,-129.08,0.13727019249999567,0.2993287482602191,-0.7544131997043722,0.5678203226618396,-112.2874558862376,-33.16464490489533,-159.31090203364042,1
1767557475.645876,1,left_wrist,0.6886,0.8657,-0.365,-5.81,34.79,96.25,0.5961700433428736,0.42641436566928587,-0.6719576019652157,-0.10594833331663919,112.28441019727178,-45.303806474034296,-83.92004702357252,1
1767557475.645876,2,right_wrist,0.5026,-1.0146,-0.225,-17.29,-14.28,-119.42,0.16229624966932013,0.3385835545127584,-0.7422943405084411,0.5549956900786872,-114.88902183299048,-38.08049909972694,-155.8126869052556,1
1767557475.7003179,1,left_wrist,0.7022,0.8189,-0.3899,16.1,41.79,51.45,0.6050384477187535,0.4200692143699072,-0.6712966270506153,-0.08265089492072607,112.31649615370401,-47.97752945816794,-82.70004391339992,1
1767557475.7003179,2,right_wrist,0.6427,-0.9726,-0.2616,13.16,-9.8,-88.83,0.19774494280571972,0.40119677977763746,-0.7144967306310244,0.5379893153292117,-119.33918613264254,-45.58220902755841,-148.99324390730575,1
1767557475.78958,1,left_wrist,0.7832,0.669,-0.2664,-13.02,26.18,21.84,0.6211604328150271,0.4105432047052728,-0.6644495400260023,-0.0641934773525061,110.2879310455242,-50.60158534811392,-80.13234182479967,1
1767557475.78958,2,right_wrist,0.7027,-1.0043,-0.2996,4.62,2.1,-68.11,0.21086946034635162,0.4197274163227111,-0.7013471074913106,0.5361671395132976,-120.30579002689555,-48.234178210832944,-147.01545230415243,1
1767557475.8442812,1,left_wrist,0.7837,0.6339,-0.1972,-25.48,18.34,14.56,0.6335721435388116,0.4001533917318238,-0.6588158599546489,-0.06652266297563081,107.57117743523769,-51.40511954351045,-78.62134168444001,1
1767557475.8442812,2,right_wrist,0.7208,-0.8945,-0.2967,-4.62,7.84,-45.64,0.22201280456864028,0.4288498954456936,-0.6937434256066186,0.5343389759425925,-120.94873406575284,-50.02655500551132,-146.15909727396198,1
1767557475.897193,1,left_wrist,0.7837,0.6378,-0.1459,-12.46,22.68,12.25,0.6448154695846118,0.39394791599703216,-0.6517923545438401,-0.06468984637614208,105.11993436394553,-52.148401109482315,-76.6231198030187,1
1767557475.897193,2,right_wrist,0.7344,-0.7227,-0.3523,-36.26,13.58,-21.63,0.24461208674850454,0.4260932599229369,-0.6977056561645764,0.5213600274481586,-122.97033337217816,-51.77902578911234,-146.71825927328644,1
1767557475.957495,1,left_wrist,0.8169,0.5261,-0.1274,5.74,28.35,12.67,0.6538471173350451,0.38974601807039305,-0.6464736219603832,-0.051515479812850824,103.62296373123675,-53.63285249597536,-74.46238542164255,1
1767557475.957495,2,right_wrist,0.7442,-0.5666,-0.3348,-19.67,8.82,-21.7,0.2521538724596159,0.42614433377300087,-0.6987160731053456,0.5163480227337278,-123.83367289693835,-52.4146377443341,-146.67335881330882,1
1767557476.0417778,1,left_wrist,0.8969,0.4587,-0.0878,3.43,30.52,28.49,0.6755752150136803,0.36895933405344983,-0.6379152066694763,-0.02305054823412486,99.266391168869,-57.66229183020631,-69.75859020456939,1
1767557476.0417778,2,right_wrist,0.7096,-0.529,-0.2743,-5.25,5.18,-16.66,0.2566631188919421,0.426983051809335,-0.6961279434163138,0.5169288183717571,-123.70117883702437,-53.013799026891206,-146.8352641760603,1
1767557476.0989408,1,left_wrist,0.9511,0.4231,-0.0952,-2.38,24.99,29.47,0.683034082565725,0.35737511088541196,-0.6369410849039224,-0.007316183065810745,97.64962817104286,-59.86851435587924,-67.9436378851806,1
1767557476.0989408,2,right_wrist,0.6817,-0.5017,-0.3148,-22.47,13.09,-18.55,0.26506624025145287,0.4251103228841438,-0.6982411749644939,0.5113515065397786,-124.5497521630111,-53.60271675377308,-147.0694301669361,1
1767557476.151314,1,left_wrist,0.9814,0.407,-0.0996,-2.17,18.9,31.43,0.6878716184489564,0.34544956731390314,-0.6383058411368123,0.007930078541678447,96.56627256338635,-62.08264202579049,-66.72503299044824,1
1767557476.151314,2,right_wrist,0.7305,-0.3753,-0.286,-13.93,24.64,-26.11,0.30256985884530285,0.4276101101492937,-0.6923965103797748,0.4961735045630235,-127.1493557792779,-57.493900566665054,-147.09987097771742,1
1767557476.201449,1,left_wrist,1.0092,0.3826,-0.1122,-7.0,9.59,27.02,0.6900407744644723,0.33369680633579724,-0.641981724239141,0.01869857643512498,96.14380795418671,-63.95721447777523,-66.50683178366837,1
1767557476.201449,2,right_wrist,0.853,-0.3548,-0.2284,-15.82,27.51,-29.68,0.32325715228328333,0.42876204265239226,-0.6842088008991093,0.49348377992640585,-127.3630607024996,-59.94270802185627,-147.69425751415582,1
1767557476.28965,1,left_wrist,0.9248,0.366,-0.0508,-25.62,-4.9,10.57,0.6932192214610617,0.3049853428414685,-0.6527565304884162,0.01843810059406122,95.4739322306268,-66.38436518458933,-68.45113219659372,1
1767557476.28965,2,right_wrist,1.015,-0.3489,-0.2474,-10.22,28.7,-26.25,0.3426655772452256,0.42964011424032306,-0.6749632644742476,0.49235583272367683,-127.13475736174954,-62.33099825025546,-148.5105898201335,1
1767557476.345302,1,left_wrist,0.8452,0.3714,-0.06,-8.12,4.27,5.39,0.6929250139070446,0.3023025741846189,-0.654329373371124,0.0179206553180148,95.6414696289023,-66.58307952619526,-68.90087988834851,1
1767557476.345302,2,right_wrist,1.0453,-0.3636,-0.2435,0.7,18.2,-18.48,0.3549369536414458,0.43161319720225944,-0.6661818464845674,0.49389427447074735,-126.4962902826722,-64.05935419736451,-149.1275183059501,1
1767557476.398278,1,left_wrist,0.8281,0.3157,-0.082,4.48,14.35,2.45,0.694092876413188,0.3021758953882588,-0.6529698878317619,0.023561255139473134,95.19777967190012,-67.02610498999101,-68.00996557727285,1
1767557476.398278,2,right_wrist,0.9394,-0.2782,-0.2484,17.22,-2.66,-1.75,0.3653447554256509,0.43652604885103496,-0.6565846119734372,0.4948382217221767,-126.3325597548175,-65.75237063574075,-148.97671292100395,1
1767557476.45567,1,left_wrist,0.795,0.2918,-0.0942,17.36,14.28,1.33,0.6933998135599927,0.30653325973013573,-0.6513053069773319,0.032178507382226856,95.41495583733388,-67.36235466727871,-67.13920281513109,1
1767557476.45567,2,right_wrist,0.8311,-0.285,-0.2274,10.78,-12.18,1.96,0.361213601579287,0.44312057998070736,-0.6560533530224723,0.4927097356655874,-127.8403966862337,-65.58984610694466,-146.93486418565683,1
1767557476.547727,1,left_wrist,0.8442,0.3182,-0.0991,16.94,3.15,0.35,0.685518698944104,0.3164866506967783,-0.6541337632445262,0.044825585464912075,98.50371971791184,-67.70083547665094,-68.31597824175928,1
1767557476.547727,2,right_wrist,0.7725,-0.3782,-0.181,27.16,-11.48,13.44,0.3479009432628187,0.4432297216099028,-0.6550278631946826,0.5034390191443817,-125.5613141175921,-64.42857342224673,-147.74456816548036,1
1767557476.5985029,1,left_wrist,1.0365,0.3216,-0.0654,13.93,-16.87,9.66,0.678110029102899,0.3151848172852457,-0.6618307961836389,0.05296523959978445,101.81048303155292,-68.58745130364585,-71.08451137475537,1
1767557476.5985029,2,right_wrist,0.9272,-0.4114,-0.2713,-16.03,-1.12,5.67,0.3391458715000718,0.4307157902642899,-0.667723788413011,0.503595997054029,-124.63459412878997,-62.464557101666095,-149.6466392612329,1
1767557476.654651,1,left_wrist,1.0365,0.3216,-0.0654,13.93,-16.87,9.66,0.6715320897507941,0.3136666893214601,-0.6685286249280945,0.061051929509205974,104.94129842039757,-69.419098273889,-73.69632868923185,1
1767557476.654651,2,right_wrist,1.0634,-0.5651,-0.2957,-50.47,1.12,-7.77,0.3482132068782924,0.42239446981049583,-0.6778633829794729,0.490746073285024,-126.61897006667245,-62.45635256629678,-150.04707886422017,1
1767557476.744092,1,left_wrist,0.9116,0.3655,-0.0947,-0.77,-9.59,11.06,0.6654586557813346,0.3123717256968255,-0.6751176550641095,0.061683338525280816,107.79697072831274,-69.56387628086934,-76.61604802116693,1
1767557476.744092,2,right_wrist,1.0575,-0.3538,-0.3416,-21.42,-9.59,5.32,0.35066838562441366,0.4224078917722701,-0.6839592396687919,0.4804196236247658,-129.0178555875996,-62.31950828002745,-148.7655229318285,1
1767557476.799888,1,left_wrist,0.8486,0.427,-0.0405,-14.07,-15.26,7.98,0.6643927053337053,0.3081530131091565,-0.6786763955622533,0.05497639236741618,108.35856759784305,-69.34113679102815,-78.09959988072569,1
1767557476.799888,2,right_wrist,0.7925,-0.2694,-0.2962,18.9,-25.97,12.11,0.33414475684874784,0.43047392006909585,-0.6955354281527312,0.4682626974201917,-132.915107459426,-60.22345103358264,-144.8539753992092,1
1767557476.852829,1,left_wrist,0.8867,0.3782,-0.0288,0.0,-22.4,8.33,0.6599400948969765,0.30672768983063436,-0.6838123916041713,0.052894314695583096,110.35537749306053,-69.22793995893062,-80.3900219359512,1
1767557476.852829,2,right_wrist,0.7037,-0.4089,-0.2391,-8.75,-14.7,0.7,0.3293229998287787,0.429405995818546,-0.6999185117310639,0.46612329857563395,-133.31570635493117,-59.46408024794911,-144.6321044834504,1
1767557476.9397628,1,left_wrist,0.936,0.429,-0.0737,-41.37,-8.33,-25.69,0.6646332442281259,0.2992029845144181,-0.6844717328878446,0.01544900003146638,107.12770873034815,-66.79342273390725,-80.87087551843415,1
1767557476.9397628,2,right_wrist,0.7398,-0.346,-0.2772,-14.77,5.95,-11.2,0.33552039300659525,0.4271589166414332,-0.6994664808474642,0.46444371885222097,-133.40701223089263,-60.01463484750508,-145.10564073915796,1
1767557476.9913201,1,left_wrist,0.895,0.5207,-0.1825,-88.76,-13.58,-70.56,0.6703537772077183,0.2973889101882091,-0.678863776316146,-0.03646399163826619,102.40547277788023,-62.68159051263167,-80.51486409648031,1
1767557476.9913201,2,right_wrist,0.8828,-0.3875,-0.3157,-12.11,15.82,-9.94,0.3452141554897195,0.4233830827973412,-0.6965081412093729,0.4652422608486936,-132.73950782587897,-61.02608611925989,-146.32982885092892,1
1767557477.047768,1,left_wrist,0.8613,0.8945,-0.1664,-133.98,1.19,-123.13,0.6831449425509808,0.2968798415097741,-0.6571799036792055,-0.11528192127275874,94.11119498072539,-56.04212703390196,-78.67938428208,1
1767557477.047768,2,right_wrist,0.935,-0.3987,-0.345,42.35,8.05,5.32,0.33692389830679226,0.4237545053156347,-0.6877499213841942,0.48364703204970744,-128.785396521942,-60.84841255591512,-148.16150994930462,1
1767557477.104379,1,left_wrist,0.956,0.9775,0.0102,-136.36,7.21,-194.25,0.6893095976786304,0.3131214940327368,-0.6173718767245112,-0.21368007476713052,86.57598455181648,-45.832428027210014,-77.8720845751322,1
1767557477.104379,2,right_wrist,0.8808,-0.5778,-0.1054,295.82,13.79,127.82,0.21214456557218583,0.4279773803040294,-0.6014659601980902,0.6403661015148118,-98.67750185382745,-53.448307591172174,-155.90558854731393,1
1767557477.18973,1,left_wrist,0.8003,1.2503,0.6227,-108.5,74.13,-273.0,0.6812602672369192,0.3845879888721535,-0.46682559987854183,-0.412371660517055,73.55403297101637,-18.59478787512779,-76.32660690806578,1
1767557477.18973,2,right_wrist,0.7442,-1.2864,0.366,347.76,42.14,204.12,0.0978090519175506,0.3859936171650081,-0.5295814565002641,0.7489898516014233,-78.87855287448292,-42.984957367584165,-158.98688956566386,1
1767557477.241156,1,left_wrist,0.57,1.2244,0.5714,-55.44,110.25,-269.92,0.6612441717421985,0.43657262423195914,-0.3745836494894589,-0.48150553334655727,70.17569767486715,-4.298822968360762,-75.14342110800514,1
1767557477.241156,2,right_wrist,0.7188,-1.3952,0.6983,285.18,94.85,253.54,-0.012741041449845204,0.3009541807002876,-0.46715490468005405,0.8312824682472028,-64.00970967956366,-29.238872815291472,-159.7255960104873,1
1767557477.293227,1,left_wrist,0.57,1.2244,0.5714,-55.44,110.25,-269.92,0.6302067332031517,0.4810266476872917,-0.27967431251730934,-0.5415118803480752,67.27477635533319,9.698177131562977,-74.8811711599218,1
1767557477.293227,2,right_wrist,0.6432,-1.3278,1.0448,224.56,168.7,257.88,-0.10099025502075659,0.18049884848833672,-0.4126096384313548,0.8871157874588717,-52.282950964218266,-13.704098994461809,-160.2603847298752,1
1767557477.349293,1,left_wrist,0.1381,0.874,0.3504,-16.31,125.09,-230.72,0.5926397613751265,0.5289502428029786,-0.19529550952367625,-0.5751951128406696,66.84902116993604,22.149180486286614,-73.56683133752574,1
1767557477.349293,2,right_wrist,0.3221,-0.9257,0.8935,108.43,238.21,195.09,-0.18797633028165148,-0.08596144197399991,-0.3560938481866112,0.9113027493820287,-40.12856387156961,16.890780386290054,-162.89809024312638,1
1767557477.4008892,1,left_wrist,-0.0307,0.7388,0.2913,-0.63,120.75,-202.44,0.5516618759883498,0.5719448328790294,-0.12023737723074597,-0.5950556745722748,67.7413344446852,33.231096316352534,-71.68130565278078,1
1767557477.4008892,2,right_wrist,0.0996,-0.6837,0.7261,40.53,240.31,162.68,-0.21057320574197624,-0.2041126653112222,-0.351146146841831,0.8892093839142902,-38.788283164846916,30.722579490513844,-164.402533042979,1
1767557477.457706,1,left_wrist,-0.1728,0.5978,0.225,4.62,110.39,-172.34,0.5120001173920121,0.6073127739677394,-0.055309363612511986,-0.6049528482972489,69.59569524219066,42.69958786392398,-69.11901362311667,1
1767557477.457706,2,right_wrist,-0.1205,-0.5373,0.5241,37.59,212.87,126.0,-0.22055998977055039,-0.30366068388221634,-0.34421810662276325,0.8606145333711485,-38.3956350030183,42.41619423519684,-166.64052900937727,1
1767557477.5406232,1,left_wrist,-0.6061,0.4309,0.2098,-35.07,94.01,-135.52,0.45517926232829575,0.6390011550939044,0.07252855253628863,-0.6158156964562653,70.65843183675105,58.54396769985066,-63.72361241734081,1
1767557477.5406232,2,right_wrist,-0.1879,-0.3016,0.4499,21.77,197.05,88.55,-0.21965355098404526,-0.3881492579481442,-0.34124408963556196,0.8274327419090938,-40.241401612528264,52.39587947191023,-170.70201692967194,1
1767557477.59339,1,left_wrist,-0.5597,0.3889,-0.0898,-12.6,85.26,-75.74,0.434240846648304,0.6590008000376384,0.11322200464799116,-0.6036005386970814,76.3499385965543,63.364637617952226,-56.767034673872615,1
1767557477.59339,2,right_wrist,-0.3933,-0.2962,0.1937,38.29,174.23,67.27,-0.2085201628223655,-0.4623123003965243,-0.33549934148178046,0.793868295414233,-44.37201533526632,60.9205867769152,-177.5396246154485,1
1767557477.656287,1,left_wrist,-0.5597,0.3889,-0.0898,-12.6,85.26,-75.74,0.4131055656500841,0.6771930161316906,0.15296217824460168,-0.5893691394686816,84.57315924462904,67.60997831255187,-47.264004628613755,1
1767557477.656287,2,right_wrist,-0.6168,0.1732,-0.2791,-6.02,14.77,-5.04,-0.2020211345343998,-0.5120258109629618,-0.343287519388041,0.7610326597075588,-52.75472297768528,66.64111763367458,173.62056787314907,1
1767557477.741908,1,left_wrist,-0.7686,0.3558,-0.0439,7.84,-24.85,23.03,0.39702814843557704,0.6948107023851889,0.14385305817360294,-0.58216237842626,91.03048826316164,67.40037447516515,-43.057872968805526,1
1767557477.741908,2,right_wrist,-0.8398,-0.3079,0.0068,16.1,-12.32,-24.36,-0.1914138220280318,-0.507984831894117,-0.34412355287361973,0.7660882061876187,-53.409868215787895,65.51397427355965,172.18756241325406,1
1767557477.794107,1,left_wrist,-0.7862,0.3845,0.0473,-1.54,-27.44,34.86,0.41078464008172705,0.6879998636021516,0.1264899735533342,-0.5847328054306717,87.07634466269498,65.30058682426196,-47.15030074019984,1
1767557477.794107,2,right_wrist,-0.894,-0.2704,0.0996,7.07,-25.97,-30.31,-0.18392982312745057,-0.49827070238650767,-0.34691741407912435,0.7730099838399335,-53.3422039567616,63.89033774032411,171.98558879512368,1
1767557477.848962,1,left_wrist,-0.6695,0.2591,-0.1362,14.35,-39.55,62.86,0.4223838033449305,0.6860622920667427,0.09813304418463889,-0.584192057216678,85.15868535815852,62.18807667869112,-50.27625653206436,1
1767557477.848962,2,right_wrist,-0.7735,-0.3011,-0.0429,0.91,-44.17,-46.13,-0.1662356479641885,-0.46735320197548075,-0.35972858276025577,0.7902797230693002,-53.624976095325664,59.123888805593054,171.76610428385695,1
1767557477.907517,1,left_wrist,-0.5187,0.303,-0.1859,22.82,-59.01,114.45,0.4451971832933852,0.6818399374929572,0.04730681287620864,-0.5784944538046423,83.21572593146838,56.20190492875955,-54.09589355788987,1
1767557477.907517,2,right_wrist,-0.5954,-0.2899,-0.2464,-48.37,-85.96,-89.04,-0.15815115267332228,-0.42228235216681653,-0.38964952489010024,0.8030187268734641,-55.3889656461373,53.26862982425885,172.7874213422268,1
1767557477.9938612,1,left_wrist,-0.2035,0.6329,0.0044,73.71,-84.56,243.32,0.5094482248025278,0.6611910615226483,-0.15044188429224514,-0.5297698800976752,84.48839284244819,33.18016516725136,-61.96152057957215,1
1767557477.9938612,2,right_wrist,-0.469,-0.4002,0.0381,-78.19,-138.11,-133.21,-0.14727799014581305,-0.345686291148105,-0.4333204884097099,0.8191724702742686,-57.62997683469941,43.94682977585502,175.35594473522139,1
1767557478.043913,1,left_wrist,-0.0791,0.8779,0.2303,57.96,-75.67,273.7,0.5491588803677324,0.6314072966088764,-0.2602801078563923,-0.48166753612486074,85.93166840706854,18.807313569607107,-64.9701153434311,1
1767557478.043913,2,right_wrist,-0.3274,-0.6446,0.1279,-138.04,-160.72,-191.73,-0.12641393660957906,-0.2396935100196464,-0.5007087579012061,0.8221053932716671,-63.29444184641856,31.379203405095748,177.8396970941796,1
1767557478.100488,1,left_wrist,0.1186,1.1595,0.1435,60.55,-76.51,274.4,0.5789714912552915,0.5917393644465603,-0.36690933094101635,-0.4242806615277449,88.25017716309947,4.431492996592952,-68.17094902698118,1
1767557478.100488,2,right_wrist,0.0971,-0.876,0.303,-153.16,-116.62,-273.0,-0.02288977329944563,0.0003688110480370753,-0.626782189113038,0.7788581447653857,-77.62127408169297,1.6113296889940167,-177.9293158877669,1
1767557478.1573582,1,left_wrist,0.3836,0.7105,0.1562,119.28,-27.58,298.97,0.5953695093499375,0.5606659290750027,-0.4705525127578007,-0.33131434627585726,94.17722777199796,-10.882289595864597,-69.89114194397928,1
1767557478.1573582,2,right_wrist,0.3484,-1.2029,0.3904,-198.31,-80.15,-289.31,0.05569646806933595,0.11091698267876411,-0.6836198008130594,0.71920740703524,-87.59841337092638,-13.632596995588091,-175.77868239836522,1
1767557478.243045,1,left_wrist,0.814,1.1775,0.0146,100.8,-15.05,291.83,0.6065258312730918,0.46449608160984596,-0.6315049755232491,-0.1325566748864981,107.40477976538311,-40.008709504306225,-77.38664062119754,1
1767557478.243045,2,right_wrist,0.5793,-0.7876,0.1293,-167.02,-36.75,-277.9,0.1418326421540356,0.20237263164616293,-0.7146928746592421,0.6543263058226532,-96.72279764059832,-27.876612397999367,-173.26560286164295,1
1767557478.2966259,1,left_wrist,1.0746,0.8511,0.1118,29.19,31.85,275.66,0.6231919793673883,0.39289672308526913,-0.6748046967538297,-0.04361815080887556,111.8042341483566,-53.7835674754467,-81.68224585779926,1
1767557478.2966259,2,right_wrist,0.9023,-0.9819,-0.0444,-150.92,14.91,-270.34,0.23832414814735092,0.2732557608229471,-0.7244576339802189,0.5862542333789112,-105.46798252804518,-41.736525202796386,-171.0191403038594,1
1767557478.361156,1,left_wrist,1.179,0.7896,-0.181,61.67,42.07,169.68,0.6288971555729423,0.3579680954893696,-0.6896082144210567,0.02806636647266515,116.74641781545144,-62.55815092636798,-84.10827027811503,1
1767557478.361156,2,right_wrist,1.16,-0.7193,-0.1781,-93.59,34.58,-210.84,0.39013751197387647,0.36517473972408887,-0.6953849458449071,0.4804996444437321,-121.38272524641026,-63.3194888999488,-162.77665152877006,1
1767557478.4430962,1,left_wrist,1.0175,0.4529,-0.2596,12.74,20.37,81.83,0.633539355635852,0.311800172560612,-0.7014830640456087,0.09659217415953746,124.53074670387852,-71.63509388909777,-90.5122981043735,1
1767557478.4430962,2,right_wrist,1.2005,-0.5958,-0.243,-127.61,49.7,-168.7,0.45889457871423855,0.38028747432334403,-0.6830759981452392,0.42214261009443077,-134.32989944813386,-71.43999714874518,-155.4808669315472,1
1767557478.5016582,1,left_wrist,0.9867,0.466,-0.2723,0.63,7.14,52.29,0.6324799271872424,0.2987341039926926,-0.7063580726408311,0.1085603520261152,128.15054964257308,-73.41071074942553,-94.3094658831668,1
1767557478.5016582,2,right_wrist,1.0287,-0.2738,-0.2967,7.56,20.02,-70.7,0.5081305944184521,0.41387741449308946,-0.6513058893027176,0.38250414814490863,-157.87559728379924,-78.10210302107735,-133.15643185479328,1
1767557478.5939572,1,left_wrist,0.9272,0.3167,-0.1596,-10.78,-0.63,25.41,0.6342624156271944,0.27738320217078005,-0.7134118715668694,0.10868877027410351,131.12098627562065,-74.85715346906528,-99.1498554507848,1
1767557478.5939572,2,right_wrist,1.0038,-0.3792,-0.2586,11.76,7.42,-43.26,0.5124172213484289,0.42517235810616644,-0.6419882909941486,0.3801421989129982,-164.264331328298,-78.86759530527743,-125.93632856449756,1
1767557478.654111,1,left_wrist,0.9272,0.3167,-0.1596,-10.78,-0.63,25.41,0.6350704560389314,0.2693716834575563,-0.7157702280912966,0.10861580269868189,132.2892376809673,-75.38544231741804,-101.02424659331949,1
1767557478.654111,2,right_wrist,0.9516,-0.3279,-0.1893,10.57,-4.13,-17.36,0.5063026669688373,0.4412801244992404,-0.631821177990364,0.3869514959074926,-167.36057824541132,-78.9002498475701,-120.55141379130345,1
1767557478.740839,1,left_wrist,0.9526,0.2025,-0.1318,3.08,-0.42,1.68,0.6393371063787232,0.2707322337019677,-0.7113047699331978,0.10953376790882649,129.7828351132777,-75.65830039247008,-98.33427192209562,1
1767557478.740839,2,right_wrist,0.9599,-0.1742,-0.2006,-1.4,2.8,-2.45,0.505077469761729,0.43878837002636967,-0.6330754160501919,0.38932895276561114,-165.08737923773552,-78.86364004532919,-122.8335278806751,1
1767557478.79322,1,left_wrist,0.975,0.1962,-0.1391,-0.56,-4.48,-13.23,0.6413579176602054,0.2745719138564959,-0.7086951021929079,0.10498351157934324,127.35902483125196,-75.17357590108837,-95.95331106636701,1
1767557478.79322,2,right_wrist,0.9623,-0.2059,-0.1918,14.63,0.63,6.51,0.4988308205481018,0.437549500194727,-0.6335927396190324,0.3978422899249162,-160.00116510849426,-78.59750387211051,-127.16625081818674,1
1767557478.843998,1,left_wrist,0.957,0.2245,-0.1347,-9.03,-4.55,-21.98,0.6444167929693746,0.2803139449385286,-0.7052826941531734,0.09342061089559962,123.51649156213143,-74.0217422229848,-92.56145305926165,1
1767557478.843998,2,right_wrist,0.976,-0.1415,-0.2333,23.17,-1.47,12.11,0.48858367986049017,0.4383165127450901,-0.6347869111481576,0.4076888517778555,-154.84837938934294,-77.87360378505977,-131.18514100299916,1
1767557478.902753,1,left_wrist,0.9399,0.3035,-0.1781,-2.24,-1.89,-38.99,0.6448692061821997,0.2948081275845764,-0.7008259017264076,0.07794183919682474,119.95054661391259,-71.77539972964037,-88.98568285750873,1
1767557478.902753,2,right_wrist,0.9867,-0.2489,-0.2133,43.75,-0.28,37.8,0.455580872512716,0.43289452931457645,-0.6378994158916981,0.4451210288169884,-137.4005212091565,-75.15231612041441,-145.07367934165325,1
1767557478.99333,1,left_wrist,1.0209,0.5998,-0.2377,-47.25,-24.15,-124.67,0.6455084266054215,0.3445177522734057,-0.681616124662133,-0.0050841076354575755,110.24349984393031,-61.21999801026795,-81.54996851539511,1
1767557478.99333,2,right_wrist,0.9604,-0.3353,-0.1591,60.55,8.05,69.65,0.43039727857672916,0.42072008299557495,-0.6382242355995439,0.48002356135019014,-123.94626867288919,-72.41903193491261,-155.7984918280058,1
1767557479.0441139,1,left_wrist,1.0014,0.7271,-0.1342,-60.2,-18.76,-160.02,0.6478043581734694,0.3759777047744505,-0.6584117917168764,-0.07405532777706088,104.36516470573798,-52.87852188764512,-78.33529778282336,1
1767557479.0441139,2,right_wrist,1.015,-0.612,-0.2011,99.19,10.15,113.75,0.3873412817551625,0.4019122237488063,-0.6366608314838318,0.5320679294073956,-110.06590109838443,-67.05790285098996,-165.1989561950364,1
1767557479.10049,1,left_wrist,1.0443,0.8784,-0.0727,-66.92,-18.41,-203.28,0.6460698258762306,0.4132812754439777,-0.6226656565232782,-0.15517682702675262,99.14140423996393,-42.555777731619386,-76.14337325309478,1
1767557479.10049,2,right_wrist,0.9784,-0.814,-0.0073,114.24,16.59,182.98,0.2595657070232094,0.33336529257222597,-0.6224045084469227,0.6588670983671288,-89.73788058735991,-49.67593292837727,-173.52828636067628,1
1767557479.153493,1,left_wrist,1.0443,0.8784,-0.0727,-66.92,-18.41,-203.28,0.6389070246621589,0.44374713237493785,-0.5845090149408568,-0.23072821197078713,95.26615496164662,-32.828337003318715,-75.51172995365404,1
1767557479.153493,2,right_wrist,0.9399,-0.9516,0.1762,137.34,25.55,232.61,0.1774942899942854,0.2738578126215116,-0.608117383251278,0.7236649249985823,-81.97440697067255,-37.75145167918806,-174.47088975790575,1
1767557479.241525,1,left_wrist,0.7164,1.0878,0.1762,-42.7,42.28,-281.82,0.6041613835964351,0.5411500034558187,-0.4326439871454187,-0.3936557845599674,87.69953517813245,-5.550319975287311,-71.50658063645977,1
1767557479.241525,2,right_wrist,0.8662,-1.057,0.3304,167.86,54.39,247.8,0.09341364124789281,0.20122402543667886,-0.5727278074307852,0.7891550176051558,-73.1141154844834,-25.12503589838278,-174.73643446672756,1
1767557479.292127,1,left_wrist,0.3826,1.1732,0.1288,-40.04,68.18,-266.42,0.5791679981848548,0.5859063301564402,-0.34426319024661606,-0.4502899710213219,85.58179932531993,7.405052441629097,-68.872176496011,1
1767557479.292127,2,right_wrist,0.6754,-1.262,0.6115,176.4,94.01,253.89,0.014316472474792778,0.11086269998323775,-0.5221656340040144,0.8454865764951509,-63.94736463012376,-11.678333684771005,-174.6347661999607,1
1767557479.344915,1,left_wrist,0.0459,1.1097,0.2899,-116.55,91.21,-256.55,0.570148451979177,0.60528693338772,-0.2310607747807032,-0.5051429395068083,80.14361577639625,20.36717122327149,-65.89459129624069,1
1767557479.344915,2,right_wrist,0.5607,-1.096,0.6744,149.17,133.98,250.46,-0.05196819673920988,0.00854304179477556,-0.4719368516251256,0.8800579134595244,-56.30813833654019,1.949273110689817,-174.2843679284879,1
1767557479.397783,1,left_wrist,-0.1552,0.8682,0.2225,-86.24,101.15,-237.65,0.5496947048287066,0.6234921411915046,-0.12532333692154424,-0.5416524186030772,76.90010569098877,32.52400427671836,-63.07441350649026,1
1767557479.397783,2,right_wrist,0.0903,-0.8735,0.6061,55.37,176.89,194.53,-0.1367125746338883,-0.2024528805503223,-0.41925345223345156,0.8743849529150094,-50.11336054097987,27.948513102674948,-175.4991960747919,1
1767557479.4498382,1,left_wrist,-0.2782,0.813,0.1889,-62.79,111.3,-210.28,0.5228118998193837,0.6416779050521634,-0.029896079921559994,-0.5603779153218275,76.07124989222305,43.464436316298325,-59.335539745669664,1
1767557479.4498382,2,right_wrist,-0.0351,-0.5407,0.5324,41.72,158.27,168.21,-0.16597290432049455,-0.29102854376279513,-0.3955158815167388,0.8551739993795202,-48.23951596587392,38.980062570307844,-176.04193845623072,1
1767557479.502035,1,left_wrist,-0.3514,0.6046,0.1381,-57.33,105.42,-182.7,0.4960040589762657,0.6535204120394541,0.05546367143890315,-0.5690472965205691,76.5757791893144,53.014564023482286,-54.86648554536756,2
1767557479.502035,2,right_wrist,-0.2015,-0.4992,0.4573,22.47,159.18,133.84,-0.1833347121341245,-0.3701179852621002,-0.38053570905411127,0.8274017370340155,-48.54196050381613,48.76421240084803,-178.11372781831503,2
1767557479.554229,1,left_wrist,-0.5144,0.5065,0.2245,-52.85,94.01,-155.12,0.47118547807009753,0.6575716052637297,0.13094335992194336,-0.5730948138825616,77.87254679384164,61.294370122148166,-49.98516934314929,2
1767557479.554229,2,right_wrist,-0.3465,-0.3611,0.6207,49.56,136.85,115.15,-0.1934408977994816,-0.43883573854300295,-0.3523991641588383,0.8036284233002836,-47.262017271333846,57.31567681545618,-179.82827343312726,2
1767557479.644049,1,left_wrist,-0.4616,0.0049,-0.5109,85.54,77.98,-66.57,0.38818932831911124,0.7014950384419801,0.2036527979957695,-0.5619068377310749,102.0040055702347,71.16662936902281,-27.794399612107814,2
1767557479.644049,2,right_wrist,-0.5036,-0.449,0.6944,60.2,166.11,91.21,-0.1872760161764728,-0.5118058422211471,-0.32591497834529143,0.7725036572881452,-49.784937577360786,65.89743374896767,173.77689350372648,2
1767557479.698121,1,left_wrist,-0.4616,0.0049,-0.5109,85.54,77.98,-66.57,0.33568179956269145,0.7302904921489229,0.2174617261649604,-0.5538085627476274,122.87839496530879,72.72262310322377,-10.512338541047475,2
1767557479.698121,2,right_wrist,-0.2674,0.6998,-1.0907,-32.2,14.98,20.37,-0.1791891626476345,-0.59272655180013,-0.3132936134126117,0.7200094378378914,-67.05889643993518,74.9754994945146,154.0690180721188,2
1767557479.7500968,1,left_wrist,-1.0648,0.4675,0.0747,6.02,0.98,2.38,0.33675876423327844,0.7301906775319439,0.21354536827912585,-0.5548094130816894,121.72705921349805,72.5654578530071,-11.906666625118623,2
1767557479.7500968,2,right_wrist,-1.0038,-0.8764,0.4392,78.19,-114.87,2.17,-0.17293353459362085,-0.5593578678029714,-0.28027983586720534,0.7606944077263373,-47.01401065404949,71.43091443305704,170.88374324774918,2
1767557479.8016691,1,left_wrist,-0.9135,0.1562,-0.1152,9.45,4.27,9.24,0.3333902271846735,0.7316673741392381,0.21134780993139585,-0.5557390694158065,122.316150641749,72.58363564359094,-11.814659766237254,2
1767557479.8016691,2,right_wrist,-1.2215,-0.4255,0.2108,-51.17,64.82,-11.34,-0.17091014234795612,-0.5754286256565752,-0.30815142660623207,0.7380476395857725,-60.200808815250355,72.69211889752091,159.87584828608325,2
1767557479.854811,1,left_wrist,-0.9618,0.2894,-0.0171,7.28,-5.32,15.33,0.33709842073352164,0.7308593153997743,0.2027845045616571,-0.5577524186787738,119.4600894622168,72.1745988654726,-15.075976219908075,2
1767557479.854811,2,right_wrist,-0.8877,-0.2918,-0.1113,11.06,-8.4,-15.54,-0.16325043461517938,-0.5736664356855313,-0.3096847025044535,0.7405075969904301,-61.065405061325706,71.93790041444593,158.51941624962413,2
1767557479.945364,1,left_wrist,-0.9062,0.2513,-0.0771,-7.0,-27.51,19.53,0.3496196464458695,0.7191740143264742,0.18647854355225574,-0.5707719270700328,109.72372947220344,72.0566900967767,-25.14098279997121,2
1767557479.945364,2,right_wrist,-1.0453,-0.3655,0.2391,-0.35,-12.39,-7.98,-0.16112324200631212,-0.565584812064386,-0.3116354868942174,0.7463487419133716,-59.59906104952986,70.85130386077593,160.034461693411,2
1767557480.000324,1,left_wrist,-0.9062,0.2513,-0.0771,-7.0,-27.51,19.53,0.35799271617658085,0.7104302183831385,0.17940413843094885,-0.5787437041441136,103.77509304229396,71.94598698073519,-30.966921230474597,2
1767557480.000324,2,right_wrist,-0.8457,-0.2489,0.0756,5.88,-38.36,-29.75,-0.15567627969336795,-0.5470710628475322,-0.3152505679560632,0.7596678402690767,-56.71006047750842,68.33195726380532,162.92656874058116,2
1767557480.051153,1,left_wrist,-0.6388,0.1776,-0.2518,18.69,-58.59,88.76,0.37700970923004534,0.7072396517157042,0.13893524034082505,-0.5816981632932695,95.98800930431433,68.05758472050253,-40.380830780940514,2
1767557480.051153,2,right_wrist,-0.7432,-0.3538,-0.0537,-22.82,-55.65,-58.8,-0.14772542988195855,-0.5204933242089825,-0.33530460069682144,0.7712552894934457,-57.30036955211725,64.41325884586368,163.70469045031618,2
1767557480.146267,1,left_wrist,-0.4641,0.6129,-0.0112,49.49,-80.5,183.75,0.4367330820455009,0.6948598857480435,-0.0228895517077454,-0.5708852972777215,86.98973263059666,50.65814700453225,-56.79928807096101,2
1767557480.146267,2,right_wrist,-0.5734,-0.3704,-0.0386,-62.58,-108.85,-83.23,-0.14773705990377284,-0.46809252889700026,-0.3703414760845729,0.7886129193801606,-57.184313340008174,57.963890096215245,167.62363101433215,2
1767557480.2017741,1,left_wrist,-0.3748,0.5973,0.0532,130.13,-72.17,227.22,0.45268885397222886,0.69363225904063,-0.14045962611724866,-0.5424188272345506,90.12549321599955,38.70489862460241,-61.52154222070709,2
1767557480.2017741,2,right_wrist,-0.3875,-0.5519,0.3533,-112.14,-175.35,-143.64,-0.14240301909322206,-0.2966151387535126,-0.4608506813158363,0.8242314536258001,-59.40316116236491,38.331625575774126,177.17622906821595,2
1767557480.292128,1,left_wrist,-0.0864,0.8935,0.1376,98.0,-51.1,251.37,0.4977468717499012,0.6457364890216873,-0.36306139001095755,-0.4510641478686187,95.74233097879198,12.774343686306683,-70.25609454583471,2
1767557480.292128,2,right_wrist,-0.2494,-0.5915,0.2655,-47.67,-156.8,-173.04,-0.11450213897083036,-0.1977326568043878,-0.4899983968060158,0.8412446895711836,-60.45583909160751,26.416609835331446,179.9277879399317,2
1767557480.344918,1,left_wrist,-0.0864,0.8935,0.1376,98.0,-51.1,251.37,0.5103413709482056,0.6102731328612602,-0.46119477430651284,-0.3929602633330415,99.80378326953097,0.5095171812662411,-74.58706686289581,2
1767557480.344918,2,right_wrist,-0.142,-1.2273,0.7569,-163.03,-170.8,-196.77,-0.0898005553651947,-0.07991893225512374,-0.5532981973352337,0.8242632645877678,-67.33251767294333,13.3631052279424,-176.48790776049432,2
1767557480.39679,1,left_wrist,0.365,0.8301,-0.1132,34.58,-34.09,240.1,0.534608321699128,0.5582473146198724,-0.537732343346722,-0.33674590570426544,101.87080412916436,-11.477165144762333,-78.52918220482388,2
1767557480.39679,2,right_wrist,0.1298,-0.6505,0.6139,-234.71,-69.72,-254.38,0.042304958970123346,0.11995675461352548,-0.6874907904309664,0.7149664891040219,-88.47311321018194,-13.279331183085784,-173.83947056788082,2
1767557480.448491,1,left_wrist,0.4924,1.242,-0.0239,70.7,-11.27,232.96,0.5486926541622827,0.512889434050576,-0.6041674494335283,-0.2662000990845321,106.15087635880086,-22.9508934108859,-81.9948272111117,2
1767557480.448491,2,right_wrist,0.5885,-0.9638,0.0044,-101.78,-34.02,-248.15,0.11744148515703857,0.20517560684174196,-0.7012510760616498,0.6725751974639047,-94.32530697788755,-26.148806728140613,-171.68703018611475,2
1767557480.543829,1,left_wrist,0.7715,0.9687,-0.0176,-15.12,-3.22,197.89,0.5964263573660444,0.3891785578469866,-0.6796184388169476,-0.17588185799344397,107.8648294098848,-42.35993175111598,-88.88579245902423,2
1767557480.543829,2,right_wrist,0.7901,-0.8999,0.1235,-98.49,6.58,-253.75,0.2042285001077974,0.2758317622941128,-0.6998385950396384,0.6264451289190366,-99.77974815342557,-39.15650977986839,-170.33381946945772,2
1767557480.594074,1,left_wrist,0.9292,0.7042,-0.1401,44.59,32.48,151.97,0.611039391595377,0.35456224345150583,-0.6983426830244167,-0.11503901296362729,110.8980032075161,-50.520561032870276,-90.16517853584031,2
1767557480.594074,2,right_wrist,1.076,-0.8511,-0.1698,-109.97,6.86,-234.64,0.2853523778667658,0.33652282674233625,-0.6949590401347648,0.5677660962598033,-107.86310776340831,-51.14617113907648,-166.7568721084178,2
1767557480.647809,1,left_wrist,1.0194,0.7749,-0.2494,50.82,32.48,133.07,0.6212929071355523,0.32711869471236976,-0.7095985174184176,-0.05880839387632396,114.28638151128283,-57.48624175024661,-91.49006196012371,2
1767557480.647809,2,right_wrist,1.1468,-0.7261,-0.1864,-80.71,-3.92,-134.75,0.3979233085169535,0.40865414489319996,-0.675859699125524,0.4667681410491563,-129.00080921167756,-66.8347542984548,-152.62058443809764,2
1767557480.703348,1,left_wrist,1.0194,0.7749,-0.2494,50.82,32.48,133.07,0.626939750410963,0.3023090452009915,-0.7179972415586474,-0.005979269058816335,118.88072542503004,-63.72334041259567,-94.02983696048068,2
1767557480.703348,2,right_wrist,1.0653,-0.5041,-0.3372,-7.7,5.67,-74.83,0.4125287392199649,0.4259371924304392,-0.6650126803052882,0.45404370104125236,-134.41097911062644,-69.30289401254595,-147.1150053864438,2
1767557480.7908201,1,left_wrist,0.9618,0.4143,-0.185,18.2,27.58,63.14,0.6425707116831082,0.27235855129902853,-0.7146645787476895,0.046671617764396704,120.94340803172071,-70.71160603215144,-94.4879147475089,2
1767557480.7908201,2,right_wrist,1.0097,-0.5285,-0.327,-32.9,18.83,-72.1,0.4348611659002799,0.43472888016848305,-0.6564936295135021,0.436947000845062,-140.81188862748746,-71.96621404697706,-141.95869454422615,2
1767557480.850175,1,left_wrist,0.9775,0.3665,-0.1937,17.85,18.41,51.94,0.6445265446506138,0.26388252146145796,-0.7146322153391905,0.06521000618988129,123.04748158571712,-72.86523514528263,-95.82538655154752,2
1767557480.850175,2,right_wrist,0.9809,-0.122,-0.3016,11.76,0.14,-24.5,0.44933947915231653,0.450413712162998,-0.6477156679209525,0.4191490592860579,-150.5547827890714,-73.67228358528303,-132.64216511254472,2
1767557480.943106,1,left_wrist,0.9814,0.265,-0.1728,-4.41,-1.33,15.12,0.6411837928872601,0.25811509502686597,-0.7184744425437029,0.07781013346277232,127.08109326826523,-74.05300424636232,-99.32526600351059,2
1767557480.943106,2,right_wrist,0.9477,-0.2757,-0.1967,26.04,-8.68,-14.28,0.44287070007962737,0.45838098892631085,-0.6425385553500212,0.42531942924186505,-150.2506706036912,-73.54442891550651,-131.44689414590366,2
1767557480.995378,1,left_wrist,0.9575,0.2318,-0.1693,-2.1,-6.72,6.3,0.6385140968961781,0.25889261202744,-0.720917320642251,0.07451563795919254,127.86132136748502,-73.57989456342989,-100.30108405908453,2
1767557480.995378,2,right_wrist,0.9184,-0.2723,-0.1688,37.45,-5.25,-6.58,0.4340380146880657,0.46570910123861425,-0.635568716206563,0.43678191561545476,-148.01196992862822,-73.4453893593368,-131.67538387738412,2
1767557481.05075,1,left_wrist,0.9516,0.2469,-0.1688,-12.11,-8.89,-2.38,0.6382005310224629,0.259298125987369,-0.7219318935152063,0.0654133410523721,126.78484580143493,-72.82314728012634,-99.93046185885758,2
1767557481.05075,2,right_wrist,0.9384,-0.2962,-0.163,10.85,-0.07,4.69,0.4276501121053756,0.4629316418714083,-0.6343710525006325,0.447641647213194,-143.62047326994548,-73.14323408489709,-135.16018052387233,2
1767557481.1440918,1,left_wrist,0.9667,0.3016,-0.1601,-11.97,-11.34,-23.1,0.6381056528147395,0.2650629151242428,-0.7212885254359311,0.04801760037916973,123.93895957141615,-71.07994846754495,-97.99981891244852,2
1767557481.1440918,2,right_wrist,0.9409,-0.3074,-0.1815,8.54,2.17,8.19,0.4233647713876893,0.45906910468461193,-0.6346606740996329,0.4552182511975085,-140.21232535734595,-72.81179415010838,-138.1241331468924,2
1767557481.1999621,1,left_wrist,0.9384,0.3504,-0.204,-24.43,-14.84,-46.2,0.6363457150572993,0.27611637627055824,-0.7199569818958987,0.022041367987916616,120.61359195616375,-68.19525155686377,-95.81719798425604,2
1767557481.1999621,2,right_wrist,0.9521,-0.2791,-0.245,-7.14,6.58,20.44,0.4141700453216088,0.44211909239706304,-0.6434855579112363,0.46788910914441956,-132.8793725486996,-71.21797255401994,-145.70313942643386,2
1767557481.2929459,1,left_wrist,1.0258,0.53,-0.2542,-65.38,-46.62,-130.13,0.6220661129805531,0.3202297476372081,-0.7096405514254334,-0.08304786319997967,112.35063712970161,-56.06771612364189,-92.15323945389095,2
1767557481.2929459,2,right_wrist,0.9819,-0.2913,-0.2894,-0.98,7.42,32.62,0.4066473171323729,0.43109323705239266,-0.6510463819911854,0.47427332724170806,-129.41753715160326,-69.78532916946298,-149.45661496462455,2
1767557481.3507562,1,left_wrist,0.9467,0.7706,-0.1835,-142.03,-36.4,-189.98,0.6212215366316267,0.338975800952179,-0.6815828732158695,-0.18607524212712737,103.25185513515369,-46.11047843815705,-89.86433016513307,2
1767557481.3507562,2,right_wrist,0.9833,-0.5588,-0.1757,118.86,11.9,124.18,0.33160931324921794,0.3927898349581386,-0.6463889236742549,0.5638552724513433,-107.11070986049928,-60.650998223326766,-164.1540137150052,2
1767557481.403553,1,left_wrist,0.9062,0.9194,-0.0381,-122.08,-24.43,-217.56,0.6127357479061708,0.36606870394244484,-0.6397670012858635,-0.28503822778262194,96.07890073403539,-35.122680762032516,-88.67573409265015,2
1767557481.403553,2,right_wrist,0.9721,-0.711,-0.0703,159.6,15.26,171.01,0.2633195168336693,0.35900034758166444,-0.6306174433427622,0.6356911377725547,-94.95504183094222,-52.048762778360825,-168.9375187522995,2
1767557481.49379,1,left_wrist,0.6339,1.1278,0.2284,-103.39,28.0,-251.44,0.5841694634887645,0.4318083515152331,-0.5031631556833929,-0.46809659713746615,82.9448375998559,-10.580048450046673,-86.76775595076067,2
1767557481.49379,2,right_wrist,0.8779,-0.917,0.1347,215.74,18.97,211.4,0.1732793295207354,0.31483697523568077,-0.5953584618469225,0.7186099462800097,-82.91027451112943,-41.20968185023683,-170.37060901769576,2
1767557481.55613,1,left_wrist,0.4758,1.1204,0.2874,-68.6,68.11,-245.0,0.5610779185626532,0.47598489280784884,-0.4234534552177981,-0.528504609614911,79.1449725966078,1.6010325671111636,-85.25205804622324,2
1767557481.55613,2,right_wrist,0.7462,-1.0477,0.4758,158.13,74.69,235.2,0.01472600837592747,0.16879246472764342,-0.5226150294354148,0.835563151136226,-65.44431638867104,-17.305444240595275,-170.85020257022393,2
1767557481.642334,1,left_wrist,0.039,1.0253,0.2713,-46.41,92.75,-206.43,0.5118402715025668,0.5537466017273929,-0.26314740721331387,-0.6017787630188134,74.30749973713395,23.396199210319974,-81.40057882117134,2
1767557481.642334,2,right_wrist,0.5671,-1.0614,0.589,121.31,98.91,229.39,-0.05258293802954727,0.08358749458497032,-0.488764923783261,0.8668085224871357,-59.304153537323366,-5.36541275434571,-170.0011339893258,2
1767557481.6995761,1,left_wrist,-0.0795,0.8477,0.2996,-60.13,83.51,-198.24,0.4843509608239185,0.5800257746586519,-0.1824897479577849,-0.6290244346373849,71.77918510338861,33.56774753203329,-80.18413143080775,2
1767557481.6995761,2,right_wrist,0.1757,-0.8023,0.731,62.16,140.84,184.52,-0.1458205435291509,-0.09528702701463225,-0.43275247105725745,0.8845236290577055,-50.54068039319476,17.14408515282812,-169.41742785978275,2
1767557481.749952,1,left_wrist,-0.2274,0.8179,0.2489,-53.9,85.12,-179.27,0.4564216678264598,0.6025539868408499,-0.10740234961018068,-0.6458116516283382,69.99276948713037,42.861716518479156,-78.7672652859104,3
1767557481.749952,2,right_wrist,-0.0205,-0.7974,0.5871,65.94,144.62,159.25,-0.17433004583085376,-0.18022703494109732,-0.4088662290728729,0.8774711720168827,-47.46327619081512,27.312498857958534,-169.72013045823587,3
1767557481.801501,1,left_wrist,-0.3226,0.6393,0.2503,-36.82,85.05,-156.03,0.4275681584330683,0.6230771268275956,-0.04204393138701431,-0.6535997794919665,69.47827331421279,51.12644037524985,-76.9157429276877,3
1767557481.801501,2,right_wrist,-0.2489,-0.63,0.6749,63.84,143.85,139.93,-0.19536577540521335,-0.2606444770516194,-0.3815707886350137,0.8650435848229041,-44.25917263273544,36.8720041236645,-169.98716550110527,3
1767557481.89379,1,left_wrist,-0.6222,0.4358,0.2728,-49.77,76.51,-99.05,0.39251698705840105,0.6456784152868698,0.07195353190574261,-0.6510395442287057,69.33488855131627,63.79376634764159,-71.25114833513301,3
1767557481.89379,2,right_wrist,-0.3006,-0.5266,0.4499,45.5,152.88,105.14,-0.20174595780250218,-0.33477523510863527,-0.36599253507689106,0.8445552526248946,-43.564988521335174,45.491576523957846,-172.15196720866834,3
1767557481.950048,1,left_wrist,-0.7632,0.3455,0.0566,-43.89,83.79,-78.12,0.3781684055335446,0.6611563459433463,0.12093032197960382,-0.6365821239250816,74.42066398437136,68.94319604045299,-63.506733427103214,3
1767557481.950048,2,right_wrist,-0.5617,-0.3987,0.3172,80.64,119.07,57.26,-0.18391558688916868,-0.4520408903944312,-0.3252151074780703,0.8099810023566292,-43.512357871238564,58.420386638896915,-179.5716356292195,3
1767557482.0439382,1,left_wrist,-0.6573,-0.1684,-0.4172,43.19,41.44,-11.06,0.3375658641219883,0.7009291671810672,0.150137941016869,-0.6100870336613017,95.45301031626063,73.06158853767984,-43.73614392686922,3
1767557482.0439382,2,right_wrist,-0.7115,-0.6988,0.0273,33.81,122.29,43.26,-0.17268589536839904,-0.503525918369195,-0.3177701620176409,0.7846421829105007,-48.1420743497643,64.14810563494578,173.54550468191408,3
1767557482.100506,1,left_wrist,-0.9736,0.388,-0.0063,-22.47,-16.38,0.21,0.34887719431883735,0.6930658797709435,0.1502837110543317,-0.6126656476197132,91.11939987071236,72.57245059395873,-47.03844068484004,3
1767557482.100506,2,right_wrist,-0.7559,-0.1962,0.019,40.81,-20.58,-8.4,-0.17769151811614925,-0.5300420806460363,-0.3310769082180105,0.7601770833028327,-55.20418999850031,67.44485741813882,167.83713642238237,3
1767557482.157054,1,left_wrist,-0.9975,0.3328,0.0283,23.31,17.85,-12.32,0.3395598156423748,0.6985704256854829,0.1487627062113579,-0.612019729419888,93.96505677531152,72.96098370734694,-45.164414756725584,3
1767557482.157054,2,right_wrist,-1.1122,-0.5534,0.4089,5.46,9.59,-0.98,-0.17307823195254182,-0.5304440928238717,-0.33133614943483364,0.7608477811560861,-55.82108907628434,67.20080143720935,166.8528984542086,3
1767557482.2438312,1,left_wrist,-0.9794,0.4455,0.0059,6.72,2.73,-0.91,0.338940160702082,0.7018785380971951,0.14652462719035397,-0.6091113353472573,95.41981114750286,72.62495965483097,-43.9406038700704,3
1767557482.2438312,2,right_wrist,-0.8691,-0.3357,0.0356,-16.87,5.18,5.6,-0.1771376834354756,-0.5338054175329576,-0.3379686810446873,0.7546198963401988,-57.8591511363974,67.72487255621874,165.72344338543613,3
1767557482.301471,1,left_wrist,-0.9257,0.1937,-0.0664,14.91,1.33,3.57,0.33186872156521063,0.7053201494869129,0.14488188954214182,-0.6094225762614395,97.21974970859158,72.90907590579278,-42.91704309426419,3
1767557482.301471,2,right_wrist,-0.9292,-0.366,0.2377,-7.56,4.41,-4.13,-0.17632346059149548,-0.5249192657352486,-0.34363061584571436,0.7584772913927628,-57.67036414959089,66.55738213327099,166.43921989994735,3
1767557482.3951008,1,left_wrist,-0.8725,0.2352,-0.0756,-2.38,-20.44,29.61,0.33207296235085787,0.7064471785673679,0.13383374190657324,-0.6105312941176856,96.33729016362489,72.08266236915222,-44.69826596448001,3
1767557482.3951008,2,right_wrist,-0.8716,-0.2952,0.1303,10.08,-16.45,-13.23,-0.17232604226357717,-0.5210690814260385,-0.34279756276872303,0.7624175880050379,-57.10259493815619,65.87982777848951,166.63323291266056,3
1767557482.452033,1,left_wrist,-0.7232,0.144,-0.2118,11.55,-40.25,68.74,0.34668221314639563,0.7033117078950633,0.10534629960317014,-0.6116095501098437,91.83429628470934,68.96282174112059,-50.222991861693856,3
1767557482.452033,2,right_wrist,-0.8179,-0.3909,0.0508,-16.52,-48.86,-28.28,-0.17116221041006774,-0.48955455376755785,-0.3570198276986582,0.7769019753115622,-55.533793362846126,61.9927774367248,169.7438490274923,3
1767557482.505551,1,left_wrist,-0.7232,0.144,-0.2118,11.55,-40.25,68.74,0.3605470629011534,0.6993457546450841,0.07698557797831708,-0.6123679871422036,88.60598939106217,65.78709333750295,-54.500941863691075,3
1767557482.505551,2,right_wrist,-0.7052,-0.3494,-0.041,-39.27,-76.3,-58.94,-0.17046638253100252,-0.45343223930081206,-0.37893063711816344,0.7885125167317686,-55.75015697082793,57.593150381612304,171.97600426939903,3
1767557482.5895622,1,left_wrist,-0.3831,0.4841,-0.0307,72.73,-69.3,212.73,0.4162580873546222,0.6859719400908881,-0.07769979616542821,-0.5917215931463594,85.96160709208233,48.34172937094202,-64.3564943382799,3
1767557482.5895622,2,right_wrist,-0.5714,-0.3265,-0.0307,-60.69,-120.68,-89.67,-0.17045893667235626,-0.393990437104685,-0.4097326782163132,0.8048816178670476,-56.03803621399275,50.70690302643266,175.61109095143485,3
1767557482.643845,1,left_wrist,-0.2001,0.7003,0.08,93.45,-81.76,249.9,0.44937136995076976,0.6672390368229396,-0.19341333965221752,-0.5616482169941788,87.56311166699602,35.147154525875465,-68.90568587162767,3
1767557482.643845,2,right_wrist,-0.3875,-0.4353,0.1049,-94.57,-157.57,-133.42,-0.16482102059153259,-0.30569432724017453,-0.45543731022250805,0.8197328015406176,-58.34258193250718,40.64018794693325,179.37850443673486,3
1767557482.702791,1,left_wrist,-0.0073,0.8511,0.1454,-1.96,-85.96,246.68,0.502525837804145,0.6189469939898362,-0.2825712057013685,-0.5334097062096477,85.41164334672834,22.105054921049923,-72.975803368254,3
1767557482.702791,2,right_wrist,-0.0142,-0.7383,0.4821,-67.83,-163.03,-205.66,-0.11421246856616284,-0.0803224521308115,-0.5347602122782018,0.8333878635256752,-64.56576773667018,14.834749422993083,-173.79639206056,3
1767557482.7908092,1,left_wrist,0.3782,1.0951,0.0869,9.87,-49.42,229.04,0.5498978745202661,0.5408707144709058,-0.4671944013381842,-0.43220433730364327,91.24036006670252,-2.652887481851347,-79.04363847177484,3
1767557482.7908092,2,right_wrist,0.0859,-0.9067,0.2523,-129.71,-128.8,-225.33,-0.06377725141079071,0.028837499478753446,-0.5803375701167087,0.8113625364393724,-71.04206664091656,1.560318930021861,-172.12486260922012,3
1767557482.840868,1,left_wrist,0.4402,1.0677,0.0473,69.51,-42.49,207.34,0.5635864739161944,0.5020707968781448,-0.538858036064451,-0.3740684674088665,95.00612294121724,-13.401212764850033,-81.76046625871378,3
1767557482.840868,2,right_wrist,0.283,-0.8477,0.8252,-121.59,-130.34,-221.55,-0.01559895230502297,0.13516692267531333,-0.609795841149639,0.7807916545520167,-77.06025547063969,-11.072447467824908,-168.88397604483353,3
1767557482.890913,1,left_wrist,0.5739,1.0756,0.0917,-9.24,-14.49,196.49,0.5947300681209379,0.44655238048831836,-0.5822784625848768,-0.3283883517466373,94.81237716802276,-23.53516401193883,-83.34654511039432,3
1767557482.890913,2,right_wrist,0.7569,-1.0658,0.1396,-17.92,-98.42,-228.34,0.03983903020194558,0.23195241415462425,-0.5979735301663168,0.7661844337108675,-78.83221507867897,-23.770992941175727,-166.3251943780596,3
1767557482.941576,1,left_wrist,0.5739,1.0756,0.0917,-9.24,-14.49,196.49,0.6213198777277136,0.3882603688904609,-0.61970231753542,-0.28139746468419347,94.78313173853654,-33.47381085311273,-84.94007259887249,3
1767557482.941576,2,right_wrist,0.7637,-1.0272,0.5973,-97.79,-56.7,-226.52,0.11173719246702779,0.30743300398950657,-0.6023046205867184,0.7281681755593713,-83.96802601616918,-35.61427367392347,-165.2041103585456,3
1767557482.993727,1,left_wrist,0.855,0.7383,-0.1059,55.65,32.69,178.99,0.6414143060847098,0.35489145028611757,-0.647589307207203,-0.20800922011915973,97.12933332698879,-43.08673460016,-84.12768173892673,3
1767557482.993727,2,right_wrist,0.9531,-1.0838,0.163,-144.41,-23.31,-224.77,0.19829734959973822,0.3668882737247029,-0.6123865847921627,0.6716054098290292,-91.62847195323721,-47.36450112207682,-164.32517695499308,3
1767557483.048067,1,left_wrist,0.9662,0.712,-0.162,45.64,35.28,158.97,0.6569535855335952,0.3225348293438412,-0.6666834343897599,-0.14112571921859934,99.0061352580334,-51.713670613751646,-83.39819897664016,3
1767557483.048067,2,right_wrist,1.0214,-0.6417,0.0049,-141.19,17.57,-166.95,0.344188171786831,0.42790349412071654,-0.6114411286624917,0.5697129525482626,-105.8172897952972,-65.29420849598675,-161.71981905330992,3
1767557483.101175,1,left_wrist,0.9794,0.5919,-0.1371,72.24,41.09,136.57,0.6653883185585027,0.3025546542074522,-0.678695664857262,-0.07135307454662887,101.79846542308026,-59.31837098614026,-82.27811842940076,3
1767557483.101175,2,right_wrist,1.056,-0.53,-0.0332,-132.86,33.95,-139.72,0.4116510872215417,0.4330773856810048,-0.6100800475312689,0.5203745727889418,-113.23314347833836,-72.36488011960292,-160.72654153306908,3
1767557483.192843,1,left_wrist,1.0326,0.3231,-0.2303,62.65,28.91,91.35,0.6663127835853883,0.2807356670917109,-0.6897376196069491,0.03842884011004285,108.76614426347942,-70.17598013989772,-82.27759196751452,3
1767557483.192843,2,right_wrist,1.0458,-0.2743,-0.1288,-100.31,35.0,-97.51,0.4640695202373244,0.4347177644714928,-0.6047629931532107,0.4795014783626604,-121.80154475585536,-78.01438397029794,-157.11481624465176,3
1767557483.251634,1,left_wrist,1.0355,0.3118,-0.2142,29.54,14.28,67.97,0.6628179168308531,0.2684944103088256,-0.6955121361691041,0.0696134268831394,113.31309076505659,-73.6128845172814,-85.35772241286575,3
1767557483.251634,2,right_wrist,1.0443,-0.2918,-0.161,-38.29,16.66,-60.41,0.5140008520924625,0.4388728169111834,-0.5968905193054796,0.43233723247934613,-146.40315320306672,-83.25884466895032,-137.38663008536128,3
1767557483.339252,1,left_wrist,0.9941,0.2333,-0.1396,0.21,3.71,34.23,0.6581535806689024,0.24435659130139756,-0.7053887036474379,0.09772664583853916,121.93933745822692,-77.49272101125403,-93.77213940147053,3
1767557483.339252,2,right_wrist,1.0297,-0.1454,-0.1918,-24.43,10.92,-44.1,0.5266541390043271,0.44249621701785385,-0.5932564799422346,0.4181856822047454,-162.50933697638987,-84.25263573723542,-122.40413970587241,3
1767557483.391834,1,left_wrist,0.9701,0.2928,-0.1357,-3.43,3.36,21.21,0.658531164801801,0.2399647241117277,-0.7063080020944373,0.09941147994135091,122.73769126591061,-77.94900330211742,-94.8101418965472,3
1767557483.391834,2,right_wrist,0.9945,-0.1576,-0.1801,-17.99,5.25,-27.37,0.5332462538507698,0.4434202998874691,-0.5928785090941442,0.4092944464027479,-172.64785738442006,-84.43062718152028,-113.08528605328722,3
1767557483.447513,1,left_wrist,0.9731,0.2596,-0.1264,-1.05,1.47,5.39,0.6588724799833056,0.2411962073965732,-0.7058944948475927,0.09707938402163252,121.99127817121446,-77.69292762880556,-94.14935613930629,3
1767557483.447513,2,right_wrist,0.9926,-0.243,-0.1401,12.18,-5.74,2.03,0.5256841808607161,0.4445620234233899,-0.59487321175543,0.4149055449837694,-165.71320681792903,-83.89753489716682,-119.31037781287141,3
1767557483.503582,1,left_wrist,0.9589,0.2079,-0.1093,5.11,2.38,-2.94,0.6599815494825336,0.24652127350383068,-0.7033740315148711,0.09442768578759393,119.96410814731259,-77.15747008163382,-91.88291454802162,3
1767557483.503582,2,right_wrist,0.9867,-0.1386,-0.1152,20.37,-7.49,14.07,0.5145788078985495,0.44444846994758125,-0.5978524360633761,0.424554675767502,-155.43989295895003,-83.05834582635268,-128.56800049405794,3
1767557483.595124,1,left_wrist,0.978,0.0737,-0.0878,-0.21,-2.03,-8.26,0.6605582212270175,0.244343802968484,-0.7034302028092213,0.09562892917979866,120.07711392187761,-77.4339580222231,-92.08563876533432,3
1767557483.595124,2,right_wrist,0.9789,-0.102,-0.0859,11.76,-8.68,18.34,0.5056195215307591,0.44087827132782925,-0.6018344165390924,0.4333250331876079,-146.2018341110194,-82.17378535379106,-137.2243694411827,3
1767557483.648709,1,left_wrist,0.9819,0.0903,-0.0752,3.99,-1.47,-9.1,0.6606718508610638,0.24521987028145817,-0.7027594231797781,0.09751468520682814,120.01498303299186,-77.53069356902493,-91.7940895808253,3
1767557483.648709,2,right_wrist,0.9936,-0.0693,-0.0493,0.77,-4.48,17.01,0.5009405982987627,0.43023459635112377,-0.6081912709703717,0.44052251587643854,-136.3859758670775,-81.26128437502987,-147.3445336161627,3
1767557483.740031,1,left_wrist,1.0136,0.0083,-0.0464,3.92,-0.14,-1.54,0.6607147634217754,0.24173171059617415,-0.702972601330375,0.10416958897663256,121.30946421328495,-78.31926438700141,-92.84350304109572,3
1767557483.740031,2,right_wrist,0.9936,-0.02,-0.06,3.15,-3.57,16.66,0.4992814910635796,0.4283945755584305,-0.6088376308707342,0.4432976647233239,-134.06346464614677,-81.03192433138176,-149.55643302400904,3
1767557483.790905,1,left_wrist,0.998,0.0088,-0.059,3.43,2.8,0.35,0.6615690975833166,0.23933455202955556,-0.7022403036538956,0.1091047993980684,121.675663753246,-78.92783105554753,-93.01186925691192,3
1767557483.790905,2,right_wrist,1.0082,-0.0171,-0.0425,-6.23,-4.48,8.54,0.5006655139470817,0.42660935257489174,-0.6099647307344828,0.4419066990890116,-134.00721581889144,-81.04822983390426,-149.94176430571477,3
1767557483.853871,1,left_wrist,0.9858,0.0478,-0.0932,-1.12,-0.07,1.68,0.6611689093909862,0.23528911689476373,-0.7033831896016673,0.11290169755765868,123.34513071102963,-79.49508590692005,-94.71588990481096,3
1767557483.853871,2,right_wrist,1.0121,-0.0029,-0.0415,0.91,1.4,1.05,0.5053975234171498,0.428387510026117,-0.6047440152976991,0.44197529403695324,-134.11505986099564,-81.86833921790817,-149.69129121572476,3
1767557483.943962,1,left_wrist,0.9682,0.1791,-0.1225,-19.18,-9.17,-6.93,0.6579108579877796,0.22909451761940247,-0.7103883954849799,0.10008662497453225,125.662377786641,-78.69661243869422,-98.60841593611815,3
1767557483.943962,2,right_wrist,0.9858,-0.039,-0.0708,21.98,-1.89,0.0,0.5038302699616536,0.4352002037028245,-0.5982468408303862,0.4459333573571841,-134.87146877126176,-82.29449023975333,-147.84240641813528,3
1767557484.000432,1,left_wrist,0.9682,0.1791,-0.1225,-19.18,-9.17,-6.93,0.6563663802245918,0.2292192454447184,-0.7133869405945289,0.08786799996471062,125.00290340556514,-77.62569507194837,-98.93502213581728,3
1767557484.000432,2,right_wrist,0.9897,-0.2133,-0.1342,11.83,1.54,7.63,0.4945301013479358,0.4340119381489925,-0.5974258002815303,0.458427780095108,-127.3926877159492,-81.42300502848812,-154.09005062461125,3
1767557484.0537128,1,left_wrist,0.9867,0.408,-0.2074,-76.02,-27.51,-70.28,0.6565483066006919,0.23332672296848164,-0.7162961708431513,0.0377194523289066,118.1536873897331,-73.36902531789227,-95.81669419015141,3
1767557484.0537128,2,right_wrist,0.9867,-0.2972,-0.164,48.79,-1.54,32.41,0.47501591395103326,0.43449202216407534,-0.5966518437954934,0.4791483501635746,-119.39130344792002,-79.48605126476153,-159.71081229278286,3
1767557484.140631,1,left_wrist,0.9706,0.7774,-0.123,-106.4,-28.49,-203.0,0.652212686762653,0.2855776049834677,-0.6889440204989469,-0.13572096144846188,101.35839454936989,-55.20091538703891,-88.60718448529992,3
1767557484.140631,2,right_wrist,1.0019,-0.4055,-0.1366,95.97,0.14,68.46,0.438875647394831,0.4335391186940334,-0.5910763729259494,0.5196736668857418,-107.70926711324441,-75.79309479370393,-166.72268098021837,3
1767557484.190811,1,left_wrist,0.9174,1.0199,-0.0083,-100.94,-10.71,-240.94,0.6434520083313227,0.3284897928419959,-0.6492570894260975,-0.23775870289636605,94.60218815437256,-42.79122644295682,-86.57254342509134,3
1767557484.190811,2,right_wrist,0.9482,-0.5973,-0.1074,112.42,3.92,101.78,0.39160519604831123,0.424325574461045,-0.5848685930874564,0.5696682421428874,-97.5457860652261,-70.30921839165426,-171.4353723393219,3
1767557484.24262,1,left_wrist,0.9438,1.1712,0.0512,-70.77,0.49,-259.63,0.6237155899328314,0.3801063289512783,-0.597515553616041,-0.3308673522015107,90.19841800248525,-29.5926276348921,-85.58068724305697,3
1767557484.24262,2,right_wrist,1.0638,-0.3514,-0.1571,107.73,-40.74,146.23,0.32312132105386937,0.4161340872108617,-0.5918579005271914,0.6100239822540835,-95.91200825829848,-62.89679983118552,-167.53191050750527,3
1767557484.2930079,1,left_wrist,0.8325,1.1424,0.1386,-53.55,18.41,-257.67,0.5989806621454437,0.4299862072840687,-0.5379799337068117,-0.40854818424523925,86.91945811774661,-17.045976284737815,-84.75902668477636,3
1767557484.2930079,2,right_wrist,1.015,-0.9833,0.2416,143.92,-6.3,205.31,0.23770082870466863,0.37984377150489673,-0.5879195621526009,0.6734742858642367,-88.11319575276266,-52.29104637006761,-168.06750239651439,3
1767557484.34868,1,left_wrist,0.6578,1.1624,0.4343,-85.47,62.09,-254.59,0.5825012978877875,0.4727022881544996,-0.4546272983497706,-0.4801653926802013,81.94433371722828,-4.3409508583673695,-82.7689122941109,3
1767557484.34868,2,right_wrist,0.9716,-1.1156,0.7291,172.9,89.67,285.95,0.037773221856156516,0.22878773196475452,-0.5306801967882704,0.8152348656367636,-68.6145233673765,-24.401135223446474,-168.52063115215537,3
1767557484.40129,1,left_wrist,0.4738,1.1663,0.3597,-60.34,101.36,-248.99,0.5615737006209733,0.5214787524146337,-0.3632626293063154,-0.5298444599129117,78.79955249444319,8.314567134645678,-79.83607462120669,3
1767557484.40129,2,right_wrist,0.8877,-1.2019,0.9409,134.33,159.53,298.69,-0.043361020783871704,0.10395475368138171,-0.5006722932970689,0.8582776274541226,-61.21983098041814,-7.7600513680217755,-169.61998093554004,3
1767557484.489981,1,left_wrist,-0.02,0.8281,0.1791,-75.81,89.74,-209.3,0.5176680352798138,0.5837821193137458,-0.17846254919892335,-0.5994742371049075,72.71259116534472,31.007880592795154,-75.29526717436529,3
1767557484.489981,2,right_wrist,0.5007,-0.9023,0.8789,90.93,196.49,265.58,-0.10155002678028142,-0.027281637106965722,-0.47431582631479324,0.8740525162969344,-56.334738019136054,8.280807945299225,-171.18540697806569,3
1767557484.54978,1,left_wrist,-0.2333,0.8081,0.1859,-78.26,95.41,-188.79,0.4955552366873677,0.602395146833051,-0.09184430184017281,-0.6189585759024632,70.09382331212379,40.89595386621936,-73.32420777944013,3
1767557484.54978,2,right_wrist,0.1527,-0.5846,0.4758,17.92,193.13,159.32,-0.15495974370227264,-0.2480175408202222,-0.4454035151731293,0.846221298448955,-54.64954308168851,33.90342195619257,-177.146059750244,3
1767557484.601485,1,left_wrist,-0.364,0.6598,0.1244,-50.4,97.02,-165.13,0.46804222227397385,0.6229914335269875,-0.01764186146986637,-0.6265037243661902,69.76316210493518,49.82686908579587,-70.59183218209115,3
1767557484.601485,2,right_wrist,-0.0917,-0.6544,0.4094,29.82,165.62,133.98,-0.16618086339945826,-0.3321003585801447,-0.4303815724103741,0.8227180407650749,-55.6229639386441,43.58993148533144,179.01747677790127,3
1767557472.0439968,1,left_wrist,0.304,0.7203,-0.9467,44.1,-26.04,-18.69,0.11728230425596259,0.5888291268273362,-0.7976398312689893,-0.05740923341542701,166.62285525912537,-6.862647862517632,-106.32371408345031,0
1767557472.0439968,2,right_wrist,-0.0195,-0.8896,-0.4407,-7.07,-6.86,2.03,0.024396965848415098,-0.06964789449267642,-0.8476172761645394,0.5254511509146544,-116.5410083704383,1.824293762380117,171.73329128981078,0
1767557472.09904,1,left_wrist,0.1806,0.5422,-1.0116,92.33,-43.68,-45.43,0.08025728190940398,0.6075075122687988,-0.7891423554183556,-0.04180591013552291,170.56270633265254,-4.351443756031666,-104.46015002006283,0
1767557472.09904,2,right_wrist,0.0522,-1.3459,-0.3314,-75.74,-5.11,42.42,0.007477999702653015,-0.08672362368787777,-0.8670759768253289,0.4905123270900458,-121.33475318214853,4.135189126512728,170.90106396313732,0
1767557472.1517599,1,left_wrist,0.1283,0.2738,-1.0009,123.62,-56.84,-64.68,0.030870502085722618,0.6316440203864059,-0.7744186200193041,-0.018672026629958437,176.10442695815672,-1.3881395379793877,-101.5489144976173,0
1767557472.1517599,2,right_wrist,0.0371,-1.1707,-0.5563,-89.39,-3.22,92.33,-0.014286105225167253,-0.11959255692012355,-0.8803327559451035,0.45881125349853974,-125.72625091010887,7.752483221830316,168.50545727425052,0
1767557472.2445052,1,left_wrist,-0.0961,-0.0024,-0.8999,71.89,-52.22,-94.92,-0.05417515596447045,0.6889221633184182,-0.7228072522460695,-0.0009906893473004298,-175.78804394720706,4.5702532379318885,-92.58181011632077,0
1767557472.2445052,2,right_wrist,-0.1205,-0.9999,-0.406,-48.93,16.17,147.49,-0.039677252754887246,-0.17847774604305533,-0.8790233725268122,0.44032865036561564,-128.7107326074698,13.116524247132402,163.36345520811815,0
1767557472.303241,1,left_wrist,-0.121,-0.1527,-0.8969,86.31,-45.01,-94.22,-0.09888054088039047,0.7150790956113087,-0.6918219971076974,0.016335543236498322,-170.49792786179447,6.514407700583043,-87.56388656804955,0
1767557472.303241,2,right_wrist,-0.345,-0.4787,-0.4202,159.81,105.42,177.38,-0.030389734167987972,-0.34891678345388755,-0.7971764294768062,0.4917756425119108,-123.99550200422952,23.055930351471677,145.10288248266585,0
1767557472.3612921,1,left_wrist,-0.1313,-0.3455,-0.8662,71.19,-37.52,-85.96,-0.13543076102303264,0.736999819367465,-0.661386936881601,0.03251299653091582,-165.83302788367675,7.540104482829723,-82.8715930885314,0
1767557472.3612921,2,right_wrist,-0.2655,-0.3523,-0.507,268.59,147.07,130.27,0.032169679626716234,-0.42631488544370816,-0.7161567033527033,0.5516704690345683,-115.45872991358836,25.105958925155882,134.477899548097,0
1767557472.444315,1,left_wrist,-0.1049,-0.4368,-0.8374,70.49,-28.77,-65.17,-0.2009659151550959,0.7635318665942892,-0.6098221677194469,0.06891090914267671,-156.7455034024743,8.04064723535145,-75.57064213112508,0
1767557472.444315,2,right_wrist,-0.2494,-0.752,-0.5451,210.84,124.81,56.84,0.0976954122549768,-0.46826018255006746,-0.6518124232578351,0.5884968757344905,-108.55675678091607,25.073538042188638,126.78433098576369,0
1767557472.5022311,1,left_wrist,-0.0039,-0.4314,-0.8579,45.78,9.8,-71.75,-0.21019900828163585,0.7782461808753973,-0.5840138873832739,0.09527349166348321,-153.86150827975783,5.5794429625644115,-72.47462661761989,0
1767557472.5022311,2,right_wrist,-0.2372,-0.7871,-0.4412,113.19,73.99,15.4,0.13908190393711803,-0.4859496116658925,-0.6180363307459839,0.6021131893564826,-105.0358281681556,24.410920783397344,122.48140599593111,0
1767557472.55341,1,left_wrist,-0.0664,-0.4719,-0.8013,23.17,-17.64,-40.95,-0.22338754775586547,0.7866576773393076,-0.5663553340219503,0.10251506140871097,-151.9943057775115,5.264000073416058,-70.19050319525044,0
1767557472.55341,2,right_wrist,-0.2416,-0.6364,-0.4509,91.21,7.35,-15.89,0.18284152359684006,-0.4825515934764212,-0.5945311083138405,0.6166406555922737,-100.74619776242167,22.192025207442207,120.31950042339801,0
1767557472.640189,1,left_wrist,0.08,-0.7491,-0.9096,23.59,-22.89,8.61,-0.231378287927416,0.7893158723698123,-0.5585637390617971,0.10700977014350023,-150.87213240467597,5.137720788567896,-69.23503181846303,0
1767557472.640189,2,right_wrist,-0.123,-0.997,-0.3421,151.55,0.49,6.86,0.21492172732346684,-0.470457278306322,-0.5540820101362522,0.6522819378583736,-93.50585323726617,22.05973493685204,120.11148118626399,0
1767557472.7031791,1,left_wrist,0.0874,-0.3401,-0.9004,54.39,-46.76,9.24,-0.2572479442510756,0.7847313386642436,-0.5541531476100988,0.1045682087952153,-148.4339916271833,6.949450386387344,-68.49063773756511,0
1767557472.7031791,2,right_wrist,-0.3626,-0.9672,-0.0015,53.9,-6.3,4.9,0.23765856822442813,-0.45136990644495745,-0.5161611323329625,0.688012571087287,-86.30727999066868,22.07105265366187,121.16400839843259,0
1767557472.797259,1,left_wrist,-0.0415,-0.2977,-0.9199,48.93,-74.69,17.78,-0.29625416876304433,0.7845371347042677,-0.5385106259583284,0.08210516116849548,-145.69721649778896,10.966962232002388,-65.53781053271102,0
1767557472.797259,2,right_wrist,-0.3514,-0.9496,-0.0473,54.53,-4.69,6.23,0.24528147417140067,-0.44675768191354426,-0.5014469037616924,0.69913916696703,-83.92691405918079,22.253200426936584,121.27567055341673,0
1767557472.848481,1,left_wrist,-0.0473,-0.7305,-0.8032,46.48,26.25,-0.56,-0.3068259126020499,0.7775716537906738,-0.5384580788611806,0.10631594370687017,-143.1384931535797,9.50241948398322,-66.23101023163134,0
1767557472.848481,2,right_wrist,-0.4036,-0.9487,0.2181,66.36,-12.95,8.54,0.2532039853571418,-0.43579590546291824,-0.47849238635073715,0.7190373472813442,-79.87725188351322,22.606167968453928,122.20033493405833,0
1767557472.8994172,1,left_wrist,-0.1064,-0.7017,-0.7886,0.84,9.8,-8.05,-0.30591580172691935,0.7787381507187243,-0.535516746749317,0.11490965503379337,-142.67994027549742,8.550264866853722,-66.13824654232097,0
1767557472.8994172,2,right_wrist,-0.4753,-0.9775,0.203,25.41,12.81,3.36,0.26086698235851774,-0.4435892158589615,-0.4522210119667219,0.7284731851101908,-77.4953772241915,24.226611817171214,121.04953139282382,0
1767557472.951097,1,left_wrist,-0.0913,-0.5563,-0.7974,8.61,7.56,-0.84,-0.302938389522074,0.7788927464656586,-0.5356030235923771,0.12117682441646446,-142.60260116708133,7.801524608233193,-66.3843692080461,0
1767557472.951097,2,right_wrist,-0.3631,-0.9819,0.0678,-13.58,-4.9,0.91,0.2574355535312634,-0.4444838921187903,-0.4598249288580535,0.7243770014472227,-78.50643680056417,24.028891466444602,121.14040062934099,0
1767557473.004072,1,left_wrist,-0.1127,-0.6349,-0.7876,3.01,21.63,-10.99,-0.2993234094661956,0.7798153262813282,-0.5329870710315054,0.1349753146154315,-142.09566076098818,6.232276603745193,-66.5615498321126,0
1767557473.004072,2,right_wrist,-0.3387,-0.8804,0.1093,-16.59,2.03,-9.73,0.258650249880143,-0.44514575603245155,-0.46980656331920573,0.7170962956154732,-79.82537184202549,23.29052260451774,120.76900989692994,0
1767557473.098243,1,left_wrist,-0.163,-0.5026,-1.0746,110.04,-34.3,16.59,-0.3411181708115096,0.7636668406701652,-0.5258946961613166,0.15455134600660875,-136.46765321886278,7.049858009160919,-66.28812352324066,0
1767557473.098243,2,right_wrist,-0.3206,-1.0799,0.0664,-41.3,2.59,-18.97,0.2584461742673021,-0.4462101956442129,-0.4892313866212774,0.7033880057652184,-82.36978473870144,22.014290649469487,120.33302965603681,0
1767557473.191338,1,left_wrist,-0.0834,-0.7544,-0.8755,-31.85,-8.4,-9.66,-0.3268204154425204,0.7746559393481055,-0.5181082068818529,0.15703654875332015,-137.76805707172687,5.471930338364956,-65.43652084659104,0
1767557473.191338,2,right_wrist,-0.2801,-1.1273,0.0839,-45.99,5.6,-18.06,0.2608659234261393,-0.4423989591052796,-0.5238575656266553,0.6795626401688863,-86.37598329897854,19.14515010897081,120.00832582030802,0
1767557473.250693,1,left_wrist,-0.0839,-0.6222,-0.9043,-3.64,-18.62,-2.8,-0.32587275892246254,0.7783827474379871,-0.5155764734623061,0.1486880744892665,-138.37379179752008,6.001367036429082,-64.75543803299838,0
1767557473.250693,2,right_wrist,-0.4202,-1.0458,0.2391,25.9,14.56,11.27,0.264172972506438,-0.44833936176805916,-0.511742585586622,0.6836109883432542,-85.46868414201721,20.035500297457098,119.20518868810692,0
1767557473.30401,1,left_wrist,-0.0839,-0.6222,-0.9043,-3.64,-18.62,-2.8,-0.3247629263693005,0.7820835451118036,-0.5129232802692942,0.14065588746721122,-138.9672204200455,6.496794159194715,-64.08368222088042,0
1767557473.30401,2,right_wrist,-0.3187,-0.9248,0.1279,-11.62,15.33,7.77,0.26455739842717346,-0.4537276254651074,-0.5105842799363771,0.6807674477448904,-85.91035232998814,20.34109750291385,118.5610801574301,0
1767557473.395272,1,left_wrist,-0.124,-0.4738,-0.7754,34.23,0.35,-10.64,-0.3322111642500888,0.779149146737324,-0.5100057928319544,0.1498547322040573,-137.60101682824396,6.0468054824845545,-64.06772724124399,0
1767557473.395272,2,right_wrist,-0.2635,-0.974,-0.0122,-17.71,4.2,3.92,0.2621955951974679,-0.4574359953174277,-0.5176471252277777,0.6738302707584582,-87.21605283622121,20.18294638112172,118.23307380553095,0
1767557473.448234,1,left_wrist,0.163,-0.5075,-0.8291,-101.15,35.56,-3.08,-0.285183387196962,0.7928800751639196,-0.519582612396971,0.14158224101088285,-143.06473382455488,4.119515767700974,-65.09817969600435,0
1767557473.448234,2,right_wrist,-0.2948,-1.0248,-0.0971,-47.67,1.05,-8.4,0.2556447316710032,-0.46180252094894253,-0.535733226379692,0.6590706433811689,-90.03303636628465,19.560754436462272,118.02696116858986,0
1767557473.503316,1,left_wrist,-0.0063,-0.3977,-0.9087,14.35,57.89,-42.07,-0.27005424274799983,0.7979943710140633,-0.5116768955269181,0.16870816336979322,-142.8670256944087,0.40707296022306916,-65.1995503214139,0
1767557473.503316,2,right_wrist,-0.2152,-1.0463,-0.3792,-53.55,-26.74,-14.49,0.2348409338929599,-0.45581343436348787,-0.5782057312153355,0.6346353135555757,-95.07421155520555,17.877196098224186,119.882543637801,0
1767557473.557605,1,left_wrist,-0.0063,-0.3977,-0.9087,14.35,57.89,-42.07,-0.25520445276270914,0.8022777712815307,-0.503372017082583,0.19451909267688328,-142.6815379941884,-3.163826289205636,-65.27929970778906,0
1767557473.557605,2,right_wrist,-0.1796,-1.2039,-0.4006,-88.55,-77.07,10.08,0.1955465941998979,-0.44570870072359925,-0.6104749914453496,0.6248404343637678,-98.65568586484603,18.556582865584108,123.7154453271462,0
1767557473.609035,1,left_wrist,0.0088,-0.571,-0.7706,22.96,12.25,-34.58,-0.2589236756973603,0.8058672162175688,-0.4921856196917534,0.2031991037326669,-141.75874246609,-4.164828451382537,-64.27366774156157,0
1767557473.609035,2,right_wrist,-0.0922,-1.1063,-0.4387,-164.85,-113.61,-2.73,0.13506221704592558,-0.42605218507090753,-0.665760418751423,0.5974954375950281,-105.32254082386906,19.225706302083942,129.48994580785768,0
1767557473.6962402,1,left_wrist,-0.0459,-0.5183,-0.8237,27.3,4.2,-64.82,-0.2535426604107844,0.8253563456245058,-0.4553601018817687,0.21714096735394756,-141.58489511595386,-7.326937237333783,-60.32786740607278,0
1767557473.6962402,2,right_wrist,-0.4124,-0.6817,-0.0547,-53.55,-112.91,7.7,0.08826491926283596,-0.40193008930895024,-0.6816588620778885,0.604981572517959,-105.73754882018316,21.468365691143863,135.2859065219395,0
1767557473.753013,1,left_wrist,-0.0185,-0.4929,-0.8364,9.31,7.35,-89.18,-0.24589550312184297,0.841385207971095,-0.42438611300125456,0.22694219626058837,-141.99636648970267,-9.972898878453096,-56.97378187636859,0
1767557473.753013,2,right_wrist,-0.8696,-1.1561,0.4558,-31.01,-19.88,30.17,0.034010066853475046,-0.3870249204311721,-0.6721811223118545,0.6302599187045317,-103.09583343854169,26.239909950568453,141.10654946747212,0
1767557473.805834,1,left_wrist,0.1308,-0.5836,-0.8169,37.66,-6.16,-86.17,-0.25112390646032556,0.8539897715773396,-0.3894593206236879,0.23655800816020725,-141.175024425571,-12.030429263641272,-53.28363433673355,0
1767557473.805834,2,right_wrist,-0.7139,-0.7837,0.3567,-103.11,68.25,25.06,0.028678319564149648,-0.41410132142985734,-0.6924313008598546,0.5901157032028143,-109.74632600654618,26.6808160932848,137.18034346530354,0
1767557473.894162,1,left_wrist,0.2245,-0.7764,-0.7671,26.32,-16.38,-73.64,-0.2678142105405285,0.8716579522691983,-0.3246937583266035,0.25112133756844834,-139.22374446928453,-15.299736656003619,-46.57645939785488,0
1767557473.894162,2,right_wrist,-0.426,-0.5392,-0.1859,-45.71,118.3,22.33,0.04666104648720071,-0.4532876537281304,-0.6956884488898094,0.5553112926995604,-114.9357059803891,26.008750103156785,130.58637235752255,0
1767557473.95025,1,left_wrist,0.3172,-0.7462,-0.7032,2.94,-20.37,-23.45,-0.27182207380977963,0.8754591810322957,-0.31244768073861356,0.24911930743536168,-139.05921629383158,-15.445831149685421,-45.07862570053413,0
1767557473.95025,2,right_wrist,-0.1274,-0.5885,-0.3938,51.38,119.84,-15.19,0.1452150693196451,-0.5002430993742653,-0.6755791242154261,0.5217875737263562,-115.92265386014577,19.016033157617787,118.92980007837028,0
1767557474.040438,1,left_wrist,0.3016,-0.7281,-0.6539,18.55,-11.83,15.61,-0.2976772378574582,0.8663804660398211,-0.316223332745944,0.24652779549824574,-136.23113367996297,-13.822143230571738,-45.67830423470433,0
1767557474.040438,2,right_wrist,0.0059,-0.651,-0.4685,58.87,90.58,-19.11,0.19131780522537808,-0.5100971359074045,-0.6623102369282103,0.5143379816841307,-114.40634942242244,15.741709367674313,114.97563851219732,0
1767557474.096234,1,left_wrist,-0.0551,-0.1708,-0.8062,36.47,38.29,-40.32,-0.2989740385429824,0.8644253484829949,-0.30298859013972723,0.26754673502491627,-134.96022225077417,-16.34240046151057,-45.44617628524148,0
1767557474.096234,2,right_wrist,0.0542,-0.8398,-0.487,96.11,50.61,-5.81,0.2313056762143201,-0.5098814596652599,-0.63949011309401,0.5268500512438719,-110.37433009286568,13.970764207891824,112.60701349523235,0
1767557474.154602,1,left_wrist,-0.0551,-0.1708,-0.8062,36.47,38.29,-40.32,-0.30025718334199214,0.8619422645073116,-0.2895036419749943,0.288251275436476,-133.67300754209987,-18.848131552139268,-45.25566913248928,0
1767557474.154602,2,right_wrist,-0.06,-0.9321,-0.4426,14.98,-56.56,0.07,0.2422767399429714,-0.4907196540941938,-0.6224360686555015,0.559526177050694,-105.34929812282665,14.331837162050096,114.4483524066668,0
1767557474.247734,1,left_wrist,0.4582,-1.1405,-0.6437,-152.95,-100.24,-41.72,-0.24631253910980241,0.9041478628553314,-0.27250531099303843,0.21814589304409646,-144.23703343584916,-15.08367055228893,-38.43688840505718,0
1767557474.247734,2,right_wrist,-0.2704,-0.7813,-0.2699,9.17,-18.55,-0.28,0.23592942454540952,-0.48780462289910637,-0.62222350606216,0.5649972256707511,-105.00905997804675,14.92858270637486,115.28913689202402,0
1767557474.30526,1,left_wrist,0.222,-0.3436,-0.8633,-64.89,-53.48,0.49,-0.22304243895326753,0.9169006109544057,-0.27295325216910615,0.18719471730666906,-148.38357257979212,-12.79818359982547,-36.793033708329794,0
1767557474.30526,2,right_wrist,-0.2855,-0.9862,-0.2167,-14.49,-20.23,-2.17,0.2264127546068172,-0.476745604618057,-0.6264342533539291,0.5736122551459495,-104.36908338691833,15.264111916801628,117.32889239549195,0
1767557474.390996,1,left_wrist,0.3353,-0.5241,-0.8711,-11.34,-5.18,25.76,-0.22000028235396088,0.9154828920809069,-0.27831794672663124,0.18981588606127792,-148.5427028295922,-13.007955253306369,-37.49776459575642,0
1767557474.390996,2,right_wrist,-0.265,-1.0194,-0.4553,-13.23,13.72,1.89,0.22614451221643694,-0.4831475882690337,-0.6299479236114123,0.5644401483610785,-105.65525734983159,15.099569890063686,116.50407731874391,0
1767557474.4457998,1,left_wrist,0.3353,-0.5241,-0.8711,-11.34,-5.18,25.76,-0.2162504873449831,0.9138490399400354,-0.287631394210036,0.1881059275741299,-148.93408393320223,-12.673793640044941,-38.47841270427498,0
1767557474.4457998,2,right_wrist,-0.3645,-0.9374,-0.1693,-16.31,13.02,0.35,0.22493927232617028,-0.48838853036815716,-0.6302003220691118,0.5601129539960601,-106.33780675211389,15.283298926610604,115.92667518249378,0
1767557474.500387,1,left_wrist,0.1845,-0.6271,-0.8086,12.25,-25.62,-20.3,-0.22689919663168517,0.9160485238922157,-0.27652674760368257,0.18139684204119386,-148.1680035518926,-11.937772385250202,-37.010410711947436,0
1767557474.500387,2,right_wrist,-0.1508,-0.815,-0.4724,6.3,-6.86,-20.23,0.22725925778156453,-0.4819848197938676,-0.6425599207164135,0.5506002284141932,-107.39933153339354,13.810210845306864,116.42016948562232,0
1767557474.5540538,1,left_wrist,0.1845,-0.6271,-0.8086,12.25,-25.62,-20.3,-0.23743846261988985,0.9179766252261431,-0.26522087563572977,0.1749279255411817,-147.37852794002606,-11.257121131750678,-35.53384397497104,0
1767557474.5540538,2,right_wrist,-0.2362,-0.7535,-0.5427,5.18,-22.82,-33.04,0.22822316415849805,-0.46838556595827624,-0.6521001609185965,0.5507218254921165,-107.24057014959935,12.606360822462273,117.92718005238339,0
1767557474.6042519,1,left_wrist,0.1532,-0.5363,-0.875,1.82,0.07,3.15,-0.23820681466210986,0.9179479825020972,-0.26764538331889204,0.1702790758048218,-147.4683798173607,-10.667240179157568,-35.630779427109964,0
1767557474.6042519,2,right_wrist,-0.1869,-1.0019,-0.2684,48.3,-25.76,-6.23,0.23544118288968446,-0.4528988854691001,-0.6439336955371566,0.5699117867637181,-104.19142911229014,12.298675743681642,119.35036013715742,0
1767557474.657177,1,left_wrist,0.1532,-0.5363,-0.875,1.82,0.07,3.15,-0.2387102273429751,0.9179598492984457,-0.270031913470787,0.16568013805265108,-147.58642229741034,-10.093595069051943,-35.724826692361106,0
1767557474.657177,2,right_wrist,-0.3152,-0.9838,0.0351,15.61,-9.73,-2.59,0.23662627975044512,-0.44749393156622436,-0.6395275662417303,0.5785859287606264,-102.92839760163098,12.425461500222712,119.94757763772097,0
1767557474.708249,1,left_wrist,-0.0556,-0.6246,-0.7876,68.39,24.15,-32.97,-0.26391188668236054,0.911822603857816,-0.2554698915321316,0.18348076106848396,-144.06567369364788,-11.522967439715583,-35.05113516358337,0
1767557474.708249,2,right_wrist,-0.2865,-0.978,-0.0142,5.18,14.28,-12.11,0.24494374303146701,-0.44650468943815486,-0.6370413664978377,0.578631508328089,-102.41112049349425,11.808705035301008,119.4509295410019,0
1767557474.7934139,1,left_wrist,0.1669,-0.469,-0.8267,-46.34,-31.85,2.73,-0.24523960327680314,0.9156775021493156,-0.27914578097472187,0.1531988316085961,-147.29911608878095,-8.258894134280629,-36.33466194610511,0
1767557474.7934139,2,right_wrist,-0.1547,-0.9589,-0.283,-7.49,18.76,-4.69,0.2504575974355652,-0.45072582529503236,-0.6402914432556266,0.5693365349180948,-103.3303955744188,11.098579979125608,118.49998518339733,0
1767557474.8461921,1,left_wrist,0.2133,-0.2767,-0.8569,-8.96,-45.78,-22.19,-0.24101276417004275,0.9234934706004345,-0.265528003121623,0.13626274921534207,-148.56607255944493,-7.104778790479764,-34.08429028413579,0
1767557474.8461921,2,right_wrist,-0.08,-0.7823,-0.4231,-9.8,5.88,-15.26,0.2536216681407993,-0.449700227374382,-0.6473914718293975,0.5606514399798452,-104.27253278272995,10.12900841480856,118.31271339044518,0
1767557474.902795,1,left_wrist,0.2133,-0.2767,-0.8569,-8.96,-45.78,-22.19,-0.2366491019684209,0.9307398964186214,-0.2517505923541601,0.1197584527351744,-149.7658679179666,-5.956584251105393,-31.88133518002995,0
1767557474.902795,2,right_wrist,-0.0351,-0.8281,-0.3855,-4.69,-26.67,-21.91,0.24968711207585575,-0.42977641166134034,-0.6733453063747178,0.5473158872405028,-106.18408962742008,7.7121094309899485,120.69812922682642,0
1767557474.997779,1,left_wrist,0.3274,-0.4856,-0.8032,-158.9,-20.3,39.76,-0.11470080843370832,0.9478910644484887,-0.28708342823648647,0.07700233577853806,-164.78131504266702,-4.595592669458574,-34.313761095711236,0
1767557474.997779,2,right_wrist,0.1479,-1.0858,-0.4329,-30.38,-66.36,2.03,0.22658105186323219,-0.4159599232129864,-0.6895207106857193,0.5479046986042907,-107.45889208836078,8.241635137024613,123.85061981341063,0
1767557475.049927,1,left_wrist,0.3172,-0.3333,-0.8272,-198.45,-28.49,60.76,-0.038363362737247476,0.9471766296466801,-0.3156849324557805,0.04156570787362217,-174.3147012455471,-3.1252387856634,-37.02069578481559,0
1767557475.049927,2,right_wrist,0.0903,-0.69,-0.4875,-81.83,-121.45,-37.31,0.14227965062524822,-0.34772022938570796,-0.764641328994266,0.5236131979694463,-114.560859998046,8.42739411872799,136.5128112840624,0
1767557475.100267,1,left_wrist,0.2547,-0.1923,-0.8467,-174.51,-37.24,89.04,0.026308683449093345,0.9350038882374724,-0.35362180190069253,0.005215685620401855,177.3905934087655,-1.625127392150823,-41.39657793875639,0
1767557475.100267,2,right_wrist,0.0903,-0.69,-0.4875,-81.83,-121.45,-37.31,0.14227965062524822,-0.34772022938570796,-0.764641328994266,0.5236131979694463,-114.560859998046,8.42739411872799,136.5128112840624,0
1767557475.153715,1,left_wrist,0.2547,-0.1923,-0.8467,-174.51,-37.24,89.04,0.08941520496622808,0.9160923974571668,-0.38959511311752487,-0.031548189757430546,169.1393796894806,-0.6800790684344472,-46.013437855786634,0
1767557475.153715,2,right_wrist,0.0605,-0.7618,-0.1806,-16.87,-156.66,-99.19,0.0815261554622906,-0.2159290692324699,-0.8047739987713097,0.5468701252926269,-112.99998689192057,6.024288967122877,153.95086246012565,0
1767557475.2401412,1,left_wrist,0.061,0.4221,-0.5675,-237.58,-39.62,137.27,0.2615346536040606,0.8271847571193262,-0.4803533102615641,-0.12894068355023897,146.1548567971628,-2.174469199463064,-59.62654624434076,0
1767557475.2401412,2,right_wrist,0.0181,-0.7281,-0.1698,-4.9,-140.98,-123.27,0.06302709285334455,-0.1367527892857561,-0.8185869866109261,0.5542937899167419,-112.21079840682113,2.7751247024095003,162.89617874238263,0
1767557475.291402,1,left_wrist,0.061,0.4221,-0.5675,-237.58,-39.62,137.27,0.3483682538304076,0.7617785875583206,-0.5174077643294379,-0.17499185316012802,134.35667898147742,-5.38725093127864,-66.10112766257082,0
1767557475.291402,2,right_wrist,0.0742,-0.8808,-0.0283,12.95,-119.14,-133.28,0.054572540876345534,-0.0585466847298663,-0.8225300713802937,0.5630616353158598,-111.1044482771774,-1.366308838278769,170.92001686007214,0
1767557475.3440902,1,left_wrist,0.1425,0.833,-0.3631,-164.85,-14.7,135.38,0.41150307515145057,0.7003851152091415,-0.5489817976568829,-0.1968372306648171,126.37792260661837,-10.142192396899429,-71.04509038742387,0
1767557475.3440902,2,right_wrist,0.063,-0.9897,-0.0332,28.14,-99.61,-132.65,0.052545357387391266,0.014782408453679436,-0.8172869164998885,0.5736397492638077,-109.76396073562687,-5.903241995700042,177.91891235260294,0
1767557475.401192,1,left_wrist,0.1425,0.833,-0.3631,-164.85,-14.7,135.38,0.47057348005806654,0.6329080789376583,-0.575039724428544,-0.21752535211011073,118.66912291479049,-15.417453157450474,-75.33700302622402,0
1767557475.401192,2,right_wrist,0.1225,-1.0067,0.0478,14.77,-57.33,-127.05,0.0666006807910143,0.13937271031247742,-0.7955239407769888,0.5859020878858323,-108.43617010684355,-15.621569705081154,-171.41841134901918,0
1767557475.455186,1,left_wrist,0.4524,0.8281,-0.2523,-60.06,8.68,143.08,0.5048419483138463,0.5819109647857346,-0.6056314552015976,-0.199310754238728,116.3621926411536,-22.30482679319014,-78.34064778561887,0
1767557475.455186,2,right_wrist,0.2211,-1.0228,-0.1362,-31.64,-35.0,-144.34,0.09240193925358584,0.19619109426178777,-0.7924412797096957,0.5700945135384121,-110.99955080000065,-21.724322930669864,-167.21448120404122,0
1767557475.540787,1,left_wrist,0.6456,1.0214,-0.3265,-22.05,15.82,126.0,0.5647799993581525,0.4796618489910262,-0.6507484475385396,-0.16575439956060284,112.06718538866637,-35.17300773158003,-83.1069153158267,0
1767557475.540787,2,right_wrist,0.4094,-0.9233,-0.1488,9.66,-27.3,-138.6,0.11711919474744442,0.2506750915128515,-0.7757732180286527,0.5671163962593588,-111.85241467630628,-27.777535488501652,-163.17505398863548,0
1767557475.591421,1,left_wrist,0.6886,0.8657,-0.365,-5.81,34.79,96.25,0.5820214129108949,0.45125727320895853,-0.6633922443648548,-0.13239591536668271,112.29768083972641,-40.747579139452334,-83.5759456046015,0
1767557475.591421,2,right_wrist,0.4778,-1.1224,-0.2089,23.59,-23.31,-129.08,0.13727019249999567,0.2993287482602191,-0.7544131997043722,0.5678203226618396,-112.2874558862376,-33.16464490489533,-159.31090203364042,0
1767557475.645876,1,left_wrist,0.6886,0.8657,-0.365,-5.81,34.79,96.25,0.5961700433428736,0.42641436566928587,-0.6719576019652157,-0.10594833331663919,112.28441019727178,-45.303806474034296,-83.92004702357252,0
1767557475.645876,2,right_wrist,0.5026,-1.0146,-0.225,-17.29,-14.28,-119.42,0.16229624966932013,0.3385835545127584,-0.7422943405084411,0.5549956900786872,-114.88902183299048,-38.08049909972694,-155.8126869052556,0
1767557475.7003179,1,left_wrist,0.7022,0.8189,-0.3899,16.1,41.79,51.45,0.6050384477187535,0.4200692143699072,-0.6712966270506153,-0.08265089492072607,112.31649615370401,-47.97752945816794,-82.70004391339992,0
1767557475.7003179,2,right_wrist,0.6427,-0.9726,-0.2616,13.16,-9.8,-88.83,0.19774494280571972,0.40119677977763746,-0.7144967306310244,0.5379893153292117,-119.33918613264254,-45.58220902755841,-148.99324390730575,0
1767557475.78958,1,left_wrist,0.7832,0.669,-0.2664,-13.02,26.18,21.84,0.6211604328150271,0.4105432047052728,-0.6644495400260023,-0.0641934773525061,110.2879310455242,-50.60158534811392,-80.13234182479967,0
1767557475.78958,2,right_wrist,0.7027,-1.0043,-0.2996,4.62,2.1,-68.11,0.21086946034635162,0.4197274163227111,-0.7013471074913106,0.5361671395132976,-120.30579002689555,-48.234178210832944,-147.01545230415243,0
1767557475.8442812,1,left_wrist,0.7837,0.6339,-0.1972,-25.48,18.34,14.56,0.6335721435388116,0.4001533917318238,-0.6588158599546489,-0.06652266297563081,107.57117743523769,-51.40511954351045,-78.62134168444001,0
1767557475.8442812,2,right_wrist,0.7208,-0.8945,-0.2967,-4.62,7.84,-45.64,0.22201280456864028,0.4288498954456936,-0.6937434256066186,0.5343389759425925,-120.94873406575284,-50.02655500551132,-146.15909727396198,0
1767557475.897193,1,left_wrist,0.7837,0.6378,-0.1459,-12.46,22.68,12.25,0.6448154695846118,0.39394791599703216,-0.6517923545438401,-0.06468984637614208,105.11993436394553,-52.148401109482315,-76.6231198030187,0
1767557475.897193,2,right_wrist,0.7344,-0.7227,-0.3523,-36.26,13.58,-21.63,0.24461208674850454,0.4260932599229369,-0.6977056561645764,0.5213600274481586,-122.97033337217816,-51.77902578911234,-146.71825927328644,0
1767557475.957495,1,left_wrist,0.8169,0.5261,-0.1274,5.74,28.35,12.67,0.6538471173350451,0.38974601807039305,-0.6464736219603832,-0.051515479812850824,103.62296373123675,-53.63285249597536,-74.46238542164255,0
1767557475.957495,2,right_wrist,0.7442,-0.5666,-0.3348,-19.67,8.82,-21.7,0.2521538724596159,0.42614433377300087,-0.6987160731053456,0.5163480227337278,-123.83367289693835,-52.4146377443341,-146.67335881330882,0
1767557476.0417778,1,left_wrist,0.8969,0.4587,-0.0878,3.43,30.52,28.49,0.6755752150136803,0.36895933405344983,-0.6379152066694763,-0.02305054823412486,99.266391168869,-57.66229183020631,-69.75859020456939,0
1767557476.0417778,2,right_wrist,0.7096,-0.529,-0.2743,-5.25,5.18,-16.66,0.2566631188919421,0.426983051809335,-0.6961279434163138,0.5169288183717571,-123.70117883702437,-53.013799026891206,-146.8352641760603,0
1767557476.0989408,1,left_wrist,0.9511,0.4231,-0.0952,-2.38,24.99,29.47,0.683034082565725,0.35737511088541196,-0.6369410849039224,-0.007316183065810745,97.64962817104286,-59.86851435587924,-67.9436378851806,0
1767557476.0989408,2,right_wrist,0.6817,-0.5017,-0.3148,-22.47,13.09,-18.55,0.26506624025145287,0.4251103228841438,-0.6982411749644939,0.5113515065397786,-124.5497521630111,-53.60271675377308,-147.0694301669361,0
1767557476.151314,1,left_wrist,0.9814,0.407,-0.0996,-2.17,18.9,31.43,0.6878716184489564,0.34544956731390314,-0.6383058411368123,0.007930078541678447,96.56627256338635,-62.08264202579049,-66.72503299044824,0
1767557476.151314,2,right_wrist,0.7305,-0.3753,-0.286,-13.93,24.64,-26.11,0.30256985884530285,0.4276101101492937,-0.6923965103797748,0.4961735045630235,-127.1493557792779,-57.493900566665054,-147.09987097771742,0
1767557476.201449,1,left_wrist,1.0092,0.3826,-0.1122,-7.0,9.59,27.02,0.6900407744644723,0.33369680633579724,-0.641981724239141,0.01869857643512498,96.14380795418671,-63.95721447777523,-66.50683178366837,0
1767557476.201449,2,right_wrist,0.853,-0.3548,-0.2284,-15.82,27.51,-29.68,0.32325715228328333,0.42876204265239226,-0.6842088008991093,0.49348377992640585,-127.3630607024996,-59.94270802185627,-147.69425751415582,0
1767557476.28965,1,left_wrist,0.9248,0.366,-0.0508,-25.62,-4.9,10.57,0.6932192214610617,0.3049853428414685,-0.6527565304884162,0.01843810059406122,95.4739322306268,-66.38436518458933,-68.45113219659372,0
1767557476.28965,2,right_wrist,1.015,-0.3489,-0.2474,-10.22,28.7,-26.25,0.3426655772452256,0.42964011424032306,-0.6749632644742476,0.49235583272367683,-127.13475736174954,-62.33099825025546,-148.5105898201335,0
1767557476.345302,1,left_wrist,0.8452,0.3714,-0.06,-8.12,4.27,5.39,0.6929250139070446,0.3023025741846189,-0.654329373371124,0.0179206553180148,95.6414696289023,-66.58307952619526,-68.90087988834851,0
1767557476.345302,2,right_wrist,1.0453,-0.3636,-0.2435,0.7,18.2,-18.48,0.3549369536414458,0.43161319720225944,-0.6661818464845674,0.49389427447074735,-126.4962902826722,-64.05935419736451,-149.1275183059501,0
1767557476.398278,1,left_wrist,0.8281,0.3157,-0.082,4.48,14.35,2.45,0.694092876413188,0.3021758953882588,-0.6529698878317619,0.023561255139473134,95.19777967190012,-67.02610498999101,-68.00996557727285,0
1767557476.398278,2,right_wrist,0.9394,-0.2782,-0.2484,17.22,-2.66,-1.75,0.3653447554256509,0.43652604885103496,-0.6565846119734372,0.4948382217221767,-126.3325597548175,-65.75237063574075,-148.97671292100395,0
1767557476.45567,1,left_wrist,0.795,0.2918,-0.0942,17.36,14.28,1.33,0.6933998135599927,0.30653325973013573,-0.6513053069773319,0.032178507382226856,95.41495583733388,-67.36235466727871,-67.13920281513109,0
1767557476.45567,2,right_wrist,0.8311,-0.285,-0.2274,10.78,-12.18,1.96,0.361213601579287,0.44312057998070736,-0.6560533530224723,0.4927097356655874,-127.8403966862337,-65.58984610694466,-146.93486418565683,0
1767557476.547727,1,left_wrist,0.8442,0.3182,-0.0991,16.94,3.15,0.35,0.685518698944104,0.3164866506967783,-0.6541337632445262,0.044825585464912075,98.50371971791184,-67.70083547665094,-68.31597824175928,0
1767557476.547727,2,right_wrist,0.7725,-0.3782,-0.181,27.16,-11.48,13.44,0.3479009432628187,0.4432297216099028,-0.6550278631946826,0.5034390191443817,-125.5613141175921,-64.42857342224673,-147.74456816548036,0
1767557476.5985029,1,left_wrist,1.0365,0.3216,-0.0654,13.93,-16.87,9.66,0.678110029102899,0.3151848172852457,-0.6618307961836389,0.05296523959978445,101.81048303155292,-68.58745130364585,-71.08451137475537,0
1767557476.5985029,2,right_wrist,0.9272,-0.4114,-0.2713,-16.03,-1.12,5.67,0.3391458715000718,0.4307157902642899,-0.667723788413011,0.503595997054029,-124.63459412878997,-62.464557101666095,-149.6466392612329,0
1767557476.654651,1,left_wrist,1.0365,0.3216,-0.0654,13.93,-16.87,9.66,0.6715320897507941,0.3136666893214601,-0.6685286249280945,0.061051929509205974,104.94129842039757,-69.419098273889,-73.69632868923185,0
1767557476.654651,2,right_wrist,1.0634,-0.5651,-0.2957,-50.47,1.12,-7.77,0.3482132068782924,0.42239446981049583,-0.6778633829794729,0.490746073285024,-126.61897006667245,-62.45635256629678,-150.04707886422017,0
1767557476.744092,1,left_wrist,0.9116,0.3655,-0.0947,-0.77,-9.59,11.06,0.6654586557813346,0.3123717256968255,-0.6751176550641095,0.061683338525280816,107.79697072831274,-69.56387628086934,-76.61604802116693,0
1767557476.744092,2,right_wrist,1.0575,-0.3538,-0.3416,-21.42,-9.59,5.32,0.35066838562441366,0.4224078917722701,-0.6839592396687919,0.4804196236247658,-129.0178555875996,-62.31950828002745,-148.7655229318285,0
1767557476.799888,1,left_wrist,0.8486,0.427,-0.0405,-14.07,-15.26,7.98,0.6643927053337053,0.3081530131091565,-0.6786763955622533,0.05497639236741618,108.35856759784305,-69.34113679102815,-78.09959988072569,0
1767557476.799888,2,right_wrist,0.7925,-0.2694,-0.2962,18.9,-25.97,12.11,0.33414475684874784,0.43047392006909585,-0.6955354281527312,0.4682626974201917,-132.915107459426,-60.22345103358264,-144.8539753992092,0
1767557476.852829,1,left_wrist,0.8867,0.3782,-0.0288,0.0,-22.4,8.33,0.6599400948969765,0.30672768983063436,-0.6838123916041713,0.052894314695583096,110.35537749306053,-69.22793995893062,-80.3900219359512,0
1767557476.852829,2,right_wrist,0.7037,-0.4089,-0.2391,-8.75,-14.7,0.7,0.3293229998287787,0.429405995818546,-0.6999185117310639,0.46612329857563395,-133.31570635493117,-59.46408024794911,-144.6321044834504,0
1767557476.9397628,1,left_wrist,0.936,0.429,-0.0737,-41.37,-8.33,-25.69,0.6646332442281259,0.2992029845144181,-0.6844717328878446,0.01544900003146638,107.12770873034815,-66.79342273390725,-80.87087551843415,0
1767557476.9397628,2,right_wrist,0.7398,-0.346,-0.2772,-14.77,5.95,-11.2,0.33552039300659525,0.4271589166414332,-0.6994664808474642,0.46444371885222097,-133.40701223089263,-60.01463484750508,-145.10564073915796,0
1767557476.9913201,1,left_wrist,0.895,0.5207,-0.1825,-88.76,-13.58,-70.56,0.6703537772077183,0.2973889101882091,-0.678863776316146,-0.03646399163826619,102.40547277788023,-62.68159051263167,-80.51486409648031,0
1767557476.9913201,2,right_wrist,0.8828,-0.3875,-0.3157,-12.11,15.82,-9.94,0.3452141554897195,0.4233830827973412,-0.6965081412093729,0.4652422608486936,-132.73950782587897,-61.02608611925989,-146.32982885092892,0
1767557477.047768,1,left_wrist,0.8613,0.8945,-0.1664,-133.98,1.19,-123.13,0.6831449425509808,0.2968798415097741,-0.6571799036792055,-0.11528192127275874,94.11119498072539,-56.04212703390196,-78.67938428208,0
1767557477.047768,2,right_wrist,0.935,-0.3987,-0.345,42.35,8.05,5.32,0.33692389830679226,0.4237545053156347,-0.6877499213841942,0.48364703204970744,-128.785396521942,-60.84841255591512,-148.16150994930462,0
1767557477.104379,1,left_wrist,0.956,0.9775,0.0102,-136.36,7.21,-194.25,0.6893095976786304,0.3131214940327368,-0.6173718767245112,-0.21368007476713052,86.57598455181648,-45.832428027210014,-77.8720845751322,0
1767557477.104379,2,right_wrist,0.8808,-0.5778,-0.1054,295.82,13.79,127.82,0.21214456557218583,0.4279773803040294,-0.6014659601980902,0.6403661015148118,-98.67750185382745,-53.448307591172174,-155.90558854731393,0
1767557477.18973,1,left_wrist,0.8003,1.2503,0.6227,-108.5,74.13,-273.0,0.6812602672369192,0.3845879888721535,-0.46682559987854183,-0.412371660517055,73.55403297101637,-18.59478787512779,-76.32660690806578,0
1767557477.18973,2,right_wrist,0.7442,-1.2864,0.366,347.76,42.14,204.12,0.0978090519175506,0.3859936171650081,-0.5295814565002641,0.7489898516014233,-78.87855287448292,-42.984957367584165,-158.98688956566386,0
1767557477.241156,1,left_wrist,0.57,1.2244,0.5714,-55.44,110.25,-269.92,0.6612441717421985,0.43657262423195914,-0.3745836494894589,-0.48150553334655727,70.17569767486715,-4.298822968360762,-75.14342110800514,0
1767557477.241156,2,right_wrist,0.7188,-1.3952,0.6983,285.18,94.85,253.54,-0.012741041449845204,0.3009541807002876,-0.46715490468005405,0.8312824682472028,-64.00970967956366,-29.238872815291472,-159.7255960104873,0
1767557477.293227,1,left_wrist,0.57,1.2244,0.5714,-55.44,110.25,-269.92,0.6302067332031517,0.4810266476872917,-0.27967431251730934,-0.5415118803480752,67.27477635533319,9.698177131562977,-74.8811711599218,0
1767557477.293227,2,right_wrist,0.6432,-1.3278,1.0448,224.56,168.7,257.88,-0.10099025502075659,0.18049884848833672,-0.4126096384313548,0.8871157874588717,-52.282950964218266,-13.704098994461809,-160.2603847298752,0
1767557477.349293,1,left_wrist,0.1381,0.874,0.3504,-16.31,125.09,-230.72,0.5926397613751265,0.5289502428029786,-0.19529550952367625,-0.5751951128406696,66.84902116993604,22.149180486286614,-73.56683133752574,0
1767557477.349293,2,right_wrist,0.3221,-0.9257,0.8935,108.43,238.21,195.09,-0.18797633028165148,-0.08596144197399991,-0.3560938481866112,0.9113027493820287,-40.12856387156961,16.890780386290054,-162.89809024312638,0
1767557477.4008892,1,left_wrist,-0.0307,0.7388,0.2913,-0.63,120.75,-202.44,0.5516618759883498,0.5719448328790294,-0.12023737723074597,-0.5950556745722748,67.7413344446852,33.231096316352534,-71.68130565278078,0
1767557477.4008892,2,right_wrist,0.0996,-0.6837,0.7261,40.53,240.31,162.68,-0.21057320574197624,-0.2041126653112222,-0.351146146841831,0.8892093839142902,-38.788283164846916,30.722579490513844,-164.402533042979,0
1767557477.457706,1,left_wrist,-0.1728,0.5978,0.225,4.62,110.39,-172.34,0.5120001173920121,0.6073127739677394,-0.055309363612511986,-0.6049528482972489,69.59569524219066,42.69958786392398,-69.11901362311667,0
1767557477.457706,2,right_wrist,-0.1205,-0.5373,0.5241,37.59,212.87,126.0,-0.22055998977055039,-0.30366068388221634,-0.34421810662276325,0.8606145333711485,-38.3956350030183,42.41619423519684,-166.64052900937727,0
1767557477.5406232,1,left_wrist,-0.6061,0.4309,0.2098,-35.07,94.01,-135.52,0.45517926232829575,0.6390011550939044,0.07252855253628863,-0.6158156964562653,70.65843183675105,58.54396769985066,-63.72361241734081,0
