timestamp,node_id,node_name,ax,ay,az,gx,gy,gz,qw,qx,qy,qz,roll,pitch,yaw,rep_number
1767366222.52622,1,left_wrist,0.4875,0.8955,0.5534,-106.47,135.87,-199.64,0.07475371629332583,0.12079469688590681,-0.4077113604205716,-0.9019933312883114,49.73141007385157,9.030263815459886,-166.33279402952496,1
1767366222.52622,2,right_wrist,-0.1015,-0.8081,0.6041,31.01,124.25,162.33,0.17484616135430925,-0.2398474687524874,-0.3698849202497094,0.8803903437479046,-50.25500568328671,17.036021756257536,149.49793396731772,1
1767366222.579125,1,left_wrist,0.2918,0.7998,0.6051,-55.44,147.7,-168.21,0.03966445256682503,0.2018209409852534,-0.3717368105925668,-0.9052661391175896,47.017396349298764,19.62811850377276,-166.37598638778806,1
1767366222.579125,2,right_wrist,-0.1015,-0.8081,0.6041,31.01,124.25,162.33,0.13743638647964362,-0.30658809386381813,-0.332803687855916,0.8811110518668296,-48.640971073641516,26.666568122074214,150.0411523906039,1
1767366222.6788118,1,left_wrist,-0.1703,0.6178,0.5353,-38.43,147.35,-116.76,0.00591470481766863,0.3433378529309648,-0.31495577652740775,-0.8848090154624854,44.77478145139787,37.14621417916468,-163.47365207833718,1
1767366222.6788118,2,right_wrist,-0.5178,-0.6207,0.4631,14.63,105.56,87.64,0.10289067489735275,-0.4177630385936867,-0.2627516437802614,0.8636255706583192,-46.465698257662396,41.87535185103296,147.75680797166007,1
1767366222.72882,1,left_wrist,-0.428,0.5031,0.5544,-12.25,119.35,-85.82,-0.02119517246126549,0.4490058216877112,-0.277317473102941,-0.8491404806430323,45.57311924018578,50.74103371765069,-160.327295271858,1
1767366222.72882,2,right_wrist,-0.6359,-0.3392,0.4128,49.77,96.67,76.65,0.09152024691037251,-0.46237966841735423,-0.22172688637425253,0.8536195138927538,-44.33312170974465,48.48719528349843,146.96793247840642,1
1767366222.781378,1,left_wrist,-0.6564,0.1435,0.2035,-47.46,85.89,-69.72,-0.029521317847981312,0.4922822486429401,-0.24434193912269317,-0.8349153826881687,43.745640957643545,56.76761005226742,-159.57270245381446,1
1767366222.781378,2,right_wrist,-0.6852,-0.2606,0.3196,-39.27,85.54,67.41,0.06436177478726926,-0.5046213212886386,-0.2163221772517712,0.8333184263390524,-46.97473784085249,54.40728129836318,145.98479679008,1
1767366222.8356202,1,left_wrist,-0.7144,0.2865,0.1952,27.37,61.11,-44.24,-0.045394773879842434,0.5215685481885999,-0.2460350781547932,-0.8157035640244553,46.593501912502305,60.83595585679858,-157.99483116623085,1
1767366222.8356202,2,right_wrist,-0.771,-0.5412,0.2464,-1.54,62.3,57.89,0.05020562610257995,-0.5339069891315019,-0.20541435564969582,0.818674333637743,-48.45863715049226,58.601670181692185,144.6334827855127,1
1767366222.922056,1,left_wrist,-0.7554,0.3723,0.08,11.97,46.48,-28.35,-0.05242391616195864,0.5430092266345156,-0.24678022488208431,-0.800932102872133,49.550814152181495,63.59866696400841,-155.55152805479898,1
1767366222.922056,2,right_wrist,-0.7564,-0.3113,0.0151,17.01,44.38,37.45,0.03185301110189329,-0.5824062470819813,-0.18006553678682116,0.7920636031944018,-51.461878508959785,65.66258010367328,140.84725370786677,1
1767366222.981378,1,left_wrist,-0.7364,0.2313,0.0005,-8.82,8.89,-14.14,-0.060814419912604514,0.5713893349323195,-0.24219324247987137,-0.7817661207505614,53.38849429160261,67.34536234689305,-151.85518324587764,1
1767366222.981378,2,right_wrist,-0.6549,-0.082,-0.121,-14.98,-27.86,-23.8,0.032859758129590105,-0.5743171776474609,-0.19109432434881166,0.7953382770597619,-51.96774418592385,64.2890652959193,141.212443107026,1
1767366223.0330791,1,left_wrist,-0.6481,0.0468,-0.124,34.16,-33.74,21.14,-0.06683775901711109,0.559922519011236,-0.257645017618161,-0.7846263643099306,53.90412647169298,65.93743516459386,-153.2316278555268,1
1767366223.0330791,2,right_wrist,-0.5056,-0.0112,-0.1523,15.54,-88.62,-65.52,0.050540192024576124,-0.5407968389898145,-0.20237522835295835,0.8148795830537366,-49.09036843506828,59.4191864240346,143.6905618431162,1
1767366223.120095,1,left_wrist,-0.3094,0.0156,-0.1688,13.09,-150.64,116.69,-0.04765910892835522,0.49683708843626434,-0.28549300294725305,-0.8181535688111925,50.725038261089765,57.16026870982767,-157.70840021402836,1
1767366223.120095,2,right_wrist,-0.2401,-0.4748,0.3802,-23.87,-197.54,-132.93,0.09859734745636005,-0.38434215177930453,-0.26559930325423986,0.8786447994218632,-43.914769078298725,38.53742477543371,151.1500250325964,1
1767366223.171133,1,left_wrist,-0.3094,0.0156,-0.1688,13.09,-150.64,116.69,-0.02853857429310863,0.4306939888281228,-0.311548566871057,-0.8465374937031603,49.14811264477752,48.32940793321784,-160.67217289306322,1
1767366223.171133,2,right_wrist,-0.2362,-0.6842,0.6739,3.01,-193.55,-151.83,0.1360381173381395,-0.2868522052914379,-0.29817733934717067,0.9001664941833679,-43.07590962259033,25.80454526945855,152.48029856020676,1
1767366223.224926,1,left_wrist,0.1249,0.8023,0.731,-86.24,-243.74,169.26,0.04600792803099446,0.20146079432874323,-0.338641372129876,-0.9179427215184625,42.87984750459702,19.797603377821336,-166.420850733964,1
1767366223.224926,2,right_wrist,0.0151,-0.4695,1.0843,-11.06,-210.7,-139.09,0.16184819301928388,-0.18177674146736275,-0.3292032469608875,0.9123527831208216,-42.60314092807019,13.010354012702662,154.7896657110556,1
1767366223.283978,1,left_wrist,0.3421,1.564,0.8076,39.2,-222.81,159.81,0.07493305611280193,0.08551298640175886,-0.3731654285387683,-0.9207714858756898,44.72085044028836,5.8284902116346,-168.29561996413062,1
1767366223.283978,2,right_wrist,-0.0137,-1.0331,0.6481,-230.16,-185.64,-141.68,0.17261169743740715,-0.10114728871724363,-0.44415458213759845,0.8733276218344997,-54.18632572484714,1.3372266734733291,156.95525979480112,1
1767366227.4208388,1,left_wrist,0.2011,0.4543,0.5719,-35.28,232.54,-159.74,0.02308698167773001,0.22642622530594475,-0.32755472278690606,-0.9170093016707663,41.8294987040367,23.58726905608156,-167.9913777424127,4
1767366227.4208388,2,right_wrist,-0.0712,-0.5636,0.4119,33.81,172.34,160.23,0.03656085305847028,-0.35914105724227746,-0.44332690362761734,0.8204524736671135,-65.15671884326859,33.841648782925965,152.89533197628154,4
1767366227.4814668,1,left_wrist,-0.0483,0.4363,0.4973,-55.09,212.03,-130.48,-0.016623157321459275,0.42922991068163363,-0.25257912633708235,-0.8670000803666047,40.0569097836591,48.82324332594461,-163.40801150302812,4
1767366227.4814668,2,right_wrist,-0.3187,-0.5319,0.3601,37.8,152.18,136.57,0.023909038604597376,-0.43522353740261366,-0.4029705066733559,0.8047506453027412,-66.11743815243415,42.93933129364938,147.8794614989078,4
1767366227.54225,1,left_wrist,-0.1976,0.447,0.2011,10.08,179.55,-94.08,-0.031725125300562255,0.5037329494602283,-0.24306171344439814,-0.8283523619271185,44.720952436643294,58.207219365105786,-158.59037940546636,4
1767366227.54225,2,right_wrist,-0.3187,-0.5319,0.3601,37.8,152.18,136.57,0.01143347448637829,-0.5074357500810573,-0.36068338849539827,0.7824868870877785,-68.67970395021835,51.80176216523717,141.6198133490089,4
1767366227.619732,1,left_wrist,-0.4431,0.3299,0.0093,3.29,141.47,-82.74,-0.045832752590481335,0.5637420140472953,-0.23042765318847916,-0.7918316721588806,50.502445966452264,66.0499683993516,-152.53536397451563,4
1767366227.619732,2,right_wrist,-0.57,-0.1401,-0.0971,-27.09,97.72,80.43,-0.02207966985681838,-0.6104296336315382,-0.3118040486408133,0.7277818256968754,-81.95898082432005,64.46049654451745,126.05957105781252,4
1767366227.676191,1,left_wrist,-0.7222,0.1835,-0.02,15.68,45.5,-22.33,-0.053305569694845095,0.5841708182105054,-0.23150772809148115,-0.7760844949003283,54.70423335158858,68.6561787478236,-148.94751583952586,4
1767366227.676191,2,right_wrist,-0.7525,-0.1152,-0.1693,-8.82,15.75,2.17,-0.02508582819762511,-0.6186583587691766,-0.3131201704017039,0.720130748709063,-84.77049713448139,65.05860279242505,123.58447248805244,4
1767366227.727197,1,left_wrist,-0.7593,0.1444,-0.0947,2.73,5.39,1.4,-0.06100470084303387,0.608642770011051,-0.23396866281200854,-0.7557056767090528,61.82672178895116,71.52390690151397,-142.5725390625202,4
1767366227.727197,2,right_wrist,-0.7525,-0.1152,-0.1693,-8.82,15.75,2.17,-0.02818480485885762,-0.6267756268429444,-0.3143409603451407,0.7124238141864692,-87.68417221091882,65.61323241804637,121.00966202108786,4
1767366227.7791739,1,left_wrist,-0.7413,0.1796,-0.1005,9.94,-31.15,24.99,-0.05881243707648686,0.598350848681326,-0.2435521938289078,-0.7610516986437829,61.1693915612473,69.95097961311617,-143.91032743023163,4
1767366227.7791739,2,right_wrist,-0.5978,-0.04,-0.0859,2.45,-80.85,-58.66,-0.02341800134597535,-0.5959026324741723,-0.3261687175355138,0.7334613947063263,-80.29835327261684,62.8004033047798,129.16894608735632,4
1767366227.87099,1,left_wrist,-0.608,0.1786,-0.1571,11.27,-77.07,54.6,-0.051749336862502486,0.5691416084949376,-0.26028296025689296,-0.7782368638236017,57.96191978990278,65.89420904569285,-148.11602369274217,4
1767366227.87099,2,right_wrist,-0.3543,-0.161,0.1161,28.63,-161.35,-136.08,0.018990469026428255,-0.467030227437094,-0.36080297151808854,0.8070584517182938,-63.17966776721561,47.743151010895964,146.85569702307927,4
1767366227.9252648,1,left_wrist,-0.4851,0.2352,0.0542,2.24,-123.83,89.88,-0.03416589026002335,0.5173662110825821,-0.2826713829298265,-0.8070079211788026,54.08309283999419,58.688297265782055,-152.82552252902082,4
1767366227.9252648,2,right_wrist,-0.3187,-0.671,0.2791,-101.36,-176.54,-165.06,0.03122829142782742,-0.37407176581918605,-0.43121281443359394,0.8204575653253943,-64.52504575259044,35.936476702230316,152.50088557599636,4
1767366227.979855,1,left_wrist,-0.0776,0.7413,0.2664,-5.74,-216.02,162.68,0.0346363786626359,0.3080105455529075,-0.342794193905848,-0.886804355946552,47.570443189022434,31.503045683154912,-161.3538228361399,4
1767366227.979855,2,right_wrist,-0.0107,-0.7515,0.5714,83.72,-196.63,-183.47,0.07500570226527611,-0.26232155220148456,-0.43071646577569767,0.8602586087845844,-57.80560587873934,22.75033571529443,157.3579747267961,4
1767366228.034602,1,left_wrist,0.1918,1.1634,0.6871,162.47,-227.99,185.36,0.052072049183935994,0.188689836032469,-0.4316555535650442,-0.8805442240729769,54.50542095115352,16.699078328601843,-164.58481889830117,4
1767366228.034602,2,right_wrist,-0.0107,-0.7515,0.5714,83.72,-196.63,-183.47,0.11773967856817015,-0.14599861340204026,-0.42358351115049403,0.8862272744938315,-52.68201728059921,9.150641020558526,160.3266161910703,4
1767366228.119049,1,left_wrist,0.6803,1.2395,0.7852,-97.93,-216.16,188.79,0.09340899363118589,0.06302193662965237,-0.411822328676748,-0.9042706259829066,49.20840352167147,2.1228332550543922,-167.23261521451658,4
1767366228.119049,2,right_wrist,0.3392,-1.6631,0.6568,-70.77,-207.76,-184.94,0.17196964063024164,0.08026858361526647,-0.5144624015855002,0.8362486678858054,-61.20428444994198,-18.131130119104764,167.5410171288368,4
1767366228.177508,1,left_wrist,0.6803,1.2395,0.7852,-97.93,-216.16,188.79,0.1324461784768902,-0.06368333009450815,-0.38541614378032785,-0.9109647849332284,44.6070347827355,-12.598655054980725,-168.64070388458538,4
1767366228.177508,2,right_wrist,0.6368,-1.1702,0.6061,-120.75,-179.2,-158.9,0.19466211040835027,0.1749324320511554,-0.5629487930340362,0.7839604348495891,-69.47374913048354,-29.567580986799804,172.8499841943985,4
1767366228.934467,1,left_wrist,0.896,0.9282,0.8789,-30.94,254.03,-206.57,0.00421829873691348,0.1414478270909399,-0.36047683604837344,-0.9219713492509254,43.565547580346134,14.938404933568073,-173.47742184274927,5
1767366228.934467,2,right_wrist,0.51,-0.9677,0.7242,30.59,220.92,210.91,0.11586165701545019,-0.11518332401668537,-0.5202235830302612,0.8382578970467611,-64.32011710078426,4.160965500121796,161.64424896385077,5
1767366229.020851,1,left_wrist,0.6666,0.8394,0.833,-47.88,252.63,-196.28,-0.030004465321986196,0.2671687011606507,-0.32620665732355875,-0.906261460009562,41.752846053005676,30.253364835500825,-172.01995401593723,5
1767366229.020851,2,right_wrist,0.2128,-0.8252,0.5007,18.13,215.74,187.74,0.07231469901231193,-0.3484438388788026,-0.4449257451886208,0.821826354361134,-65.19634769932213,30.555404751730766,150.12633739009974,5
1767366229.079603,1,left_wrist,-0.1928,0.4114,0.2533,-23.31,177.73,-104.44,-0.0681110524908149,0.462129109569117,-0.27978602157155796,-0.838759412913267,44.30925731028727,54.4238811566963,-165.63526335936857,5
1767366229.079603,2,right_wrist,0.0512,-0.5553,0.3172,55.65,181.86,161.91,0.06003304241533162,-0.4376612937854704,-0.39333643776767435,0.8063095388649596,-65.88365551565063,41.189730239620495,144.11483313243278,5
1767366229.1378791,1,left_wrist,-0.1928,0.4114,0.2533,-23.31,177.73,-104.44,-0.07734841842605147,0.5359067279165584,-0.25707724281069816,-0.8004576768134625,48.24088030827661,63.85871560778477,-159.85860560315618,5
1767366229.1378791,2,right_wrist,-0.5183,-0.5139,0.246,27.09,127.26,102.62,0.04851316603432778,-0.4989686552723805,-0.3562327522836012,0.7885270952715882,-67.86165569535703,48.79319327459077,139.02211786804003,5
1767366229.21894,1,left_wrist,-0.4168,0.3694,0.0566,-16.94,148.19,-78.05,-0.08110960915444813,0.5953450892817638,-0.24117982751407133,-0.7621139985403654,57.18180520633829,71.18514165909654,-149.53007355742216,5
1767366229.21894,2,right_wrist,-0.7213,-0.1747,-0.1767,-35.84,68.88,55.37,0.015255102414376987,-0.5817008832458064,-0.32710031145478713,0.7445782366733242,-77.78848500159059,58.89962882190795,128.67450496719337,5
1767366229.285014,1,left_wrist,-0.7286,0.265,-0.0917,-6.51,67.06,-38.43,-0.08424703334633503,0.6238107909214295,-0.23299062755004368,-0.7412677667187203,64.7862694589712,74.59650463445935,-141.37979907533858,5
1767366229.285014,2,right_wrist,-0.7213,-0.1747,-0.1767,-35.84,68.88,55.37,-0.0038894461448929366,-0.6146917270335462,-0.32327319222085105,0.7194674392330365,-85.61581602770235,62.50065017156081,121.94057706560076,5
1767366229.3359811,1,left_wrist,-0.7564,0.2596,-0.1254,9.38,21.21,-15.75,-0.09281888348428291,0.6441328546116306,-0.23562787337900212,-0.7217735280304287,74.98917837336475,76.79965258366965,-132.05219626283673,5
1767366229.3359811,2,right_wrist,-0.7666,-0.1176,-0.2406,8.47,-12.67,-14.14,-0.0010784443223251952,-0.6118353306724474,-0.3235325564156977,0.7217915558095037,-84.85076228754055,62.12049740900887,122.50931519804978,5
1767366229.385994,1,left_wrist,-0.6539,0.1205,0.0512,34.09,-83.51,42.14,-0.10066848440704455,0.6112768996271397,-0.2512753307920112,-0.7436848232717848,63.239771829018096,73.69600493385842,-145.88123142610078,5
1767366229.385994,2,right_wrist,-0.7271,-0.225,-0.0063,22.82,-64.68,-28.84,0.0016689776970755274,-0.5895885526222194,-0.3212699242845443,0.7410588295678598,-78.37741849727607,60.78181832712268,128.63404364026408,5
1767366229.4691598,1,left_wrist,-0.6539,0.1205,0.0512,34.09,-83.51,42.14,-0.10732606023295144,0.58044883731022,-0.26782040154004016,-0.761467331261833,57.17967054293185,70.30056540047768,-154.05809223011414,5
1767366229.4691598,2,right_wrist,-0.4192,-0.1108,-0.0327,3.43,-126.42,-109.76,0.012118630368992125,-0.5022100181099333,-0.36712323246576667,0.7828529674797732,-68.94123204420951,51.02451394415585,141.9448895701882,5
1767366229.5215201,1,left_wrist,-0.6154,0.1352,-0.0981,41.44,-96.11,86.31,-0.1004432961863792,0.5386817335059155,-0.2989950838828786,-0.7812394473221047,56.13993096291546,64.38812356814431,-157.53410355752987,5
1767366229.5215201,2,right_wrist,-0.4192,-0.1108,-0.0327,3.43,-126.42,-109.76,0.027668912324753613,-0.4439776326849955,-0.38864853675958955,0.8068894644502569,-65.01798682574405,44.02520785083962,147.17654927497736,5
1767366229.576981,1,left_wrist,0.1806,0.5622,0.4929,20.23,-223.86,203.77,-0.023870995742097785,0.35336582702653163,-0.35480125562021936,-0.8652622936788887,50.14374265205976,38.93565028648867,-164.38011216041545,5
1767366229.576981,2,right_wrist,-0.0761,-0.8316,0.3426,-38.36,-210.28,-189.35,0.053463246126904014,-0.332324432908374,-0.4399371958768232,0.8325607583172171,-62.96012615857205,30.41899109118872,153.7484647189172,5
1767366229.627384,1,left_wrist,0.1806,0.5622,0.4929,20.23,-223.86,203.77,-0.023870995742097785,0.35336582702653163,-0.35480125562021936,-0.8652622936788887,50.14374265205976,38.93565028648867,-164.38011216041545,5
1767366229.627384,2,right_wrist,0.163,-0.4939,1.0106,103.25,-238.98,-186.97,0.0906304428089736,-0.20216489062242674,-0.42947608741873106,0.8754803082716196,-55.13929959630953,16.029696692339158,159.7702853123863,5
1767366229.692288,1,left_wrist,0.4939,0.915,0.711,164.64,-201.88,224.91,0.07043928132454888,0.11099999927721486,-0.44469797230151203,-0.8859802600723466,54.18813762566767,7.703065467406877,-166.96335751140535,5
1767366229.692288,2,right_wrist,0.1425,-1.3552,0.7139,-227.64,-212.38,-191.59,0.10484104254755533,-0.08926880012557672,-0.536947177018689,0.8323023286122312,-65.93943853670582,2.0636131058910183,164.30243003786114,5
1767366229.7488089,1,left_wrist,0.8067,1.8183,0.8081,54.81,-212.87,167.86,0.09277711649704833,-0.005921467887806064,-0.4789775757221617,-0.8728904999069858,57.05909451909411,-5.69390531509969,-170.96307305100416,5
1767366229.7488089,2,right_wrist,0.6788,-1.0663,0.9238,96.81,-217.77,-214.9,0.13642552218066775,0.0477804660492352,-0.5134911523811013,0.845832099407547,-61.31799705550892,-12.7639619020757,169.2618557615083,5
1767366230.532463,1,left_wrist,0.5041,0.7086,0.5998,-21.35,265.02,-161.42,-0.02401054200613974,0.2430984287397922,-0.35259610106932693,-0.9033286430350387,44.64435678238217,27.13750914034144,-171.7268295775653,6
1767366230.532463,2,right_wrist,0.608,-1.1522,0.853,65.66,251.93,213.92,0.04888443212503394,-0.16709653381662146,-0.3941536251774107,0.9024034466034517,-48.96161580304042,15.25058254712278,166.8219003219753,6
1767366230.6176739,1,left_wrist,0.5041,0.7086,0.5998,-21.35,265.02,-161.42,-0.042445667645905696,0.36574508114204707,-0.328043306056514,-0.8699520045784153,46.21837104252437,41.62169876390498,-167.1613865506091,6
1767366230.6176739,2,right_wrist,-0.0776,-0.5305,0.1752,10.92,188.23,144.27,-0.004640225292599001,-0.38122098185472825,-0.34177388592946556,0.8589759264377689,-50.8153880632543,41.154451804645824,160.39703287231626,6
1767366230.6811311,1,left_wrist,0.2357,0.57,0.4324,7.42,244.72,-135.73,-0.05793785499580046,0.47154579092534954,-0.3129247379304592,-0.8224146645155506,51.999880025059895,54.27930714331861,-159.9858321123749,6
1767366230.6811311,2,right_wrist,-0.3875,-0.4148,0.3118,29.33,132.44,123.41,-0.02367811884617598,-0.4449344876056954,-0.3124897594607973,0.8389414751096148,-50.91467225047585,49.58303155514054,158.43098504262863,6
1767366230.737246,1,left_wrist,-0.6061,0.1986,-0.0752,6.16,104.09,-67.83,-0.0827076282304702,0.5794385822109654,-0.2763396972487401,-0.7622642254509333,61.6258917190745,68.29207279483168,-148.33738101791724,6
1767366230.737246,2,right_wrist,-0.3875,-0.4148,0.3118,29.33,132.44,123.41,-0.04277178357519362,-0.5059238390939216,-0.28027211607322206,0.8146527999817486,-51.31645893283651,58.02508487581015,156.17542351047214,6
1767366230.826744,1,left_wrist,-0.7457,0.243,-0.0664,-41.86,54.04,-39.83,-0.07875878435432086,0.6059366576528524,-0.2552154758287876,-0.7493349596121917,64.74417007062195,71.49572237500414,-142.94254256198118,6
1767366230.826744,2,right_wrist,-0.6154,-0.0185,-0.0996,15.89,56.28,39.2,-0.06674494858661856,-0.5892675975386943,-0.25175910443087385,0.7648046571937894,-59.74213706694457,69.22111882234027,146.73078894559265,6
1767366230.887619,1,left_wrist,-0.7457,0.0952,-0.002,3.85,19.25,-17.64,-0.08110446948434454,0.6419548016808025,-0.22930570833910663,-0.7271416572798765,72.8839755104574,76.11506030310771,-132.66500934616488,6
1767366230.887619,2,right_wrist,-0.6422,0.0327,-0.1606,-15.33,-39.34,-9.87,-0.07337372633763554,-0.5778229092183027,-0.25716911913078366,0.7711037712469858,-57.32754784473123,68.2580740219435,150.20952598503814,6
1767366230.9834712,1,left_wrist,-0.6812,0.0805,-0.2274,50.19,-22.12,9.1,-0.09486806330059017,0.6349898491071646,-0.24706363105219722,-0.7257737280363346,73.28934787040264,75.60268091910189,-134.9210691466519,6
1767366230.9834712,2,right_wrist,-0.4392,-0.2879,-0.041,60.69,-129.5,-85.05,-0.0406054368857101,-0.49792684138754134,-0.27090373348720453,0.8228190726422427,-48.60189501031057,57.28907261735834,157.9404195131761,6
1767366231.076483,1,left_wrist,-0.4695,-0.1357,-0.306,31.78,-134.33,97.51,-0.08195512598479643,0.5274396554853061,-0.3056089189115388,-0.7884757167015851,57.000509073706574,61.865021748101526,-155.82105438513267,6
1767366231.076483,2,right_wrist,-0.3182,-0.0195,0.144,-5.74,-185.85,-112.35,-0.010721174330294904,-0.334042113002087,-0.30492988734293847,0.8918064178772787,-42.25043470286522,37.037687587869996,166.6290629018761,6
1767366231.1304462,1,left_wrist,0.0917,0.4621,0.2401,-14.7,-273.21,183.33,-0.02916642685576786,0.3040342057391195,-0.36517383645233187,-0.8794092280933464,48.7128767092265,33.78255684079323,-168.14474325122688,6
1767366231.1304462,2,right_wrist,-0.2196,-0.6378,0.2987,-39.34,-203.35,-156.1,0.019217338970649263,-0.2306457107800959,-0.34370206250428853,0.9101110603722656,-43.98602555598632,23.992455470659483,167.77045017798216,6
1767366231.187789,1,left_wrist,0.6173,1.3474,0.9853,79.03,-246.33,234.22,0.012867999926420355,0.16517312547473506,-0.4197465019010883,-0.8923929220587761,51.79120021268865,16.498847631478142,-170.2953682142897,6
1767366231.187789,2,right_wrist,0.2987,-0.8247,0.956,-65.73,-248.43,-184.24,0.049744813675129174,-0.09953097401972058,-0.3870368840158345,0.9153258923107254,-46.54932516986382,8.262029464108535,170.21957551553075,6
1767366232.020726,1,left_wrist,0.9008,0.5695,0.9443,3.43,282.45,-193.97,-0.07747540876975055,0.22828035063721452,-0.311918634308042,-0.9190170880458733,37.495016417316634,27.89930755940075,-179.99952405649165,7
1767366232.020726,2,right_wrist,0.307,-0.7242,0.5422,39.2,246.05,170.59,0.00830374199433651,-0.22483863054815117,-0.34578043113497425,0.9109415631785799,-43.845736607070826,23.821409903397317,169.25100640733848,7
1767366232.0777018,1,left_wrist,0.691,0.8296,0.7535,20.23,292.6,-164.78,-0.10315985700589021,0.3598872914304439,-0.3114443024326822,-0.8734080534616125,40.65891865734702,43.86122350731077,-176.5038882029767,7
1767366232.0777018,2,right_wrist,0.307,-0.7242,0.5422,39.2,246.05,170.59,-0.016465330678001683,-0.3415821818915705,-0.31174607937520266,0.8864902074439671,-43.4158757640674,38.01621946368901,166.51014613462263,7
1767366232.135027,1,left_wrist,-0.2542,0.2108,0.0234,35.07,201.25,-104.93,-0.1317048664180465,0.5575205865574948,-0.28625803615969914,-0.768037082737796,53.78532914646254,68.71655126301702,-161.21594269215262,7
1767366232.135027,2,right_wrist,-0.2113,-0.2606,0.0454,-20.93,172.9,129.5,-0.04516740204074642,-0.4254310868872754,-0.3036912848023958,0.8513165684032418,-46.54133608250067,48.74540775880091,164.02359397551854,7
1767366232.2295191,1,left_wrist,-0.2542,0.2108,0.0234,35.07,201.25,-104.93,-0.14647076217877894,0.6323197273034461,-0.2864470437245248,-0.7047454642856125,80.58333210388062,77.2030517366335,-135.29872010025082,7
1767366232.2295191,2,right_wrist,-0.4934,-0.2723,0.0146,10.78,116.34,105.7,-0.08754982600497875,-0.5406921711911004,-0.26189588280210885,0.7946052797146869,-49.14026927186771,64.84101128732776,160.1904268466464,7
1767366232.325217,1,left_wrist,-0.6188,-0.0044,-0.3211,-27.72,69.23,-33.32,-0.13495135609224365,0.6905796687253886,-0.2593467601852284,-0.6615339073799789,119.40036687520109,79.63518057293432,-93.11470446818062,7
1767366232.325217,2,right_wrist,-0.7715,0.0244,-0.2489,-28.0,-1.47,-3.99,-0.09967081260973257,-0.5606559477109814,-0.26319384822570924,0.7787551833960139,-52.01960761389595,67.77307747123633,158.29709519349709,7
1767366232.380022,1,left_wrist,-0.7388,0.1186,-0.0405,4.97,21.35,-7.7,-0.13809587867595483,0.6994450921205629,-0.2588607473900248,-0.6516879658715903,127.94913354281366,79.46239951757404,-84.79595340546506,7
1767366232.380022,2,right_wrist,-0.7305,-0.122,-0.1132,7.98,-51.31,-33.53,-0.09280223493576419,-0.5427634673726007,-0.2665987769886256,0.7910250664705689,-50.074767000474424,65.2524315586048,160.08656859694122,7
1767366232.43258,1,left_wrist,-0.7388,0.1186,-0.0405,4.97,21.35,-7.7,-0.13809587867595483,0.6994450921205629,-0.2588607473900248,-0.6516879658715903,127.94913354281366,79.46239951757404,-84.79595340546506,7
1767366232.43258,2,right_wrist,-0.5627,-0.0122,-0.1444,-24.64,-85.89,-73.99,-0.08413255459291831,-0.5064722205383909,-0.28843547476433734,0.8082156766470521,-49.92308682606495,60.13616300421125,161.72120110929873,7
1767366232.483835,1,left_wrist,-0.2821,0.4202,-0.059,-53.06,-165.2,113.05,-0.10556907194190164,0.6011447506227275,-0.29939074982558483,-0.7333793961974514,72.57663630344214,70.89969244568393,-141.18408459539387,7
1767366232.483835,2,right_wrist,-0.3411,-0.1303,0.019,65.31,-156.17,-116.34,-0.048430968953127235,-0.4406771376090836,-0.2853716978861457,0.8497182448791507,-44.58543706509769,50.945269558387665,164.42153221758065,7
1767366232.536757,1,left_wrist,-0.102,0.1405,0.1532,40.04,-241.57,160.93,-0.09427430387650107,0.4940020250325627,-0.3409284110013379,-0.7942557355565217,58.06874829822877,58.10409577586678,-159.26352326990764,7
1767366232.536757,2,right_wrist,-0.2015,-0.3758,0.1435,-71.89,-180.6,-150.15,-0.026295146376170454,-0.3495878719132927,-0.33887953301835766,0.873073620715602,-47.47172594442964,38.921398822662844,165.78709271517576,7
1767366232.59293,1,left_wrist,0.1864,0.9233,0.3577,-23.94,-253.12,188.16,-0.05868432001526386,0.372721427490533,-0.3612210466650449,-0.8527333953352448,51.13612584748337,42.69223307292761,-166.69219538390573,7
1767366232.59293,2,right_wrist,-0.2015,-0.3758,0.1435,-71.89,-180.6,-150.15,-0.004801692869202321,-0.25554126065410526,-0.38869353790021827,0.8852078521135656,-50.40120597728938,27.138760788584218,167.66198810367328,7
1767366232.67278,1,left_wrist,0.4499,0.4973,0.7208,-40.81,-282.1,213.99,-0.015319854070858223,0.22867053731440953,-0.36908117074283775,-0.9006964954071283,46.55973581388728,25.038935151316394,-171.0341833821021,7
1767366232.67278,2,right_wrist,0.3372,-0.671,0.7608,-150.71,-230.44,-198.31,0.061512040110130756,-0.0016385055030609553,-0.4723252193837449,0.8792738318381274,-56.31277746930222,-3.1658265376943526,173.69117697896147,7
1767366232.726298,1,left_wrist,0.4499,0.4973,0.7208,-40.81,-282.1,213.99,0.028653322490037984,0.0784266405875309,-0.36761384461689456,-0.9262226030509199,43.69577201474658,7.135387084302805,-173.592185001911,7
1767366232.726298,2,right_wrist,0.3372,-0.671,0.7608,-150.71,-230.44,-198.31,0.09067028766794753,0.12538139549908695,-0.52831260618376,0.8348318362066915,-64.47647220227213,-17.767144763723373,178.8623334647704,7
1767366233.5224562,1,left_wrist,1.039,1.0102,0.9213,-22.47,265.58,-204.96,-0.05943765541520432,0.1389919113951014,-0.34480960087491774,-0.9264203974600083,40.699169487171126,17.368686463227775,179.14287458277545,8
1767366233.5224562,2,right_wrist,0.3894,-0.6769,0.6905,84.07,225.33,199.29,0.04865965219584306,-0.10583964552294048,-0.489253238590851,0.8643271812294935,-59.768738687847325,7.778649841904445,169.08085724873143,8
1767366233.5764852,1,left_wrist,0.8316,0.9252,0.9135,-53.27,276.29,-210.77,-0.09712499368309467,0.276514214740969,-0.31476798446714677,-0.9027888682315119,38.4160443526082,34.08426650265396,179.91068302978263,8
1767366233.5764852,2,right_wrist,0.1728,-1.1014,0.6734,75.18,235.13,176.96,0.03770853277387932,-0.2247369531649759,-0.4442836505339902,0.8664198787576125,-57.34744894060991,20.850241677332214,163.52426799459408,8
1767366233.632236,1,left_wrist,0.1723,0.4446,0.4192,-43.68,237.65,-149.52,-0.13274641117674818,0.49066006422699104,-0.25808009016559225,-0.8215995123857964,37.32768230096982,61.017831986669584,-175.8422360600002,8
1767366233.632236,2,right_wrist,-0.0547,-0.2552,0.3216,45.99,198.73,169.96,0.017025352673487003,-0.3279121244139353,-0.40201774550424874,0.8547312491820832,-56.531390963710294,33.1521687796933,159.53242415032938,8
1767366233.6857312,1,left_wrist,-0.3558,0.243,0.0537,1.19,166.32,-84.84,-0.14214238648960073,0.5587118594945448,-0.2526984924485273,-0.7770328641295878,43.32478094988482,70.07059008435525,-169.61016265686237,8
1767366233.6857312,2,right_wrist,-0.2972,-0.2923,0.0356,-54.88,176.26,126.63,-0.007733108612897827,-0.4168097425537171,-0.4028412425848135,0.8148182440374102,-63.2267501826152,43.273273320325096,153.64580097354235,8
1767366233.7431428,1,left_wrist,-0.5612,0.1176,-0.121,-10.43,118.65,-56.35,-0.145107002257714,0.6074422590006999,-0.2434026658976558,-0.7421003989419631,52.1882996487716,76.45961823982884,-159.93206417557454,8
1767366233.7431428,2,right_wrist,-0.4426,-0.1171,-0.0976,47.53,115.71,84.7,-0.010687484255671332,-0.47549708826603876,-0.3700713563522899,0.7980197290408179,-64.73990488393477,50.069392477549286,148.55155086716613,8
1767366233.834919,1,left_wrist,-0.6647,0.124,-0.2133,3.36,50.33,-26.11,-0.1485646697735176,0.628739572034293,-0.24174533575499846,-0.7239988135998034,60.462637346606286,79.18649010622157,-151.72658170107454,8
1767366233.834919,2,right_wrist,-0.5993,0.162,-0.1103,19.88,68.46,50.19,-0.020798192818003654,-0.5446735349242922,-0.33091549735554315,0.7703201341900097,-68.93379878148637,58.52969737299532,141.01433856840683,8
1767366233.886584,1,left_wrist,-0.6871,0.2362,-0.0342,28.91,-39.06,18.27,-0.14744585182237696,0.6175133544858058,-0.25181638557639385,-0.7304282892709606,59.24746030751087,77.51615871273316,-153.7512682741343,8
1767366233.886584,2,right_wrist,-0.7852,-0.02,-0.2074,-26.67,26.25,20.44,-0.03235407925760648,-0.559485603533359,-0.3341224436499662,0.7578200747167368,-72.23210272570338,60.412107965395094,138.86119983959298,8
1767366233.9733791,1,left_wrist,-0.6871,0.2362,-0.0342,28.91,-39.06,18.27,-0.15138853937100724,0.6024363352044655,-0.2661712736637541,-0.7370921416273143,57.75817606221359,75.62526709837452,-156.86858145104256,8
1767366233.9733791,2,right_wrist,-0.6622,-0.1967,-0.0566,-15.47,-70.14,-51.94,-0.029589356222164676,-0.5027888004699456,-0.36549667297640054,0.7827771548554117,-67.27130734785209,53.97620297404988,146.8956535033282,8
1767366234.036295,1,left_wrist,-0.466,0.062,-0.2391,41.23,-127.68,74.83,-0.140951686405584,0.5298599735765059,-0.2952387942800735,-0.7824417453414502,49.804339289691775,65.83886089959016,-166.96781109131675,8
1767366234.036295,2,right_wrist,-0.2611,-0.0068,0.042,41.86,-162.82,-121.45,-0.007897748417268211,-0.42913848473621474,-0.37136243420536946,0.823327230783305,-59.52471746679112,45.43939466748827,154.1690440913586,8
1767366234.090442,1,left_wrist,-0.1513,0.1161,0.427,-32.62,-206.78,146.23,-0.10930960793734172,0.43694500567847055,-0.3024391678648818,-0.8400363214566522,43.4714182552718,53.150959664006386,-172.27128854531318,8
1767366234.090442,2,right_wrist,-0.2611,-0.0068,0.042,41.86,-162.82,-121.45,0.014365912810061965,-0.3530301427750236,-0.3745911486358505,0.8572308966696515,-54.22302406195989,36.4765692020089,158.92747015422196,8
1767366234.172995,1,left_wrist,0.0142,0.8003,0.3811,82.04,-210.14,166.67,-0.08866582773573234,0.328302277518109,-0.35399034669622836,-0.8712329309744002,46.29949962312506,39.4073180853168,-174.21094957654694,8
1767366234.172995,2,right_wrist,-0.0805,-0.9794,0.5344,-23.38,-228.83,-172.76,0.06490421326629241,-0.11100619028591242,-0.4398924341781873,0.8887967794559569,-53.54328355368647,8.060700969931341,167.57504752088073,8
1767366234.2243001,1,left_wrist,0.2728,1.0555,0.834,-46.13,-239.75,168.56,-0.0526445308130672,0.20716226858889547,-0.34940378764244706,-0.9122660472853771,42.58092570106069,24.504367465540753,-176.93108721970808,8
1767366234.2243001,2,right_wrist,0.2259,-0.7857,0.9423,-91.35,-231.84,-171.99,0.08347805784571467,0.012856783787723916,-0.4841619836955107,0.8708922381747188,-57.74455566709466,-5.925057753922661,172.3185508298145,8
1767366234.2845461,1,left_wrist,0.4197,0.2094,0.9062,36.89,-228.55,198.66,0.03185816372558332,-0.046841690731186846,-0.38673055754992947,-0.9204511878804864,45.50786236349601,-6.365586740439548,-178.70749174454645,8
1767366234.2845461,2,right_wrist,0.2967,-1.384,0.9204,-102.41,-196.0,-182.56,0.11344995487657715,0.12537038523978544,-0.5237564468614765,0.8349194922951386,-63.60575000912135,-19.158870578083167,176.47272253694558,8
1767366235.124131,1,left_wrist,0.9101,0.9243,0.854,-57.54,241.01,-184.38,-0.0809978853332282,0.1800708767357144,-0.3127040186399612,-0.9291017267498728,36.73136296214579,22.660196092397786,177.64662685069237,9
1767366235.124131,2,right_wrist,0.0874,-0.5905,0.4695,25.41,197.19,172.34,-0.07516745044112223,-0.2355240142848451,-0.40649093397474095,0.8795700163634936,-50.58478375548601,28.387318182098724,176.13851525258164,9
1767366235.179086,1,left_wrist,0.1357,0.3123,0.5114,-70.07,236.25,-124.95,-0.10222461197188253,0.3952236516049279,-0.24463934914101307,-0.8794884779069742,31.610068191803066,48.176763224154946,-178.83449268816514,9
1767366235.179086,2,right_wrist,0.0874,-0.5905,0.4695,25.41,197.19,172.34,-0.10118932939787113,-0.3367489046292243,-0.3838515540163028,0.8538260240390286,-50.82940295282239,40.748000854468486,173.50261496926163,9
1767366235.232579,1,left_wrist,-0.1059,0.3279,0.3362,-12.67,184.94,-93.03,-0.11395926788621936,0.4717065758146725,-0.23294084266882742,-0.8427602004204815,32.5627239995425,58.01238168524879,-177.00492319899303,9
1767366235.232579,2,right_wrist,-0.3416,-0.2957,0.1142,16.8,121.52,101.57,-0.11577971902920253,-0.4009308139335057,-0.36947289697952246,0.8302646069161895,-52.08977548840359,48.70417860180743,170.932125596326,9
1767366235.2867641,1,left_wrist,-0.3924,0.3733,0.1889,-36.12,164.85,-57.61,-0.10802739800809363,0.5373693696528998,-0.21948083567888846,-0.8070888455480865,36.14191718865554,66.18153043092718,-171.23914768870114,9
1767366235.2867641,2,right_wrist,-0.6007,-0.3338,-0.0386,20.3,92.33,68.95,-0.12228933771900223,-0.44862345379193147,-0.35594615295322835,0.8106075812536194,-53.63776622332205,54.5253123571324,167.9541610906843,9
1767366235.369938,1,left_wrist,-0.6998,0.2333,0.0224,40.74,49.77,-24.78,-0.12065202276018394,0.5575633938676287,-0.23200269896533535,-0.7878711182011227,40.49065196439545,69.15707578869014,-168.8843717411184,9
1767366235.369938,2,right_wrist,-0.7857,-0.2264,0.0142,-32.41,32.62,30.24,-0.1441238617056635,-0.4971526787501293,-0.3526029838800103,0.7795759502816454,-57.69312056681381,61.25557482576998,164.8251401918274,9
1767366235.4232268,1,left_wrist,-0.6998,0.2333,0.0224,40.74,49.77,-24.78,-0.13287440017892363,0.5769928280427989,-0.24444302692084408,-0.7679005643662726,45.97425871235452,72.00930291004832,-165.36926843797676,9
1767366235.4232268,2,right_wrist,-0.7813,-0.1864,-0.0761,-6.23,6.93,-2.66,-0.1443417996587945,-0.5019393728666345,-0.356018212919931,0.7749021505369623,-59.19164576496964,61.72503488075024,163.60612074308054,9
1767366235.486466,1,left_wrist,-0.7174,0.1054,0.0215,3.64,-17.71,10.5,-0.13294637467138481,0.5806397611139054,-0.2544926258416391,-0.7618505317104861,49.94953698957381,72.24875322045938,-162.2464514739612,9
1767366235.486466,2,right_wrist,-0.7174,-0.0556,-0.001,9.8,-38.5,-30.73,-0.1398538835960359,-0.4881602647733033,-0.35561117946595,0.7846535134557167,-57.31262289196246,59.94448559327848,165.2260714904623,9
1767366235.577197,1,left_wrist,-0.6622,0.243,0.1523,25.48,-57.4,33.53,-0.13159637751816286,0.5539759052622527,-0.2711947496913053,-0.7760454223515754,49.00318721627792,68.6222474392142,-164.69422561596775,9
1767366235.577197,2,right_wrist,-0.5407,-0.2367,0.0888,26.32,-112.42,-86.31,-0.11817754873425132,-0.4085556811102463,-0.3707238697724487,0.8256392279855934,-52.805125507239914,49.66398950888588,170.41486596379127,9
1767366235.642837,1,left_wrist,-0.2728,0.4246,0.2157,-1.89,-171.36,112.0,-0.10599352583781872,0.4155263167662653,-0.3139331091486892,-0.8470827914291296,44.122880421076275,50.40061986939563,-172.6699683374377,9
1767366235.642837,2,right_wrist,-0.2869,-0.1469,0.0669,3.15,-140.91,-128.03,-0.09494819455721581,-0.3397166336498455,-0.38453145078471607,0.8530609664785649,-51.327255306761785,40.739365639093926,172.4715971018718,9
1767366235.724142,1,left_wrist,-0.2728,0.4246,0.2157,-1.89,-171.36,112.0,-0.08476570804551492,0.33311548783526285,-0.32775868594065055,-0.8800131193875893,42.73673573299361,39.93046048276053,-174.82446744469695,9
1767366235.724142,2,right_wrist,0.0386,-1.1893,0.669,67.27,-207.13,-192.5,-0.023456368718418975,-0.15360070978999046,-0.38477960326126587,0.9098358520264298,-46.53908852699311,17.31074555887695,175.46287642641897,9
1767366235.776288,1,left_wrist,0.2513,0.7056,0.4914,38.22,-235.55,187.18,-0.049735432937427465,0.20870802604047126,-0.35929809931730367,-0.9082247642537554,43.98451289563295,24.509699885031377,-176.24210121007636,9
1767366235.776288,2,right_wrist,0.1713,-0.2835,0.8852,-67.9,-191.17,-200.76,0.020255079131101018,-0.039981749575690555,-0.41763082046764055,0.9075107102760742,-49.53543912438154,3.190126127101912,175.97064758295798,9
1767366235.833586,1,left_wrist,0.5666,0.9252,0.9282,4.27,-246.96,187.46,0.024756640986309354,-0.05790766687654954,-0.3730349904094618,-0.9256774312762531,43.887900226683335,-7.219901127575419,-179.84809858941412,9
1767366235.833586,2,right_wrist,0.2518,-1.3479,0.5309,-148.89,-190.89,-203.63,0.06385945977793665,0.0725349231344352,-0.4802704207316044,0.8717803492239541,-57.47099319719356,-10.824927670156978,177.5684959515499,9
1767366236.678408,1,left_wrist,0.4885,0.6285,0.7964,-27.44,251.44,-133.77,-0.08537180855803433,0.17201055899492318,-0.268206463856818,-0.9440282382657872,30.902716788616072,21.750169899658015,175.74471015735742,10
1767366236.678408,2,right_wrist,0.1523,-0.8115,0.6271,47.88,199.29,174.37,-0.11150193843264485,-0.14399460304474088,-0.3458688206726161,0.9204388251840988,-40.04870678362232,20.01136521469668,-173.54379320816534,10
1767366236.732569,1,left_wrist,0.223,0.507,0.8569,-99.19,244.86,-119.14,-0.09646856082526341,0.2841729900647665,-0.22580347617310728,-0.9267968054746918,26.2819276974093,34.77164435176937,176.47681211017124,10
1767366236.732569,2,right_wrist,-0.1449,-0.5836,0.6329,90.79,185.5,145.46,-0.13370060716284105,-0.23914423381832137,-0.30870973026305226,0.9108416358053957,-35.64580077076052,31.21121363870536,-173.56139713380247,10
1767366236.784415,1,left_wrist,-0.0171,0.427,0.5236,-9.52,226.52,-88.27,-0.10670032275238316,0.3791391008934605,-0.22123060535396635,-0.8921466261511911,27.049315110097147,46.36131622368558,178.1207959584001,10
1767366236.784415,2,right_wrist,-0.2621,-0.2933,0.4177,16.17,168.35,117.46,-0.15441164252578826,-0.3177347233429819,-0.29835680489381045,0.8866706870130554,-34.80091153451256,40.96452794640565,-173.59572495920813,10
1767366236.8348851,1,left_wrist,-0.4519,0.2118,0.1259,30.45,124.39,-47.67,-0.11768341410802888,0.4327594804621657,-0.23255925789224072,-0.8630098711385663,30.074559532009715,53.291611754801785,179.82368190682425,10
1767366236.8348851,2,right_wrist,-0.466,-0.4802,0.2318,102.2,178.43,52.08,-0.1353520380620463,-0.3994470242918486,-0.26634062510493706,0.8667090469099473,-33.261715707877926,49.863258448767766,-178.05807312266396,10
1767366236.923337,1,left_wrist,-0.4519,0.2118,0.1259,30.45,124.39,-47.67,-0.12771834671543833,0.484297094465024,-0.243287358577108,-0.8306356658376669,34.20954270246685,60.07663523121176,-177.3030752959488,10
1767366236.923337,2,right_wrist,-0.5612,0.2952,-0.0595,-14.14,34.51,1.89,-0.14936041162393754,-0.46249237083396605,-0.27465462327555323,0.8296728947442296,-37.00823819999581,58.155137108873014,179.32554086104753,10
1767366236.986193,1,left_wrist,-0.73,0.2791,0.0478,-7.0,35.21,-8.12,-0.12480655017798387,0.5008640140579363,-0.2428426008727108,-0.8213318669428449,35.75906705574584,62.0513322633215,-175.3191252631333,10
1767366236.986193,2,right_wrist,-0.6866,-0.1884,-0.0205,-2.87,2.73,-30.94,-0.1384757565027811,-0.4627229255363925,-0.2831773045842549,0.8285665774169394,-39.6639497761738,57.69550232455898,176.50354315683455,10
1767366237.072437,1,left_wrist,-0.7364,0.2499,0.039,10.22,-10.43,2.45,-0.12878428728293814,0.4973065511872343,-0.2532696249905359,-0.8197287957321235,37.28800229922683,61.70845414685186,-175.0654377276924,10
1767366237.072437,2,right_wrist,-0.6822,-0.0459,0.1288,-29.05,-73.43,-48.23,-0.12334465800613426,-0.416249202420005,-0.28260636509694653,0.855369124549601,-37.64003694761891,51.42654244161566,177.7702552361334,10
1767366237.124253,1,left_wrist,-0.6422,0.204,0.0303,27.93,-77.91,48.93,-0.1255803765107137,0.46509990309078597,-0.2706265738755672,-0.8334703994100457,38.459560901913164,57.48649508653328,-175.4753961500085,10
1767366237.124253,2,right_wrist,-0.588,-0.4602,0.1,-42.91,-93.66,-93.17,-0.1064629627898348,-0.3685417506741053,-0.3131051495353647,0.868796743144513,-41.17547556984651,44.994909043730324,176.28700925155275,10
1767366237.1803782,1,left_wrist,-0.6422,0.204,0.0303,27.93,-77.91,48.93,-0.12263903881115887,0.4323636313090942,-0.28730103991622197,-0.8458601946797982,39.494966905224366,53.312596929581396,-176.06823816501984,10
1767366237.1803782,2,right_wrist,-0.3489,-0.083,0.4831,73.57,-136.08,-120.19,-0.06833466100656974,-0.3013653443576518,-0.293944434748947,0.9044921075418143,-37.231150811995796,35.826895602568136,176.21282939866956,10
1767366237.231115,1,left_wrist,-0.2313,0.5202,0.4851,155.54,-172.13,154.42,-0.08322910125296243,0.26083410768133314,-0.3609636448906693,-0.8914840054885727,44.848943809364236,31.67795323066084,-177.31211722344415,10
1767366237.231115,2,right_wrist,-0.3201,-0.6295,0.2904,-191.03,-142.66,-155.96,-0.04814777394593618,-0.2170849998021792,-0.3864959046804788,0.8950848062558974,-47.866873796926804,25.203641932814243,174.82493234311653,10
1767366237.286437,1,left_wrist,0.0381,0.9257,0.5466,-35.42,-178.36,169.61,-0.03885741000706596,0.16122572490229148,-0.3601410079490824,-0.9180385731061045,43.291375923999695,18.905677334690747,-177.2868082074159,10
1767366237.286437,2,right_wrist,-0.3201,-0.6295,0.2904,-191.03,-142.66,-155.96,-0.02853826996447051,-0.13092219201649485,-0.472480626684947,0.8710952899611104,-57.52007899599608,14.777079367361427,175.61095248228062,10
1767366237.336707,1,left_wrist,0.225,0.0581,0.7403,25.27,-189.98,199.99,0.010202934524263787,0.04999672900090973,-0.37584840574235323,-0.9252752039891886,44.35226014598292,4.86751169708169,-176.75143428171862,10
1767366237.336707,2,right_wrist,-0.0342,-0.0073,0.4255,-155.33,-135.1,-196.07,0.009137520535203711,-0.03605799409529107,-0.5343872443491298,0.8444208665453717,-64.73417892500014,2.9308281504473386,176.90220552964644,10
1767366237.4239821,1,left_wrist,0.4333,1.5094,0.6505,233.17,-178.43,231.7,0.06958626129966346,-0.0606639379116563,-0.4723838285754955,-0.8765450116084983,56.31536588588867,-9.909485933318264,-176.235411245075,10
1767366237.4239821,2,right_wrist,0.8969,-0.3479,0.8696,277.76,-103.11,-262.29,0.10324680638658161,0.18970880674208615,-0.5202417344923598,0.8262561366234121,-64.76541875320297,-24.892856798512103,-178.30871308114413,10
1767366238.236311,1,left_wrist,0.7549,0.9579,0.6866,-74.13,205.1,-225.05,-0.11928104563024922,0.07877099395753538,-0.3504578203473938,-0.9256060062584134,40.33418925201035,13.263383982766234,170.20397824996599,11
1767366238.236311,2,right_wrist,0.5919,-1.0282,0.7091,109.9,163.52,236.67,0.08170275703328722,-0.022854627848766393,-0.5680849235184321,0.8185852705430945,-69.26425665850151,-3.1764597199195994,170.79462059849274,11
1767366238.286936,1,left_wrist,0.4138,0.713,0.6817,-122.43,218.96,-192.01,-0.156061440015699,0.19671119207396257,-0.3036411189540265,-0.919103696398515,33.937325076329735,27.15307258214144,169.15515966992427,11
1767366238.286936,2,right_wrist,0.3558,-0.9687,0.774,111.79,177.38,220.57,0.04897520594247369,-0.1340542858734366,-0.5126289603036305,0.8466654750843889,-63.54473649477135,10.18261216673659,167.06191494011065,11
1767366238.368774,1,left_wrist,0.1259,0.3274,0.6261,-143.92,220.01,-151.48,-0.17298629142484467,0.308539723941815,-0.24492188239148246,-0.9027138268880123,25.938621150077747,39.924857800032896,167.8675798020531,11
1767366238.368774,2,right_wrist,-0.3523,-0.6925,0.4416,76.93,175.28,112.0,0.02713076044173655,-0.32872962185808036,-0.41962993220422334,0.8456426417519256,-59.3170766329084,32.222315723509425,157.6442823282031,11
1767366238.4243321,1,left_wrist,-0.2977,0.3509,0.2674,-4.27,173.04,-71.61,-0.17974229629977748,0.38266456771276874,-0.2501788730244097,-0.8710172598923165,27.135560489317402,49.161019773152695,169.27912341296314,11
1767366238.4243321,2,right_wrist,-0.4509,-0.0181,0.0956,-32.83,148.89,94.99,0.01196157287613365,-0.40366610673567804,-0.41272303883612305,0.8164375593155091,-63.99854788865675,40.486036295107716,152.3685454772416,11
1767366238.495256,1,left_wrist,-0.5129,0.344,0.163,-7.91,141.68,-61.32,-0.184479705547866,0.4442461942135608,-0.2508639933357718,-0.8400475069990802,28.246485579118097,57.02777033503401,170.79571803671416,11
1767366238.495256,2,right_wrist,-0.5397,-0.0151,-0.0581,7.28,98.7,49.49,0.010762330088479339,-0.45090958424191685,-0.3990449431665319,0.7983281608605998,-66.97608693250798,45.34554064143264,147.55603533844928,11
1767366238.57139,1,left_wrist,-0.629,0.0669,-0.0649,-2.17,82.88,-47.32,-0.19965355183931843,0.5204562909673874,-0.2446523064650367,-0.7933529840945657,28.047997360184823,67.44361828881541,170.67883638162357,11
1767366238.57139,2,right_wrist,-0.7144,-0.1996,-0.1298,-18.97,-8.47,-5.95,0.0038013628146173345,-0.49651336327669654,-0.391423296583041,0.7747566279939008,-71.81090653449036,50.02975502051209,142.10298708714484,11
1767366238.623914,1,left_wrist,-0.69,0.2596,0.0078,-34.16,28.35,-19.88,-0.19417540588294357,0.537225569769178,-0.23339623270808632,-0.7868994837296877,26.82325917868851,69.41060835517078,171.03180915043265,11
1767366238.623914,2,right_wrist,-0.7793,-0.2381,-0.1064,-43.61,-51.94,-25.48,-0.008089249640689206,-0.4779925012954003,-0.4108663634344982,0.7763031393365148,-71.9452512771091,48.484925506435,144.9951027801899,11
1767366238.675064,1,left_wrist,-0.6827,0.0712,0.0859,14.7,-55.23,27.58,-0.1938919054799654,0.5172253742454118,-0.2404231799132709,-0.7981732492300357,27.67616290359681,66.76625046067848,171.1320370554802,11
1767366238.675064,2,right_wrist,-0.7037,-0.0761,0.0361,16.8,-107.31,-52.5,-0.009099918027125575,-0.4348436776391736,-0.4129022777766034,0.8002123946278452,-66.72516803395496,44.70440553730568,151.00405959943768,11
1767366238.725072,1,left_wrist,-0.6827,0.0712,0.0859,14.7,-55.23,27.58,-0.19366519131545618,0.49699545996231226,-0.24717251478998206,-0.8089468798270957,28.38569498459045,64.13484763048977,171.0801450652215,11
1767366238.725072,2,right_wrist,-0.508,0.0068,0.1083,-31.92,-139.51,-72.59,-0.017803372521248275,-0.37465135298114055,-0.4335215044164974,0.8193769028015907,-63.77501119524483,39.00569401348226,157.63667805033364,11
1767366238.791035,1,left_wrist,-0.3748,0.3353,-0.0029,46.69,-145.95,85.4,-0.17899395161062323,0.36461068631156807,-0.29694649648223154,-0.864200781613364,34.456458200718295,47.43385685846859,172.11192175480616,11
1767366238.791035,2,right_wrist,-0.4451,-0.6769,0.2596,-63.56,-151.55,-113.75,-0.013394013008077856,-0.29500530181735235,-0.47497925086172277,0.8289675407191941,-64.3271212274189,30.120708383683713,162.64337711812706,11
1767366238.883415,1,left_wrist,-0.1322,0.6173,0.5549,106.4,-230.02,141.19,-0.16936682214933615,0.24535655779709356,-0.3404090479615404,-0.8917604606433917,38.96807966367999,33.56664395379657,170.67416305261335,11
1767366238.883415,2,right_wrist,-0.203,-0.1444,0.5939,96.04,-194.25,-132.86,0.02626437634331753,-0.09374691193871212,-0.4202587187092401,0.9021664527048874,-50.49796098808066,8.457454727784691,172.6706378834181,11
1767366238.941035,1,left_wrist,0.0898,0.6974,0.9316,-31.64,-223.44,150.15,-0.10536474368579937,0.018828217101821153,-0.30500313122424766,-0.9463175254491469,35.18194216014814,5.733878327457263,169.11276367308633,11
1767366238.941035,2,right_wrist,-0.1762,-0.7471,0.49,-194.88,-209.72,-140.0,0.03402543302668883,0.01002324553525029,-0.5031452285865762,0.8634736147716666,-60.38655998623312,-2.9548546355314613,177.2063753880184,11
1767366238.9921181,1,left_wrist,0.5007,1.2849,0.7935,183.19,-219.66,176.33,-0.06136165344047493,-0.10598200429471699,-0.3705421524044601,-0.9207068347439349,44.68838482358843,-8.60853050337397,168.83026424101934,11
1767366238.9921181,2,right_wrist,0.0015,-1.3967,0.9799,42.84,-232.12,-151.9,0.03903809710711477,0.12933178601079778,-0.4831836809889294,0.8650334366528852,-58.8271273874107,-15.157766553121347,-176.5880816213601,11
1767366239.822846,1,left_wrist,0.8999,0.9404,0.8223,-86.17,250.18,-191.66,-0.12162243096264566,-0.08578987202556194,-0.34140950132784187,-0.9280558358997849,41.03122481720901,-4.369569818645765,163.43202925592274,12
1767366239.822846,2,right_wrist,0.3348,-0.8799,0.8701,119.63,209.3,165.2,-0.03911058624406807,-0.07689415909144627,-0.46390992739902276,0.8816718378182996,-55.51604271450919,9.897051631973493,179.86166183527973,12
1767366239.881523,1,left_wrist,0.1186,0.2616,0.571,-68.46,215.6,-127.68,-0.1710441670544178,0.14284529414986397,-0.2972970286472941,-0.9284145580576542,32.7445609829965,21.527093101451413,165.51588561385628,12
1767366239.881523,2,right_wrist,0.124,-0.7447,0.6359,33.67,224.14,142.38,-0.04522050035371491,-0.18767237375684,-0.4459569611647271,0.8739888873807006,-55.108037648853504,21.61573814674744,174.54719331277403,12
1767366239.9322822,1,left_wrist,0.1186,0.2616,0.571,-68.46,215.6,-127.68,-0.18859375744895512,0.24661560676878969,-0.2746453897277359,-0.9100456291036436,29.21635724322573,33.53564942344971,165.5644678721659,12
1767366239.9322822,2,right_wrist,0.124,-0.7447,0.6359,33.67,224.14,142.38,-0.050931252440353514,-0.29595438569809107,-0.4229391893650731,0.8549499700041737,-56.02230829303658,33.30762418270848,168.73529274028903,12
1767366239.984273,1,left_wrist,-0.4377,0.2318,0.3533,-28.07,172.83,-74.9,-0.19442979065158944,0.32901267183597643,-0.2697388391940166,-0.8838487862235235,28.671755297793545,43.352540330268546,166.78751859092873,12
1767366239.984273,2,right_wrist,-0.0922,-0.5056,0.367,85.26,190.68,120.26,-0.04730626837506543,-0.3856052886431924,-0.37846513751345123,0.8401397610098876,-55.23089041599568,43.13598457588215,163.07919021298827,12
1767366240.072927,1,left_wrist,-0.4377,0.2318,0.3533,-28.07,172.83,-74.9,-0.19754280066679666,0.4074712002842556,-0.26466005699714584,-0.8514100757413515,28.75809563081987,52.97887335136242,168.43630558228602,12
1767366240.072927,2,right_wrist,-0.5885,0.0239,0.0254,30.31,82.53,49.84,-0.05302797760640477,-0.4893669615838448,-0.3377659994153839,0.8022606435193597,-59.13635235667697,55.18721131392792,154.53100778474422,12
1767366240.126946,1,left_wrist,-0.612,0.1396,-0.0586,-47.95,55.72,-39.48,-0.20395393503788273,0.4948386791660492,-0.26495945255758907,-0.8020810199002003,31.10841281673325,64.40635830955088,171.35255586557554,12
1767366240.126946,2,right_wrist,-0.7017,-0.1347,-0.1752,9.8,29.47,22.75,-0.05583519536731647,-0.5066189349934456,-0.3301567940361365,0.794491143447289,-60.142967340023574,57.33888695292627,152.9044436930177,12
1767366240.177098,1,left_wrist,-0.612,0.1396,-0.0586,-47.95,55.72,-39.48,-0.20395393503788273,0.4948386791660492,-0.26495945255758907,-0.8020810199002003,31.10841281673325,64.40635830955088,171.35255586557554,12
1767366240.177098,2,right_wrist,-0.7017,-0.1347,-0.1752,9.8,29.47,22.75,-0.05853254014420991,-0.5236326629699165,-0.32243845971543417,0.7863944402853055,-61.339510600901875,59.46397963072507,151.09057025508693,12
1767366240.236494,1,left_wrist,-0.71,0.0722,0.0171,11.97,-20.58,34.93,-0.1902268221708542,0.476707969685863,-0.28510134170548507,-0.8094939732465541,36.1946814050728,61.672813374147346,175.6301383359076,12
1767366240.236494,2,right_wrist,-0.7193,0.1103,-0.0903,10.5,-33.39,0.98,-0.06371058907620326,-0.5159029967527218,-0.31578881125137387,0.7937647544893693,-58.37442589600043,59.23241125580791,153.94533508539402,12
1767366240.318593,1,left_wrist,-0.6115,0.1557,-0.1235,38.5,-99.61,68.11,-0.1860438181786938,0.4324386911827628,-0.30553444719676204,-0.8276673109781497,38.13298329876937,56.049085175757334,175.51060867711624,12
1767366240.318593,2,right_wrist,-0.548,-0.1532,-0.021,-8.89,-111.51,-72.03,-0.05082996343740934,-0.42252587110482576,-0.3458770842062618,0.836216028120147,-52.98961615508555,47.88562815676763,161.99607887974796,12
1767366240.3777978,1,left_wrist,-0.6115,0.1557,-0.1235,38.5,-99.61,68.11,-0.1817795902584443,0.3871139487306333,-0.3250185623709078,-0.8434820124804067,39.80876907209748,50.46274133433835,175.04195691651475,12
1767366240.3777978,2,right_wrist,-0.4148,0.0166,0.1088,-52.78,-157.15,-108.92,-0.04704785918686154,-0.349388105328089,-0.3775880532574853,0.8562369490032558,-52.51316733275705,39.33455281258412,166.29260888981025,12
1767366240.4310038,1,left_wrist,-0.0449,0.7296,0.6017,19.04,-217.35,162.4,-0.13091934448393644,0.17716449412663046,-0.3641096629023971,-0.9049292904099492,42.349321715291616,24.58108955770388,173.18366301599153,12
1767366240.4310038,2,right_wrist,-0.0703,-0.1391,0.693,69.02,-202.51,-161.0,-0.009465325708747453,-0.24436322542536765,-0.3676286240755314,0.8972436772857582,-47.028054126045,26.4531678697045,169.5306421491495,12
1767366240.485803,1,left_wrist,0.0068,-0.1176,0.7837,40.39,-190.26,193.34,-0.08749992824164235,0.06696955149995917,-0.37827618500003735,-0.9191115109666613,44.124914603646694,10.912125432625993,173.5574295255898,12
1767366240.485803,2,right_wrist,-0.0703,-0.1391,0.693,69.02,-202.51,-161.0,0.02842162081175615,-0.13626705790943897,-0.3517303602165989,0.9256939311138643,-42.64595501976473,13.431912541733446,171.21926472356856,12
1767366240.5760598,1,left_wrist,0.0068,-0.1176,0.7837,40.39,-190.26,193.34,-0.04229100652653114,-0.04331018332420965,-0.3866448095497802,-0.9202399089561432,45.7306993085953,-2.6943714030864694,173.6010761039815,12
1767366240.5760598,2,right_wrist,0.6583,-0.8843,1.0355,11.27,-172.06,-201.53,0.10080969196158775,0.08322764759411069,-0.4589570599642847,0.8787883600682819,-54.43020597937194,-13.816529577066978,174.0426576436683,12
1767366241.427042,1,left_wrist,0.8984,0.9296,0.7042,-0.56,216.23,-203.35,-0.0762516087864886,0.03818173719835815,-0.370092039217044,-0.9250728239496381,43.19242450224748,7.301004695048352,173.46920450101962,13
1767366241.427042,2,right_wrist,0.2264,-0.8223,0.7198,48.44,198.24,204.05,0.08403870469487518,-0.1772648692555205,-0.4044640801240472,0.8932656212630368,-50.967586758185796,14.401068634390718,162.35882915076914,13
1767366241.494349,1,left_wrist,0.2738,0.5002,0.7242,-61.95,217.84,-162.12,-0.1293563453462346,0.2584713165222703,-0.3172360537275833,-0.9032279893079376,37.274199117667116,33.29775360436908,175.21765537795932,13
1767366241.494349,2,right_wrist,-0.0376,-0.771,0.5378,62.65,192.5,169.26,0.05868549173560363,-0.2743471363850938,-0.36004974376753557,0.889749315161288,-48.7465917805357,26.483556900595545,160.28186523311456,13
1767366241.571785,1,left_wrist,0.019,0.4846,0.4612,-43.89,197.12,-130.69,-0.1462273221752375,0.35106683776970465,-0.29619730835339564,-0.8761488459114939,35.76479021508216,44.571427372030826,176.11521802628351,13
1767366241.571785,2,right_wrist,-0.4514,-0.2762,0.0615,18.83,131.67,102.48,0.01620769686230374,-0.4289380640595042,-0.31367098041855285,0.8469710525198416,-51.4011425069824,45.760390826900526,154.84570607810994,13
1767366241.630048,1,left_wrist,-0.286,0.388,0.3587,-49.42,182.91,-102.76,-0.15159410732877002,0.43239780250817306,-0.27482686545729273,-0.8452937720297101,35.07432337576363,54.521227371332024,178.1621524790935,13
1767366241.630048,2,right_wrist,-0.4514,-0.2762,0.0615,18.83,131.67,102.48,-0.000727916867372126,-0.4930522301701617,-0.2869486127089721,0.8213156896867734,-53.43162815595394,54.12728770286692,151.2597375701001,13
1767366241.682884,1,left_wrist,-0.571,0.2577,0.0737,-13.51,126.63,-51.38,-0.15102476326796757,0.5406536010427324,-0.2647532157228127,-0.7840860535195163,42.46616267791953,68.09542682365161,-172.38343223926353,13
1767366241.682884,2,right_wrist,-0.5871,-0.103,0.0005,-11.41,83.51,73.43,-0.020834693983520596,-0.5348747899391487,-0.27386397288329667,0.7990453047047716,-56.224014071642394,60.01888083728963,148.69210122428404,13
1767366241.736254,1,left_wrist,-0.6764,0.1254,-0.0498,-32.06,74.83,-28.07,-0.1444218252087244,0.5740635449714268,-0.2526076098013981,-0.7653644740962597,46.00004545227109,72.11965605546273,-167.02140794037862,13
1767366241.736254,2,right_wrist,-0.7486,-0.1557,0.1484,7.63,59.71,45.15,-0.03037266316893798,-0.5635548254477102,-0.25835178883028936,0.7840521750845518,-58.048543251467684,64.0801553920252,146.1370297095319,13
1767366241.827273,1,left_wrist,-0.7666,0.2869,0.0761,-6.02,33.6,-3.85,-0.13821207230994145,0.5870645367515072,-0.25486610146752825,-0.7558412022900532,50.9663501708859,73.31671267858572,-161.6639163035829,13
1767366241.827273,2,right_wrist,-0.7183,-0.0752,-0.1381,-38.99,-37.8,-21.21,-0.04078546491736215,-0.5567033504928558,-0.2743943752437671,0.7830234046540921,-59.146429652531786,63.40663853152535,147.33055906766592,13
1767366241.884191,1,left_wrist,-0.6622,0.2572,-0.0083,16.17,-60.62,56.91,-0.1295184018401383,0.5472912792504198,-0.2833178765350173,-0.7768064238128469,51.143069493116926,67.46842797624402,-163.49051633548942,13
1767366241.884191,2,right_wrist,-0.6598,0.0478,-0.121,-6.09,-90.93,-67.13,-0.03233770398612043,-0.5203869895244829,-0.2893470087949544,0.80276395194102,-55.971980006406405,58.67250968524834,151.35732108962648,13
1767366241.968701,1,left_wrist,-0.6622,0.2572,-0.0083,16.17,-60.62,56.91,-0.1206390904842069,0.5208451499737728,-0.30066502322604577,-0.7897892651868742,51.617607175194024,63.54181034737063,-164.02245019488112,13
1767366241.968701,2,right_wrist,-0.3992,-0.4446,0.2933,-66.43,-159.32,-122.71,0.004971429693137743,-0.3823670600929091,-0.3498519925845523,0.8552042443342586,-52.456899474443624,40.58122168966355,158.68678222267704,13
1767366242.022372,1,left_wrist,-0.551,0.3543,-0.0298,-2.1,-108.92,67.97,-0.10926523127007302,0.4754683877284727,-0.3120880813545223,-0.8152250922186076,48.91525101555883,57.503927361007236,-167.24380767538,13
1767366242.022372,2,right_wrist,-0.2235,-0.6798,0.2908,2.87,-165.97,-171.78,0.04652891746892943,-0.28990629360795767,-0.3789936634752989,0.8775837303706342,-51.802660399117634,28.266008040553274,159.98793984822524,13
1767366242.076051,1,left_wrist,-0.0078,0.4577,0.246,18.34,-222.67,156.38,-0.08500710999667056,0.36827142334841095,-0.33993326950133324,-0.8611592897258227,46.41561774121552,43.794525218162455,-171.71877163266493,13
1767366242.076051,2,right_wrist,0.0971,-0.0449,0.6437,49.91,-190.26,-189.49,0.09380848123970358,-0.1807410566596963,-0.38291514198772175,0.9010597279434696,-48.45990512414183,14.706969322391892,161.4648727162378,13
1767366242.134967,1,left_wrist,0.1425,0.2518,0.8847,22.89,-245.0,198.8,-0.01222905432264426,0.10778532140191405,-0.3857028248509407,-0.9162238294339787,46.03170731043082,11.94335322266423,-176.44073245810162,13
1767366242.134967,2,right_wrist,0.1645,-1.12,0.6149,-125.23,-207.62,-196.63,0.12717886545600893,-0.06754943611299795,-0.4546745546581563,0.8789389394085039,-54.730786497687404,0.17725459964801155,163.44161182179982,13
1767366242.2262132,1,left_wrist,0.6866,0.2059,0.8184,-9.73,-215.39,216.65,0.03963480323241085,-0.018403886808636426,-0.3856593054686723,-0.9216058156438057,45.305972128770776,-3.6977614516017483,-176.61856823568039,13
1767366242.2262132,2,right_wrist,0.3938,-1.2273,0.8189,-58.31,-194.6,-212.94,0.2075865161637012,0.1636608678537489,-0.5148585542455905,0.8155020709725482,-61.6593782594352,-28.730276796296078,168.8181521728628,13
1767366243.078309,1,left_wrist,0.8384,0.61,0.7125,-50.47,216.02,-214.62,-0.10923419725740204,0.10370701562910745,-0.33077071970474853,-0.931613372620229,38.00580596841342,15.396227194562968,171.95540769946786,14
1767366243.078309,2,right_wrist,0.2884,-1.0741,0.7784,122.71,207.76,182.14,0.09552464171056486,-0.20306564994610637,-0.3673395104241262,0.9026079263552901,-47.302801014723165,17.241349333219095,160.3202055403392,14
1767366243.132589,1,left_wrist,0.2137,0.4041,0.429,-24.64,207.2,-146.65,-0.16020976862956948,0.303633954338011,-0.3109301314027857,-0.8862627743477489,36.10500070860292,39.62997680400391,172.90279805042934,14
1767366243.132589,2,right_wrist,-0.0869,-0.6666,0.488,6.93,178.01,161.28,0.06279694502283287,-0.29394747232161744,-0.34428771949068426,0.889447802526621,-47.736679185375536,28.663291983219107,159.02357231613087,14
1767366243.190188,1,left_wrist,-0.3065,0.2411,0.2635,-15.89,175.07,-85.12,-0.16553890728987747,0.38342428106335263,-0.3081733709471815,-0.8547583660329832,37.77298025456688,49.24426037318573,175.90060310753157,14
1767366243.190188,2,right_wrist,-0.0869,-0.6666,0.488,6.93,178.01,161.28,0.029866822679962143,-0.38154825127031117,-0.31675519666666935,0.8678681064771482,-48.41115045233646,40.04179024468567,157.45279073940566,14
1767366243.274029,1,left_wrist,-0.4929,0.2089,0.385,-101.29,133.98,-58.59,-0.1534941991619071,0.4466804322655128,-0.2658140336507906,-0.8403921833102896,33.96742704985785,56.34351876934886,177.87781985934475,14
1767366243.274029,2,right_wrist,-0.3938,0.0132,0.2894,43.19,113.75,78.12,0.012005812567850958,-0.4864899825720688,-0.2451521894183407,0.8385009012189599,-46.12926439435068,54.091835449801366,153.83003049443474,14
1767366243.3281689,1,left_wrist,-0.5749,0.1225,-0.0532,31.99,100.1,-25.9,-0.14527374913078894,0.5438999279871694,-0.23710619862562793,-0.7917379975233859,36.30727880383886,68.45713147626317,-175.64450986506478,14
1767366243.3281689,2,right_wrist,-0.5656,-0.1957,-0.0732,32.97,111.23,29.68,0.01934870356681073,-0.5325965019540491,-0.22654887814840682,0.8152559104884141,-49.76085692570222,59.275966089565955,147.71803491537824,14
1767366243.38289,1,left_wrist,-0.6486,0.2128,0.0747,18.76,51.73,-11.97,-0.1471127057851223,0.5636415025281029,-0.24625137140946965,-0.7746136911412023,41.54952915357662,71.02530292838803,-171.21060531244447,14
1767366243.38289,2,right_wrist,-0.7091,0.0,-0.103,-71.96,8.68,12.39,-0.002721259067079804,-0.5406607666970052,-0.24772622563992533,0.803934230664358,-53.49270500668696,60.535385734087114,147.60957231899286,14
1767366243.4724312,1,left_wrist,-0.7125,0.103,-0.0234,8.19,11.97,-1.12,-0.14844097235321352,0.5702567351803802,-0.24987168155921552,-0.7683337012412096,43.68691940746735,71.89291860767042,-169.45501263048288,14
1767366243.4724312,2,right_wrist,-0.6217,-0.0654,-0.1249,-22.12,-83.93,-67.97,-0.018100423149955462,-0.5138340207985981,-0.29061433054947855,0.8069636203888109,-56.068465136214854,57.12018903225323,150.24307174508655,14
1767366243.523094,1,left_wrist,-0.7222,0.2338,0.1493,5.88,-66.29,30.17,-0.14398755539165614,0.543832129193693,-0.2586534651497049,-0.7852468300573008,42.26059045902361,68.21309380760928,-171.44750630819377,14
1767366243.523094,2,right_wrist,-0.5636,-0.1889,0.1601,20.37,-125.65,-98.56,0.00240911989679991,-0.45903580488513773,-0.30099577178104253,0.83587192281157,-51.82345447296241,49.9906922799252,154.14576413848448,14
1767366243.58382,1,left_wrist,-0.5202,0.2855,-0.0288,8.61,-110.46,62.16,-0.1323095939720271,0.47393037113033387,-0.2787622932472056,-0.824727687498595,40.224264368547566,58.81422541410244,-174.90463279415417,14
1767366243.58382,2,right_wrist,-0.4778,-0.4285,0.2523,-47.46,-154.0,-113.89,0.01678556608562766,-0.3850113106167488,-0.34373542444752253,0.8563471804404098,-52.167582158017545,40.38098371105187,157.34341934645954,14
1767366243.6451771,1,left_wrist,-0.3806,0.0927,0.2474,-48.23,-140.07,91.0,-0.10772043013506546,0.4124734929915799,-0.2683369840618957,-0.8638617884218559,36.00397712539653,50.39439919855782,-176.83002097975256,14
1767366243.6451771,2,right_wrist,-0.2845,-0.6105,0.4002,-21.0,-177.24,-144.06,0.04271743766336998,-0.2922228605633283,-0.37738894640786336,0.8777007482125241,-51.62496959038766,28.732846542825026,160.30273113609064,14
1767366243.7239838,1,left_wrist,-0.2865,0.4514,0.2367,148.82,-177.1,133.35,-0.1017798228151618,0.31884576972478246,-0.34153875595783867,-0.8782536768924437,43.520653902741955,39.01902799192232,-177.1212772674593,14
1767366243.7239838,2,right_wrist,-0.1259,-0.4124,0.7052,43.12,-172.62,-160.37,0.10291257312562409,-0.09779923028777232,-0.40526121802847903,0.9031099921990986,-49.061281918043115,5.349682852767738,164.55512045329672,14
1767366243.774029,1,left_wrist,-0.0185,0.5651,0.4646,-3.36,-195.37,179.06,-0.059432045808645376,0.21194478474461384,-0.3553928194975175,-0.9084289647518751,43.339719651422875,25.297410802245412,-177.29500724619731,14
1767366243.774029,2,right_wrist,0.0547,-0.8013,0.568,-148.75,-188.58,-159.46,0.12656094691288308,0.0010508378699172292,-0.4778950077748513,0.8692511627833237,-56.813035395462975,-7.053297487921989,167.25030516574282,14
1767366243.8263419,1,left_wrist,0.4119,1.4269,0.7437,204.89,-215.6,203.49,-0.028705645383576513,0.08468286453465107,-0.44656597701436596,-0.8902716588494339,53.404194759805016,10.161271199019996,-178.57249579373055,14
1767366243.8263419,2,right_wrist,0.4958,-0.7208,0.8804,-124.25,-143.43,-188.16,0.16875478586418713,0.0903212195060093,-0.5269649723086632,0.8280530282020647,-63.045135619321954,-19.11330004584984,168.75321367144815,14
1767366244.638587,1,left_wrist,0.4714,0.55,0.4182,-60.34,221.13,-193.27,-0.0937321892374879,0.0980920539054128,-0.30961876807849487,-0.9411314701543673,35.576294087481486,14.044624271737883,173.1511156404017,15
1767366244.638587,2,right_wrist,0.588,-1.0399,0.8037,83.58,206.71,211.54,0.09877022378119196,-0.12625961643119707,-0.4169362476258376,0.8946882795524632,-51.17529303825481,8.254145474075596,163.44273033952507,15
1767366244.730028,1,left_wrist,0.4714,0.55,0.4182,-60.34,221.13,-193.27,-0.13796940613565623,0.21137235437842475,-0.2847355047027741,-0.9247766558130414,32.032808921540436,28.002754822770893,171.21731434063648,15
1767366244.730028,2,right_wrist,-0.0791,-0.4577,0.364,32.69,165.27,150.5,0.04390154882921559,-0.3090449242637363,-0.35306490153737846,0.8819915328956502,-49.26758726719649,30.940644751465882,159.8352285499645,15
1767366244.786182,1,left_wrist,-0.2347,0.4338,0.0542,31.01,145.88,-84.14,-0.18231813511356942,0.3609833206717091,-0.276206957619846,-0.8718720412812448,30.814602325116066,46.901285303202506,170.01212873656516,15
1767366244.786182,2,right_wrist,-0.3279,-0.4758,0.2445,-35.98,136.29,112.14,0.017391380907885497,-0.3794552084870281,-0.3513051695321628,0.855742930138579,-52.87093357208168,39.58430204944364,157.38369087471168,15
1767366244.871161,1,left_wrist,-0.2347,0.4338,0.0542,31.01,145.88,-84.14,-0.1990113010235897,0.42257697518684334,-0.28980634644710324,-0.8353654790963161,33.64036192228332,55.22135953326922,171.16959625543836,15
1767366244.871161,2,right_wrist,-0.6368,-0.2786,0.1713,-0.21,70.77,48.72,-0.016393912496521543,-0.4809048198197061,-0.33687877428949514,0.809304939649104,-59.61398500703581,52.13347210875068,151.01173160429715,15
1767366244.9218938,1,left_wrist,-0.6495,0.4763,0.0961,-0.28,76.16,-40.67,-0.20229568629522604,0.4562715188816404,-0.2920924700128292,-0.8158276443744653,35.260506951778034,59.61611139825818,172.78430811178993,15
1767366244.9218938,2,right_wrist,-0.795,-0.2762,0.1401,11.41,38.08,32.83,-0.022356402516246064,-0.5024672515790245,-0.3244857017550597,0.8010841914016773,-60.234734103580195,55.03935338436695,149.56476377475437,15
1767366244.9832718,1,left_wrist,-0.7061,0.344,0.1493,-51.1,41.65,-31.78,-0.19735072280074764,0.5125299224157391,-0.276624847371141,-0.7885711538316831,36.03920036092581,66.56572049379093,176.00704515096467,15
1767366244.9832718,2,right_wrist,-0.795,-0.2762,0.1401,11.41,38.08,32.83,-0.028306938791011628,-0.5236218465435195,-0.31184688760621015,0.7923196310384821,-61.0325232951388,57.93070716161367,147.95345551769068,15
1767366245.071288,1,left_wrist,-0.7276,0.0337,-0.1674,46.69,9.1,-8.12,-0.20968046301650267,0.5158093777464743,-0.2919822282567721,-0.7776381984188984,38.648465439979674,67.61896051607091,176.2509728450582,15
1767366245.071288,2,right_wrist,-0.6476,-0.1171,-0.1493,-10.01,-56.7,-42.98,-0.024339572795441182,-0.4989075630984856,-0.32239437178721353,0.8040899811085783,-59.22440604898096,54.88777665273959,150.57831284788853,15
1767366245.1263769,1,left_wrist,-0.6827,0.1698,0.0869,-21.84,-47.25,32.06,-0.19940456785075017,0.5002839934803329,-0.2887593707855158,-0.7915628654574312,37.75490450643144,65.1174683916828,176.35368675161544,15
1767366245.1263769,2,right_wrist,-0.6476,-0.1171,-0.1493,-10.01,-56.7,-42.98,-0.020883388192604387,-0.4762686464257123,-0.33431765793851376,0.812996779895175,-58.35132751671241,52.03373614730377,152.4551312803296,15
1767366245.182988,1,left_wrist,-0.2611,0.5988,0.161,46.48,-181.23,132.37,-0.15709888540860475,0.35354652005405035,-0.3214000510565219,-0.8643071245465411,39.281950006549174,45.40837980199486,176.38187740283598,15
1767366245.182988,2,right_wrist,-0.3265,-0.3455,0.1074,-29.33,-155.54,-129.64,-0.00113301369309406,-0.39961035983973436,-0.3724506254525455,0.8376101767461622,-57.091758634191436,42.08863204091219,156.51203865579396,15
1767366245.26778,1,left_wrist,-0.2611,0.5988,0.161,46.48,-181.23,132.37,-0.1367699604799094,0.26074097385951717,-0.34915261153476834,-0.8896069785695062,41.5608747374957,34.01577638500042,175.76116450064922,15
1767366245.26778,2,right_wrist,-0.1318,-0.246,0.2811,5.46,-191.94,-168.28,0.06262766865824433,-0.1906727709021141,-0.41433606883265284,0.887720277801091,-52.44566896027739,16.656328086384207,163.68089297590808,15
1767366245.324217,1,left_wrist,0.0063,0.2547,0.307,-29.4,-215.95,168.56,-0.09868395930322657,0.14766661755869295,-0.34144968825125843,-0.92296703983844,39.73401580081994,19.87529343356111,175.03924067470362,15
1767366245.324217,2,right_wrist,0.1932,-1.4962,0.834,-53.55,-226.59,-197.54,0.0950483137641361,-0.06432136666610505,-0.45579216360721636,0.8826562657314859,-54.799379147925656,1.5416006848930797,166.9085294582339,15
1767366245.376699,1,left_wrist,0.8242,0.2728,0.9331,71.89,-158.76,241.71,0.05048861893027494,-0.0687876291818111,-0.3239996729377513,-0.9422013443878593,37.713565317824,-9.342755135349513,-177.0625142586876,15
1767366245.376699,2,right_wrist,0.6041,-0.8218,0.6588,-78.4,-183.96,-235.41,0.1478013138369044,0.054032963900496486,-0.49555540880539406,0.8542014090622487,-58.80204266630896,-13.815581591835448,168.17759592125412,15
1767366246.2308512,1,left_wrist,0.8784,0.7959,0.6666,-34.09,233.03,-216.65,-0.09482374655830633,0.058906266606266584,-0.31914765915528315,-0.9411074755302185,36.75455409970591,9.86921689471112,171.77879798894983,16
1767366246.2308512,2,right_wrist,0.1703,-0.671,0.5539,76.72,185.43,201.53,0.023634224748419235,-0.19675834103275622,-0.3639373405060676,0.9100973523969561,-45.60619265812764,19.933894452280096,168.57393003632944,16
1767366246.2840981,1,left_wrist,-0.0854,0.4485,0.4211,-65.59,194.18,-130.2,-0.1490368186456401,0.26106697009213914,-0.27746374286860526,-0.9124943480418063,31.125034839110434,33.99695867254521,171.1802979135194,16
1767366246.2840981,2,right_wrist,-0.0473,-0.385,0.4006,43.47,174.93,169.19,-0.010264731602682015,-0.2869968391240335,-0.32877549400451744,0.8996855696075292,-43.41286441314406,31.54468726180335,168.47686578068328,16
1767366246.377302,1,left_wrist,-0.0854,0.4485,0.4211,-65.59,194.18,-130.2,-0.16729676336077223,0.35289100107681964,-0.25030388858366304,-0.88590501617719,27.48072854920373,45.154088198470646,170.222596606743,16
1767366246.377302,2,right_wrist,-0.4621,-0.3016,0.245,37.59,117.81,107.38,-0.06435768056425067,-0.4355741461797588,-0.2619135260915142,0.8587983214832652,-39.17035060020686,51.4305474837673,169.12517369986148,16
1767366246.43155,1,left_wrist,-0.5202,0.1474,-0.0791,30.38,114.8,-54.32,-0.18245770475668677,0.4726443054692001,-0.24301479510086926,-0.8272003118015261,27.817019413269083,60.5311027072776,171.5678199739812,16
1767366246.43155,2,right_wrist,-0.6198,-0.2728,0.1152,28.28,94.5,70.91,-0.07476624668300626,-0.4821407370362086,-0.24146451024102605,0.8388356265331003,-38.511400817965935,57.669840753559306,168.41414532726907,16
1767366246.495237,1,left_wrist,-0.609,0.2499,-0.0869,-7.0,42.98,-26.46,-0.18499419541447104,0.4939361169280632,-0.24064161217275898,-0.8147980575258356,27.854927307252066,63.37400280354032,171.82306908234105,16
1767366246.495237,2,right_wrist,-0.6198,-0.2728,0.1152,28.28,94.5,70.91,-0.08416869565557697,-0.5268476375718999,-0.22087994548921672,0.8164307975188269,-38.066294714683856,63.82509093766287,167.52261335029786,16
1767366246.57582,1,left_wrist,-0.609,0.2499,-0.0869,-7.0,42.98,-26.46,-0.18719269524785548,0.5148337833134735,-0.23819176424446337,-0.8019786492488991,27.973723860789843,66.19819024368576,172.1685520140081,16
1767366246.57582,2,right_wrist,-0.6773,0.0537,-0.1635,2.52,-49.98,-23.52,-0.08768809917190519,-0.5429324332215304,-0.21266578550220142,0.8076561359245022,-37.810110029419796,66.10678686973378,167.26554235709298,16
1767366246.633502,1,left_wrist,-0.6974,0.2718,-0.0205,-9.24,-92.19,45.5,-0.17342579824684765,0.48370396989325093,-0.24024770760171676,-0.8235502419428172,28.683510431163846,61.64710980650198,173.56412453255385,16
1767366246.633502,2,right_wrist,-0.6686,-0.0712,-0.041,-47.39,-81.97,-52.85,-0.08848858608618781,-0.5102136633748933,-0.2383535351741314,0.8216078018787506,-39.488612121684696,61.71170506659257,168.08829217715555,16
1767366246.687007,1,left_wrist,-0.4919,0.246,-0.0742,54.25,-130.48,84.84,-0.16643823829355994,0.42527845989688384,-0.2696268694527669,-0.8477841091047718,32.632674236947594,54.17818905856936,174.8166928255037,16
1767366246.687007,2,right_wrist,-0.4987,-0.164,0.0966,41.44,-122.5,-96.39,-0.057324348561048684,-0.4599064554992856,-0.2408197979790324,0.8527636226724689,-37.832685979776336,54.291079691235225,167.76007711118868,16
1767366246.74384,1,left_wrist,-0.2894,0.3845,0.2435,1.12,-180.39,118.16,-0.14105295196936257,0.34045964872255785,-0.28105127633249055,-0.8861159474946375,33.37990481433789,43.05183049096199,175.39991938509647,16
1767366246.74384,2,right_wrist,-0.4987,-0.164,0.0966,41.44,-122.5,-96.39,-0.026563174363654615,-0.407847784694836,-0.24169770473572033,0.8800777248702102,-36.25852179246121,46.9464539502122,167.27320099535487,16
1767366246.826487,1,left_wrist,-0.2894,0.3845,0.2435,1.12,-180.39,118.16,-0.11507150244379136,0.2538455475651842,-0.29077723853309,-0.9152975389772067,34.019894223845554,32.11421665584491,175.73269169286954,16
1767366246.826487,2,right_wrist,-0.0703,-0.3538,0.6573,13.93,-206.15,-178.85,0.04332788871905762,-0.22460987249997694,-0.30382434391480384,0.9248588364066336,-39.13904693806933,22.90079400707622,166.39871752305805,16
1767366246.882967,1,left_wrist,0.2874,0.3992,0.7725,-63.35,-176.54,194.81,-0.005493692827692243,0.04093891096549443,-0.2698776527508459,-0.9620082522794533,31.368535223837092,4.6881505405827,-179.33731747625598,16
1767366246.882967,2,right_wrist,0.0508,-1.1273,0.5675,-208.46,-188.72,-208.6,0.08272158525944057,-0.12084783540326864,-0.4106503981420172,0.8999551047226257,-50.15356152922569,8.602352983876834,165.46524830948564,16
1767366246.980213,1,left_wrist,0.2874,0.3992,0.7725,-63.35,-176.54,194.81,0.05752603726914106,-0.060266689888574775,-0.24377077327432903,-0.9662476345239969,27.97432701526305,-8.308987996643307,-175.25887235004598,16
1767366246.980213,2,right_wrist,0.5451,-0.9262,0.7017,-18.97,-184.59,-232.68,0.19647929666449437,0.11500212147142667,-0.4499353216090491,0.8635557911379315,-52.15371430224305,-22.05073413330109,165.25790308037352,16
1767366247.830485,1,left_wrist,0.5461,0.6388,0.651,-60.83,240.03,-180.32,-0.07969757820551931,0.09553475749743139,-0.21643929063892062,-0.9683364289366598,24.45910025612314,12.680779983163285,173.34918040610432,17
1767366247.830485,2,right_wrist,0.2323,-0.7218,0.4787,51.94,198.24,182.42,-0.030497028246658998,-0.21046875675459759,-0.37928740211983825,0.9005075792526571,-47.061526539046866,23.715263823070906,173.43153901106737,17
1767366247.885931,1,left_wrist,-0.0615,0.5485,0.3709,-47.25,199.29,-107.45,-0.1364863060159541,0.28734119602071345,-0.18866199759450572,-0.9290926627646761,19.613133159348788,35.833567850930294,169.68294580266127,17
1767366247.885931,2,right_wrist,-0.0927,-0.608,0.344,63.42,180.04,145.95,-0.04993362533025094,-0.30171040635125884,-0.34499660298040175,0.8873865041191009,-45.111594077207585,34.74474127369663,171.63376308775642,17
1767366247.9370172,1,left_wrist,-0.0615,0.5485,0.3709,-47.25,199.29,-107.45,-0.15531985599506137,0.3753519553804118,-0.1708664540659973,-0.8976587919698037,16.0767405173989,46.6316305392133,167.3331001044718,17
1767366247.9370172,2,right_wrist,-0.2357,-0.2933,0.2333,24.64,139.37,129.08,-0.07365423938857411,-0.3733866460841724,-0.3244095579775283,0.8659768497130441,-44.78476973384077,43.985528553122904,170.82761091001004,17
1767366248.024821,1,left_wrist,-0.2855,0.1542,0.3601,-83.09,151.2,-82.18,-0.1609302331202288,0.44146697470305035,-0.13640966285928569,-0.8721242882714717,9.495575031216275,54.481997527894684,163.9868998380221,17
1767366248.024821,2,right_wrist,-0.589,-0.2865,0.1503,50.68,63.56,47.32,-0.0853309786045059,-0.4606931700262334,-0.2888795636438082,0.8348826413877224,-44.655638499345756,54.939926752960254,167.56573531330943,17
1767366248.0878038,1,left_wrist,-0.7242,0.0908,0.0239,3.99,48.86,-22.75,-0.16658546576839614,0.5041712496456423,-0.13118216356736484,-0.8371689635833756,6.447555272772465,62.605446659950346,161.41501332099097,17
1767366248.0878038,2,right_wrist,-0.589,-0.2865,0.1503,50.68,63.56,47.32,-0.084144174740034,-0.4938916688910451,-0.2647299953071061,0.8239592264439038,-43.51160317773544,59.142340518768734,166.14389903377358,17
1767366248.174361,1,left_wrist,-0.7076,0.0727,-0.1122,35.77,-16.52,-5.88,-0.1769265441853339,0.49911568126295836,-0.14282429136402325,-0.8361708895174552,7.689243592436095,62.27993984161095,160.75604081397188,17
1767366248.174361,2,right_wrist,-0.7169,-0.1767,-0.1215,-54.04,-20.16,-28.0,-0.0982986886684097,-0.49312114715191957,-0.29872422809535,0.8111305305476321,-49.15179582225363,59.170890041656506,164.7094021206871,17
1767366248.2363,1,left_wrist,-0.5998,-0.001,0.1103,51.24,-95.76,45.01,-0.17594153344264454,0.442776620436807,-0.17355413109998452,-0.8619004610641184,14.66988738243991,55.52057234038392,164.6773862127281,17
1767366248.2363,2,right_wrist,-0.7169,-0.1767,-0.1215,-54.04,-20.16,-28.0,-0.10314706814325647,-0.4831543586327291,-0.32343827833124883,0.8070379347823522,-52.517594180615966,57.84067105245971,164.0740025305804,17
1767366248.325356,1,left_wrist,-0.5539,0.4997,0.3748,-1.47,-107.24,67.83,-0.15564679510930568,0.39548304173490717,-0.18177812465488322,-0.8867490920600153,17.78816771828931,49.28598643294097,168.30142560819817,17
1767366248.325356,2,right_wrist,-0.4851,-0.6163,0.2176,-103.04,-127.26,-107.73,-0.08906079848249857,-0.3828083242740765,-0.39100639712115876,0.8322499374890117,-55.453028905498606,44.97766566157488,167.66473359698685,17
1767366248.383925,1,left_wrist,-0.4534,0.1986,0.2225,27.93,-143.43,93.73,-0.11290141024355765,0.2678251728880795,-0.21933574860181268,-0.9313510496680446,24.59865598293643,33.25766773492889,173.6273936672493,17
1767366248.383925,2,right_wrist,-0.2908,-0.7598,0.5119,95.9,-160.72,-140.0,-0.047185446302715366,-0.2989322236576753,-0.37243409264531063,0.8773288470988261,-48.98362667701736,34.033025027030654,170.283088585092,17
1767366248.472414,1,left_wrist,-0.2845,0.4943,0.2484,23.17,-168.14,124.04,-0.07963617567663542,0.18587788248262346,-0.2383444807393587,-0.9498944156212635,27.37567509945542,23.022364985057234,176.0945116698362,17
1767366248.472414,2,right_wrist,-0.1435,-1.628,0.6832,-17.71,-170.52,-187.46,0.0033873310136939964,-0.0999394359544115,-0.4610127842154157,0.8817413724668184,-55.70413709569416,9.969171324906572,174.28245551489167,17
1767366248.528058,1,left_wrist,0.1191,0.8638,0.6281,154.07,-183.12,202.58,-0.025452211580075837,0.0794366813514278,-0.3125466697165284,-0.9462328348935384,36.564666204949894,9.569345904826575,-179.91354636857446,17
1767366248.528058,2,right_wrist,-0.1435,-1.628,0.6832,-17.71,-170.52,-187.46,0.041073535493543145,0.004206043727685047,-0.476676054117736,0.8781088846543843,-56.899014985197404,-2.6677540690000745,176.08949892385982,17
1767366248.579458,1,left_wrist,0.4714,1.1209,0.7305,6.23,-186.27,213.01,0.09978322067667751,-0.1379558276378785,-0.32423287598633643,-0.9305291723647177,37.45673468788976,-18.750628071975992,-174.16655679905517,17
1767366248.579458,2,right_wrist,0.1469,-1.3391,0.3006,-255.01,-114.45,-269.15,0.11907108234802186,0.09829333053831138,-0.5707404723303852,0.8064836091107157,-69.85118659744953,-17.12523687082816,175.20662197353548,17
1767366248.630054,1,left_wrist,0.673,0.3187,0.7544,11.76,-165.97,212.03,0.16367286117748064,-0.2372085425422423,-0.31888112039451,-0.9029164595436857,36.06427786044209,-32.19100106476728,-170.18359054012225,17
1767366248.630054,2,right_wrist,0.1469,-1.3391,0.3006,-255.01,-114.45,-269.15,0.190866643668238,0.18657094081772424,-0.6480222261853237,0.7133220890642799,-83.94461936316296,-30.900050022271216,177.96334974893392,17
1767366249.426732,1,left_wrist,0.5656,0.731,0.7993,-54.95,231.14,-193.76,-0.09005187093304198,-0.03716804317662799,-0.25368923077250194,-0.9623673785503827,29.679247757530213,-1.4811603024078226,168.91596879563235,18
1767366249.426732,2,right_wrist,0.449,-1.0673,0.6617,58.31,179.34,229.81,0.16967823345837357,-0.15172219172036747,-0.559814155885491,0.7967419811333081,-70.87582091196924,2.968695185356628,153.84227982398596,18
1767366249.4864352,1,left_wrist,0.0625,0.4978,0.5812,-35.49,214.2,-136.71,-0.16153425536674523,0.17359842441418488,-0.24642935928213147,-0.9397035927715834,26.448461760005504,23.94601417450576,166.19827844533708,18
1767366249.4864352,2,right_wrist,0.305,-0.7159,0.65,70.21,175.56,202.79,0.147333101762178,-0.2530766303669385,-0.5035451172561896,0.8128268519030989,-67.7837271291736,15.250357452733478,149.17427844102932,18
1767366249.5390432,1,left_wrist,-0.2342,0.4568,0.4143,-77.49,197.47,-101.92,-0.17417759452271891,0.2687626180012029,-0.2241577830768318,-0.9204249611008487,22.904806834483114,34.948378158891266,165.86678669994905,18
1767366249.5390432,2,right_wrist,-0.2298,-0.5529,0.3157,60.06,133.84,159.18,0.12514941125364823,-0.33108268272790164,-0.4505753287948413,0.8195753504968177,-65.4777778043172,25.462225427227295,146.1058564910899,18
1767366249.6201081,1,left_wrist,-0.3396,-0.0254,0.1713,-17.71,143.78,-83.37,-0.19223766728884156,0.339143182871472,-0.21588516252188744,-0.8952207422697767,20.73071456296451,43.647411001003974,164.13941835592163,18
1767366249.6201081,2,right_wrist,-0.3997,-0.2718,0.3055,-24.36,118.09,132.93,0.07100348138016534,-0.4676295652884271,-0.37138436208435693,0.7989710576105047,-66.50888464130061,43.987849839294356,140.17414414618,18
1767366249.675616,1,left_wrist,-0.5563,0.3367,0.1664,11.13,112.42,-54.39,-0.21975299324582942,0.4541525055411552,-0.21422604782337093,-0.8363978264582997,17.758083519785643,58.63379604845069,160.58513449618584,18
1767366249.675616,2,right_wrist,-0.6949,-0.0381,-0.0078,27.02,65.31,50.12,0.06667883951818025,-0.5006303299981341,-0.3472837969417287,0.7901374370501656,-67.29767728047543,48.14368961610516,137.2321472880237,18
1767366249.730207,1,left_wrist,-0.672,0.2289,-0.0922,-20.58,82.95,-32.13,-0.21846695688590553,0.4916488227540499,-0.21036338747032035,-0.8162725458114958,16.7228755565253,63.45117044592786,160.41717375751332,18
1767366249.730207,2,right_wrist,-0.6949,-0.0381,-0.0078,27.02,65.31,50.12,0.06221353079421503,-0.5327105179110072,-0.3225694211225201,0.7799345801089895,-68.4978447566902,52.26242725920176,133.93954851899247,18
1767366249.821363,1,left_wrist,-0.6773,0.0264,-0.1161,-7.28,16.73,-10.43,-0.2188803086524583,0.502548195051267,-0.207896720148882,-0.8101331223238906,15.965191041810094,64.85978987917689,159.9445826433422,18
1767366249.821363,2,right_wrist,-0.752,-0.0376,-0.0063,7.91,-41.65,-19.53,0.05476504471237229,-0.5380355582501436,-0.32181336739917027,0.7771452145508683,-69.0642655256632,53.227163331809244,133.8915357778099,18
1767366249.872072,1,left_wrist,-0.7735,0.2987,0.1337,-4.83,-54.25,25.2,-0.2117557252421353,0.48293101197494254,-0.20981615667419712,-0.8233555312855461,17.55977064899835,62.14187513432864,161.78735105189946,18
1767366249.872072,2,right_wrist,-0.7183,-0.1654,-0.0273,-51.1,-56.63,-47.11,0.04814976034103575,-0.5164280088203074,-0.34960692274766275,0.780229909611201,-69.53476545439959,50.551695783075175,136.64137510811506,18
1767366249.9255738,1,left_wrist,-0.7735,0.2987,0.1337,-4.83,-54.25,25.2,-0.2048981607638422,0.4633447038991032,-0.21140382442152986,-0.8358449928690115,18.767683504864006,59.451723507055625,163.23343805077016,18
1767366249.9255738,2,right_wrist,-0.7183,-0.1654,-0.0273,-51.1,-56.63,-47.11,0.04132530389645385,-0.4941201226054403,-0.37686738321721514,0.7823736314327439,-70.1498496145904,47.904183527925056,139.30559451469972,18
1767366249.9849951,1,left_wrist,-0.5412,0.2694,0.0249,38.36,-120.96,75.53,-0.18377380263129384,0.35578702881209745,-0.2522533571423478,-0.8809148786380607,26.851009739941727,46.01744668784795,168.0085056445644,18
1767366249.9849951,2,right_wrist,-0.5544,-0.1171,0.0356,41.09,-109.76,-94.57,0.061279248447375166,-0.4426856346147952,-0.38216585537392134,0.8088408629648602,-64.83394990115215,42.01204264989975,143.92732521239103,18
1767366250.0732448,1,left_wrist,-0.2372,0.6451,0.4187,42.63,-179.9,155.26,-0.14753632241872647,0.26168041511398327,-0.28009168429205905,-0.9117593116077118,31.54787694499868,34.043800213800836,171.50210576005563,18
1767366250.0732448,2,right_wrist,-0.223,-0.5661,0.425,25.69,-170.94,-177.38,0.10729177302819684,-0.27909600140553864,-0.45653844381985725,0.837953785572002,-62.615667108539725,21.701646881390868,152.10813956138364,18
1767366250.134818,1,left_wrist,-0.0127,0.4124,0.6793,5.6,-187.39,172.2,-0.06388314638683937,0.06104453135939517,-0.30825048919215126,-0.9471927706183303,35.675679014691646,8.918298360677248,175.15814730061183,18
1767366250.134818,2,right_wrist,-0.0356,-0.6812,0.3738,-82.81,-161.35,-216.09,0.1454716345625546,-0.17550089164760158,-0.5177163434734914,0.8246255078937549,-66.02913409130316,7.979509071637068,154.80116380999888,18
1767366250.190808,1,left_wrist,0.4704,1.4962,0.61,-40.88,-194.11,186.76,-0.010498351669211693,-0.045536223414054285,-0.2923167274793744,-0.9551791286482155,34.140432466150905,-4.637587113634699,177.31580335921254,18
1767366250.190808,2,right_wrist,0.5285,-1.2532,0.814,86.03,-169.19,-228.48,0.19680657816633576,-0.053048177386105295,-0.5102327493481329,0.835533125111815,-61.52949636885088,-6.441419477818982,157.32869645271035,18
1767366251.07325,1,left_wrist,0.8755,1.077,0.6588,-89.74,208.81,-236.67,-0.10327011071450978,-0.09394491525783442,-0.2801140700194243,-0.9497608882805,33.7479629509763,-6.926477021699747,165.48558745368305,19
1767366251.07325,2,right_wrist,0.5187,-1.0375,0.6407,90.58,165.41,242.69,0.09155940981443883,-0.1094316824946437,-0.5125674917733328,0.8467090100607279,-63.09614139229411,5.247192790049299,164.433586869756,19
1767366251.1317,1,left_wrist,0.3933,0.7671,0.7335,-86.8,215.11,-182.63,-0.20642794592960567,0.1309972797804142,-0.25433179145367857,-0.9357043099640922,26.76861038189283,20.496601208725853,160.04493235095777,19
1767366251.1317,2,right_wrist,0.3831,-0.9667,0.6891,71.82,176.19,228.06,0.051925313768441,-0.21736805511078294,-0.46362956754821116,0.8573811955614977,-59.813103150542716,18.940515679871044,162.10757708840634,19
1767366251.1851552,1,left_wrist,-0.0932,0.508,0.4514,-27.23,174.37,-127.82,-0.23532759093789496,0.2150957141391531,-0.2543434776396793,-0.9130521091835275,25.023833083162526,30.830181601529006,158.0974524159987,19
1767366251.1851552,2,right_wrist,0.0654,-0.8828,0.5729,59.43,183.54,186.97,0.02685047064632314,-0.31667793911735964,-0.4172683426077213,0.8513995920599552,-58.19336453783405,31.11993592349631,158.76998242283406,19
1767366251.2769558,1,left_wrist,-0.3104,0.3206,0.448,-53.41,156.52,-109.69,-0.2542435012703286,0.29288194989342275,-0.2423159871682814,-0.8893049914686706,21.638421812351694,40.1010232075374,156.07023433497508,19
1767366251.2769558,2,right_wrist,-0.1937,-0.4338,0.2108,-67.34,137.83,121.94,-0.02483899266317106,-0.46675498299378143,-0.38362872808234666,0.7964620576548982,-65.33766232480521,49.69068539614803,150.50009824674947,19
1767366251.327879,1,left_wrist,-0.5031,0.4734,0.1801,-8.19,148.19,-77.56,-0.28119205800543207,0.42993081655506427,-0.2329541194073155,-0.8257256794735937,15.318617906192067,57.24793633827428,150.78394792377597,19
1767366251.327879,2,right_wrist,-0.6129,-0.1381,0.1381,24.92,65.03,65.8,-0.03470512838735499,-0.5028721124153449,-0.35901952237569196,0.785506317715953,-65.92142861032964,54.58123982516557,148.06456706916123,19
1767366251.385597,1,left_wrist,-0.5817,0.1083,0.0361,-23.73,102.55,-51.03,-0.28358017567709976,0.47716919211506803,-0.22886691436544737,-0.7996948052651319,12.239198165542378,63.25060396112902,148.50480219516783,19
1767366251.385597,2,right_wrist,-0.7945,-0.3157,-0.0805,-23.8,63.49,44.52,-0.046399015757669776,-0.5339835965292609,-0.35833382485645415,0.7643987964002423,-70.86137464260528,58.16878842973885,143.76531418805246,19
1767366251.470878,1,left_wrist,-0.6486,0.1386,-0.1391,47.88,38.92,-16.31,-0.2941304233264483,0.48904591350277915,-0.24882359632526901,-0.7825651451935461,14.346803560591441,65.75442375031618,148.1036610396723,19
1767366251.470878,2,right_wrist,-0.7788,0.0307,-0.1484,54.53,13.16,17.92,-0.050973810011271034,-0.5756190651921261,-0.33356548665045255,0.7448479231332559,-75.32122314220447,63.06279306343439,137.15144127546895,19
1767366251.521019,1,left_wrist,-0.7393,0.1459,-0.1039,-23.31,-4.97,2.73,-0.28767460467449035,0.4927322759301953,-0.24279697299640776,-0.7845430873991607,13.810815046618659,65.89975742806476,148.7031284343343,19
1767366251.521019,2,right_wrist,-0.7076,-0.2313,0.0161,3.85,-58.24,-48.3,-0.04517781844398203,-0.5525868489804907,-0.3414771879855257,0.7589466839903529,-71.57055574261051,60.41477819565876,141.28167747357085,19
1767366251.575764,1,left_wrist,-0.7379,0.3255,0.1396,4.13,-62.3,43.96,-0.2696225499194991,0.4505745326572934,-0.2500021699178113,-0.8135018046273494,19.25164528046205,60.21538118923789,154.55939184726384,19
1767366251.575764,2,right_wrist,-0.7076,-0.2313,0.0161,3.85,-58.24,-48.3,-0.039153644027556056,-0.5291805161294744,-0.34928768222490353,0.7722908056906166,-68.52596501722338,57.641334700203956,144.7108940996349,19
1767366251.637068,1,left_wrist,-0.4216,0.3572,0.1937,20.3,-130.41,98.49,-0.24963762174075366,0.3887816112527492,-0.2645716289756578,-0.8464819960899957,24.469540461523554,52.212371332871676,159.2680667666742,19
1767366251.637068,2,right_wrist,-0.5168,-0.2342,0.0224,-19.81,-89.53,-80.15,-0.031685494886081966,-0.4890946756362772,-0.3723593627454574,0.7881186031644385,-66.27990355993167,52.61050867058563,148.82950335621513,19
1767366251.723975,1,left_wrist,-0.3387,0.3353,0.2996,35.21,-155.89,134.82,-0.2205977795925373,0.3077076228790945,-0.28566682729882653,-0.8803675949522234,29.562391219814387,41.899539667638315,163.40258089825525,19
1767366251.723975,2,right_wrist,-0.2821,-0.426,0.2948,-18.41,-178.85,-149.45,0.007014166721971255,-0.32993947599908136,-0.42569203162094826,0.8425420095503118,-59.81989692599106,33.36728659825768,159.48207168429644,19
1767366251.782868,1,left_wrist,-0.1191,0.6637,0.4309,0.91,-176.26,166.32,-0.14532703714972525,0.12984926339421798,-0.30873926966777765,-0.9309668546378377,34.701662660830735,19.360272671526324,168.35643440703933,19
1767366251.782868,2,right_wrist,-0.2201,-0.7862,0.3631,-84.49,-187.95,-189.28,0.03195408589991446,-0.2207164254046947,-0.4831886211876749,0.8466356668045756,-62.37172201445808,20.050795651355326,163.46174188476633,19
1767366251.87644,1,left_wrist,0.0605,0.222,0.813,-15.47,-170.87,181.51,-0.09266368676915393,0.03364208518735269,-0.29725399048373685,-0.9496955914397464,34.21930749581257,6.833745880560515,170.96020978265545,19
1767366251.87644,2,right_wrist,-0.0922,-1.3698,0.7666,-236.39,-131.39,-215.25,0.11778718625325574,-0.018040354257278183,-0.5928819609861485,0.7964243245343726,-72.65219533440249,-6.3690580144170434,167.8596689997196,19
1767366251.933152,1,left_wrist,0.6178,1.4035,0.711,-12.81,-162.47,184.73,0.020872285688540354,-0.15238519390091074,-0.2785065353738387,-0.9480386121482491,33.161469615533825,-17.491255019446605,177.27734515248932,19
1767366251.933152,2,right_wrist,0.4695,-0.5866,0.4475,-197.4,-79.45,-191.03,0.16315605420400534,0.05152146371314301,-0.6604276643521079,0.7311367456993628,-82.65230140013557,-16.908492674926855,169.73324955381898,19
1767366252.733078,1,left_wrist,0.5856,0.7325,0.7447,-45.71,239.33,-163.59,-0.07385476210454174,0.12607024762712607,-0.26796376188224047,-0.9522852456568015,30.808806422871573,16.24173205860366,175.63352365693692,20
1767366252.733078,2,right_wrist,0.5236,-1.0521,0.6022,123.83,166.39,254.1,0.04733768901325151,-0.16288942390329975,-0.5851298813109481,0.7930001265929102,-74.46945780334978,11.70924376867831,164.25554882935987,20
1767366252.829758,1,left_wrist,0.3392,0.5383,0.6778,-30.17,224.98,-141.54,-0.10270655425202752,0.23113880793230251,-0.25423342538566257,-0.933483572752077,29.214181827031627,28.93070241081416,175.13508684299066,20
1767366252.829758,2,right_wrist,0.082,-0.8233,0.5187,72.52,169.12,195.51,0.0048961732602330384,-0.37280707106111377,-0.48411210340656313,0.7915973639354243,-71.79284507203285,35.83730254928986,152.94683150500228,20
1767366252.88716,1,left_wrist,-0.3963,0.4065,0.4124,-26.32,146.58,-73.71,-0.12302667293262136,0.37574638963102924,-0.23198473832110728,-0.8887419026986765,27.6735360666985,46.46583180808259,176.30883198443496,20
1767366252.88716,2,right_wrist,-0.1562,-0.5573,0.3631,70.63,157.78,159.04,-0.0035891230579145907,-0.4557731366906039,-0.4307855752970177,0.7788977816009626,-72.27930827934394,45.487184334825734,146.485878546456,20
1767366252.9767392,1,left_wrist,-0.5549,0.264,0.1713,19.18,124.18,-61.95,-0.1369245943260424,0.4310457437221151,-0.23756255209624175,-0.8596599654102882,29.393238711992293,53.72261109575445,177.03397620973982,20
1767366252.9767392,2,right_wrist,-0.6671,-0.2059,-0.0073,7.7,78.26,64.68,-0.018805770224649816,-0.5636720946713503,-0.372070881187448,0.7372132473494125,-80.56139657523907,57.68128302276862,132.8864668622937,20
1767366253.028076,1,left_wrist,-0.6895,0.2811,0.0044,6.02,88.55,-44.94,-0.15664506601018455,0.5222788071298342,-0.24302548583601397,-0.8022629146058491,33.93678442388538,66.08492432011607,-179.6448065699771,20
1767366253.028076,2,right_wrist,-0.6671,-0.2059,-0.0073,7.7,78.26,64.68,-0.028029473349830872,-0.6015662096006834,-0.3518106122932262,0.7166322189019015,-86.51008422242083,61.875525468985735,125.63868544145943,20
1767366253.0867982,1,left_wrist,-0.772,0.1186,-0.0415,10.78,10.99,2.52,-0.1571289959630154,0.5282308516633358,-0.24875181929225806,-0.7964955608021137,35.891487273409474,66.87340749161231,-178.17742714100527,20
1767366253.0867982,2,right_wrist,-0.7535,-0.0351,-0.2503,-10.01,-2.66,5.18,-0.03510548048249887,-0.6045529348945083,-0.3523886682025101,0.7135163492681793,-87.42878388906671,62.55558202169065,125.33643030283656,20
1767366253.176703,1,left_wrist,-0.772,0.1186,-0.0415,10.78,10.99,2.52,-0.15765626996949902,0.5341258665906465,-0.2544134062059446,-0.7906502880039848,37.94394676260696,67.64322812621977,-176.6125115076788,20
1767366253.176703,2,right_wrist,-0.7257,-0.2616,0.0137,26.04,-57.33,-12.95,-0.043555965801942306,-0.5896228095461875,-0.3439853328107259,0.7294668677308206,-81.41143139264601,62.89660809443782,131.33356512558137,20
1767366253.236029,1,left_wrist,-0.5187,0.2357,-0.0322,47.39,-109.97,69.16,-0.15234134374084393,0.45955852703812206,-0.2950992407682855,-0.8237199240711414,40.62820992048819,57.887574554809355,-177.81604284430043,20
1767366253.236029,2,right_wrist,-0.6817,0.0068,0.0317,-29.4,-69.3,-55.09,-0.04729180130857515,-0.5602108005542938,-0.3629188608329956,0.7431132113769665,-77.37915232086533,60.10339300454119,137.562792937324,20
1767366253.323183,1,left_wrist,-0.5187,0.2357,-0.0322,47.39,-109.97,69.16,-0.15032625796676147,0.4100692916684473,-0.3200972026519551,-0.8407038557367523,42.127651648465374,51.78840216249811,-179.0955254322469,20
1767366253.323183,2,right_wrist,-0.3777,-0.1972,0.2142,10.36,-137.06,-150.85,-0.00980451368664569,-0.4373069039026292,-0.41570254244635646,0.7974070099479315,-67.4365321495541,44.87599222277947,150.593414463033,20
1767366253.380359,1,left_wrist,-0.2977,0.3884,-0.0166,60.62,-148.05,116.06,-0.1368984831949537,0.33506869509872633,-0.3557947994277389,-0.8616251131228317,44.9508444463327,42.44038656767799,-179.80426815211948,20
1767366253.380359,2,right_wrist,0.0415,-0.7027,0.5592,68.18,-183.4,-231.7,0.052028352284233276,-0.32547963093625887,-0.43193012515883755,0.8395191643937949,-61.334502531133715,30.102438018557216,154.78740700111328,20
1767366253.4363468,1,left_wrist,0.4392,0.6339,0.855,-72.94,-226.03,205.87,-0.05995830401217287,0.07680027166656271,-0.3781380344580977,-0.9206075966165458,44.37302677862349,10.763228351065605,176.94751258155543,20
1767366253.4363468,2,right_wrist,0.0415,-0.7027,0.5592,68.18,-183.4,-231.7,0.11308953372357841,-0.20734929105676986,-0.4401938299883683,0.866283106669298,-56.96342934259671,15.05129758969638,156.9254521021149,20
1767366253.521321,1,left_wrist,0.4392,0.6339,0.855,-72.94,-226.03,205.87,-0.010319813542071649,-0.04999142719004197,-0.3453847324595926,-0.9370718997172923,40.60007379513415,-4.965881388627423,176.90014156643878,20
1767366253.521321,2,right_wrist,0.2616,-1.5875,0.5958,-135.59,-189.77,-228.69,0.1954242878555872,0.011045623471721933,-0.5599999466271329,0.8050387578842808,-67.45252190534428,-13.689464329789248,161.87355499191406,20
1767366254.3327549,1,left_wrist,0.6398,0.6364,0.8682,-151.83,232.4,-216.72,-0.14051961233947438,0.19336095688536847,-0.25804911229659916,-0.9360963810117395,28.429035150782294,25.75544848163207,169.55467437058024,21
1767366254.3327549,2,right_wrist,0.405,-1.0975,0.7935,157.08,200.2,216.16,0.09555063278257754,-0.2705030221003772,-0.43836630441845953,0.8517823517541993,-59.554036256823665,22.150889352166242,154.4178176232931,21
1767366254.419733,1,left_wrist,0.3909,0.7203,0.6193,-37.1,241.85,-156.1,-0.17124022743104297,0.30562940442142067,-0.24449816449838344,-0.9041504848305362,25.943373192918042,39.52432750826327,168.01301507579677,21
1767366254.419733,2,right_wrist,-0.1752,-0.4363,0.2923,25.34,182.98,141.33,0.05306825770887856,-0.4587086782314252,-0.3360004676803163,0.8208981631466427,-59.517105383940574,45.84387854917815,145.41888627721966,21
1767366254.475181,1,left_wrist,-0.0122,0.3904,0.5563,-104.23,232.05,-127.89,-0.18063759396202334,0.4119863702336711,-0.20302060467199692,-0.8697240507585796,19.46366431639849,52.18319551289969,166.1353125386185,21
1767366254.475181,2,right_wrist,-0.1752,-0.4363,0.2923,25.34,182.98,141.33,0.03629525785629519,-0.5388427730804495,-0.29431145197734704,0.7884870889184566,-63.943585481242614,55.932367565274525,138.05719693022078,21
1767366254.5319612,1,left_wrist,-0.3626,0.3196,0.1947,-12.18,168.91,-69.93,-0.19194443628392902,0.5467997473791485,-0.20091463936332524,-0.789810532555276,18.493205518627686,70.19738261385767,165.73476763794628,21
1767366254.5319612,2,right_wrist,-0.3523,-0.3992,0.1449,4.48,148.4,112.56,0.020606199260294746,-0.6003616224263725,-0.2663229734138324,0.7537992973607988,-72.14859929714271,63.39671068290123,128.4206008121567,21
1767366254.6222231,1,left_wrist,-0.5329,0.2996,-0.0698,11.13,117.74,-49.07,-0.19862568657954738,0.5912701723383587,-0.2058465301587511,-0.7540388756260339,19.273727143535055,76.76874916315131,165.80652188267825,21
1767366254.6222231,2,right_wrist,-0.6695,-0.019,-0.1576,-52.85,67.41,48.16,-0.02785637989840249,-0.6601836676827677,-0.2704638640755566,0.7001648700507642,-93.01087724610589,69.97496907576273,111.7271008332757,21
1767366254.67976,1,left_wrist,-0.7125,0.1479,-0.0283,15.75,4.27,-3.64,-0.2040645548698934,0.6135052573015338,-0.21297811769766004,-0.7325361957549216,21.4970650787398,80.31657984922379,167.06807109452197,21
1767366254.67976,2,right_wrist,-0.7422,-0.1313,-0.1127,-12.74,16.73,16.1,-0.0369105598792526,-0.6696422404857478,-0.26830192858086027,0.6915424465977621,-97.23145056866746,71.08109255101034,108.04484152153047,21
1767366254.7342038,1,left_wrist,-0.8125,0.1693,0.0649,-3.64,-21.98,14.84,-0.19745230956205864,0.6059676229228754,-0.21728153471947892,-0.7393270995220973,25.59108002516303,79.05866926665472,171.3236152283654,21
1767366254.7342038,2,right_wrist,-0.8032,0.1122,-0.0386,-8.54,-18.83,-13.3,-0.041110135167030215,-0.6635658221753944,-0.2713480441040289,0.6959601966981728,-94.93452734124021,71.0745012371842,110.952364228511,21
1767366254.822044,1,left_wrist,-0.7881,0.2396,0.1196,5.46,-52.43,24.08,-0.19284357946626118,0.5852153990036099,-0.22453263371899598,-0.7549300543910653,27.875183618955404,75.97562984561712,173.27772573475957,21
1767366254.822044,2,right_wrist,-0.569,-0.1449,0.0122,-29.26,-103.25,-91.28,-0.03883725221935622,-0.6010998266590781,-0.31088926149195195,0.7351996554130484,-78.42649177443774,65.23108877048162,130.90569506820103,21
1767366254.873064,1,left_wrist,-0.6534,0.1191,0.0337,29.19,-91.98,51.24,-0.1908409529937792,0.5491930815673888,-0.2411948094420045,-0.7770403810080766,30.505576340469236,71.00554818750918,174.41834888660586,21
1767366254.873064,2,right_wrist,-0.4753,-0.3972,0.2118,-15.05,-144.41,-132.23,-0.018069804664343547,-0.5315885528799759,-0.3475723811250605,0.77219203083522,-69.5290289714807,56.46391218352653,141.80302479818067,21
1767366254.933389,1,left_wrist,-0.3274,-0.0049,0.3479,-14.84,-171.92,113.12,-0.16011899519689965,0.4167673822084953,-0.26893558664562556,-0.8534286770080944,32.657422633115914,52.89068621200215,175.32891482674538,21
1767366254.933389,2,right_wrist,-0.4753,-0.3972,0.2118,-15.05,-144.41,-132.23,0.0028448277284397836,-0.4577137365734234,-0.3813330846792833,0.8031656870385917,-64.74679004744236,47.14440794590847,148.6704100645392,21
1767366254.989873,1,left_wrist,-0.019,0.5061,0.8755,-88.2,-197.4,134.68,-0.11542249483228359,0.3280010166766374,-0.2452443543684636,-0.9049575611022758,28.98634174644213,40.561768031857206,176.37567992358265,21
1767366254.989873,2,right_wrist,-0.1322,-0.8062,0.3855,-125.09,-189.7,-191.87,0.015871955414951996,-0.35306348710144325,-0.46159750737041055,0.8136473414794019,-66.93990972998786,34.04787450220508,154.8774051715906,21
1767366255.0806599,1,left_wrist,0.0137,0.7623,0.6051,158.27,-178.5,179.27,-0.08382700147146546,0.22467510528374077,-0.3241074764540267,-0.9151221091180375,38.88059616718971,27.745708209037467,179.49592504457365,21
1767366255.0806599,2,right_wrist,0.1845,-0.6578,0.7813,-187.25,-161.84,-203.56,0.04416445539390779,-0.13564909164852101,-0.6159954516812411,0.7747247435849164,-78.06379247265228,8.961526527455348,166.20434089819543,21
1767366255.1381068,1,left_wrist,0.4333,0.8555,0.6959,55.93,-182.56,179.9,0.0020612094327377836,0.011889493928898756,-0.3836282296601682,-0.9234087787960403,45.12822676781929,1.167553923452736,-179.25905017321324,21
1767366255.1381068,2,right_wrist,0.1845,-0.6578,0.7813,-187.25,-161.84,-203.56,0.05880934635282726,-0.027672732894434844,-0.6860791312211446,0.7246179036834142,-86.72626579223758,-2.3263559104239753,172.9173140422506,21
1767366255.981833,1,left_wrist,0.304,0.7222,0.5978,-36.68,199.64,-173.39,-0.1693833573442651,0.1508976493185867,-0.2708507960032231,-0.935510034146791,29.42747016018185,21.967942333205716,165.30991627173486,22
1767366255.981833,2,right_wrist,0.5363,-0.9467,0.6871,34.16,193.41,210.28,0.022200675938560326,-0.20967896051705137,-0.6226209237536209,0.7535814812006381,-81.78874675727997,16.760703756923924,162.0835424109757,22
1767366256.0686631,1,left_wrist,0.304,0.7222,0.5978,-36.68,199.64,-173.39,-0.2113750069599419,0.24980309708837664,-0.25953908546100574,-0.908602488570114,26.304075854218713,34.309539527649676,162.05870518788353,22
1767366256.0686631,2,right_wrist,-0.001,-0.629,0.489,38.64,171.43,165.55,0.012473585950746453,-0.4122636129768668,-0.5399357486733531,0.7337250918248163,-84.51886451917265,36.263983111668914,144.91135972037188,22
1767366256.128373,1,left_wrist,-0.204,0.3948,0.4099,-53.48,175.0,-111.72,-0.22733959491162184,0.332240266501232,-0.24470838291825497,-0.8820719478762163,23.052272136832464,44.21745276444318,160.56638958349816,22
1767366256.128373,2,right_wrist,-0.1508,-0.5934,0.3977,35.35,151.62,143.01,0.009983374047299957,-0.49030515537029146,-0.499072662630336,0.7144422049928273,-88.3317320862913,43.679566537576754,135.85945842032567,22
1767366256.179305,1,left_wrist,-0.3538,0.2152,0.2625,-43.54,137.34,-82.04,-0.2419932529473548,0.4589157871818526,-0.2202505619254502,-0.8260298153061676,16.396148370012586,59.854689395319966,156.82497206235738,22
1767366256.179305,2,right_wrist,-0.5451,-0.3645,0.1771,45.5,109.06,85.61,0.015097706503621282,-0.5416346949943227,-0.4623816902035926,0.7018597359880437,-91.23370459211449,48.274441490567945,128.33353331022474,22
1767366256.229853,1,left_wrist,-0.59,0.3797,0.4148,-46.69,128.94,-58.45,-0.2386671571580269,0.5125488345692664,-0.20827256454127352,-0.7980941167150611,12.753870881350348,66.56906439409656,155.09429786875808,22
1767366256.229853,2,right_wrist,-0.5451,-0.3645,0.1771,45.5,109.06,85.61,0.020591957972563583,-0.590023029751587,-0.4242890328135082,0.6866058638431451,-95.2993232627881,52.443501118574765,119.79679021320548,22
1767366256.287353,1,left_wrist,-0.7252,0.1937,-0.0869,-6.65,55.79,-24.36,-0.2391800668569177,0.5371550679328321,-0.20844826651746573,-0.7815412009601661,11.58228032809049,69.93950414109298,154.08296066016987,22
1767366256.287353,2,right_wrist,-0.6676,-0.161,0.0415,23.73,80.64,64.05,0.01930816541958486,-0.6262446271978971,-0.39655908283597674,0.6709588329206091,-100.07852647445854,55.594075145456884,112.35230216211444,22
1767366256.375366,1,left_wrist,-0.7252,0.1937,-0.0869,-6.65,55.79,-24.36,-0.23923066570942944,0.5611751596598684,-0.20853872013954952,-0.7644362177235609,10.07744788412172,73.28414650249059,152.74922876222783,22
1767366256.375366,2,right_wrist,-0.7798,-0.1147,-0.1225,-26.95,-1.4,2.8,0.007435145761368537,-0.652072854449874,-0.3801967923015845,0.6558933680261498,-105.34250749697839,58.18197622916553,106.4718892343959,22
1767366256.433459,1,left_wrist,-0.7774,0.2767,0.0834,11.83,-47.88,23.8,-0.2316648707696872,0.534110129151713,-0.22465121560198953,-0.7814023220578201,17.505715688613734,69.85056303314097,159.24513084490567,22
1767366256.433459,2,right_wrist,-0.7798,-0.1147,-0.1225,-26.95,-1.4,2.8,-0.0049968816842635615,-0.6539722976776424,-0.3843980536850792,0.6515622774277079,-106.971934651734,58.87581133663609,106.24403952717621,22
1767366256.522212,1,left_wrist,-0.7774,0.2767,0.0834,11.83,-47.88,23.8,-0.2286987968841728,0.51546914584604,-0.23263307271310618,-0.7923826559589404,20.243773809999823,67.41390135854684,161.38418746144603,22
1767366256.522212,2,right_wrist,-0.5036,-0.1386,0.0371,17.85,-125.79,-96.18,-0.004254036226241743,-0.5685024110724287,-0.4200110598404303,0.7073737494368444,-89.92306067571604,53.887453991217974,126.86380528251637,22
1767366256.579894,1,left_wrist,-0.5144,0.3128,0.0654,23.52,-132.58,82.18,-0.2031040271618833,0.39993557057379076,-0.2645978981453296,-0.8536909545248299,28.177319642917485,52.21585204581505,167.25832636334414,22
1767366256.579894,2,right_wrist,-0.5036,-0.1386,0.0371,17.85,-125.79,-96.18,0.00356942457280367,-0.512223759546787,-0.4341705711253093,0.7410195642037377,-81.36723018397181,49.115991081408644,136.5571280656358,22
1767366256.6319308,1,left_wrist,-0.5144,0.3128,0.0654,23.52,-132.58,82.18,-0.2031040271618833,0.39993557057379076,-0.2645978981453296,-0.8536909545248299,28.177319642917485,52.21585204581505,167.25832636334414,22
1767366256.6319308,2,right_wrist,-0.4192,-0.2948,0.1649,-58.1,-155.4,-130.9,0.0025424972298617246,-0.4339679997734071,-0.4782416628106359,0.7635117699371912,-77.2375644239278,41.31875089802366,146.0933632135882,22
1767366256.6872692,1,left_wrist,-0.0659,0.7593,0.7281,-7.63,-187.32,145.74,-0.14161968157198765,0.20700786926157652,-0.29125625641358494,-0.9231800479620293,32.75902196986119,27.691216330843154,170.84410741131774,22
1767366256.6872692,2,right_wrist,-0.1771,-0.6564,0.5422,-81.13,-192.01,-168.35,0.004442647981557978,-0.32971729702119484,-0.5332254627108839,0.779061854309857,-75.61026318049225,30.597407693934176,155.3831937449102,22
1767366256.7759008,1,left_wrist,-0.0659,0.7593,0.7281,-7.63,-187.32,145.74,-0.10368503716030271,0.10879481190588418,-0.2903965411171795,-0.9450306613431165,33.08979016356144,15.417372044900214,172.08288519263806,22
1767366256.7759008,2,right_wrist,0.3284,-0.8272,0.5758,-126.49,-172.83,-205.1,0.02224230100815899,-0.10637819582788537,-0.6375992602672189,0.762663846530673,-80.45659710858696,7.69491636192713,170.14699455567484,22
1767366256.833032,1,left_wrist,0.2362,1.0228,0.6388,157.57,-176.54,171.01,-0.017828297371603335,-0.10063964473477315,-0.4146701622604948,-0.9042137304041248,49.84027048686841,-9.625861160875575,173.26034912565336,22
1767366256.833032,2,right_wrist,0.4914,-1.2527,0.9648,27.02,-180.81,-180.11,0.034472830591027646,0.006570878971206239,-0.6328678593510845,0.7734641039511555,-78.51223896858951,-3.083896958834153,177.41650165641448,22
1767366257.679415,1,left_wrist,0.1269,0.589,0.4919,-27.37,209.3,-111.09,-0.04200977869055317,0.21267674803562678,-0.37677065397641124,-0.9005818417231988,46.56438479674833,24.501794253001727,-174.66573952673912,23
1767366257.679415,2,right_wrist,0.3245,-0.8462,0.5607,60.55,199.78,198.73,-0.019959839780482158,-0.2777154661814636,-0.5350573216411479,0.7976148112953715,-72.03408659970827,27.670055903966936,162.5657298222565,23
1767366257.730958,1,left_wrist,0.1269,0.589,0.4919,-27.37,209.3,-111.09,-0.046528398929943836,0.30814069607847633,-0.35879699621238026,-0.879857451535339,47.481923765826515,35.14364253604028,-170.19566739156932,23
1767366257.730958,2,right_wrist,-0.1293,-0.4807,0.3616,36.4,165.62,132.51,-0.021930295766204304,-0.3630222089431876,-0.5039636277800318,0.783424916514917,-73.54856268672809,36.22128663777564,155.73482297562916,23
1767366257.782295,1,left_wrist,-0.4041,0.3616,0.2308,11.55,135.45,-60.62,-0.05063163723390158,0.371495002610675,-0.3586390709657608,-0.8548718717580577,50.96046433973031,42.18125753999107,-165.9499417278662,23
1767366257.782295,2,right_wrist,-0.1293,-0.4807,0.3616,36.4,165.62,132.51,-0.02365184617782425,-0.4448753218048216,-0.4692269660423678,0.762464813981676,-76.72714569352422,44.475140008191396,147.68688286383914,23
1767366257.839054,1,left_wrist,-0.5734,0.3162,0.387,-58.24,108.36,-40.32,-0.04156665992387747,0.42063903492038895,-0.3284890250329717,-0.8446478411248703,50.38830389663539,47.552162090332,-162.21669437316555,23
1767366257.839054,2,right_wrist,-0.3518,-0.307,0.2445,64.68,135.45,101.43,-0.01748159963405884,-0.5086314633582448,-0.42580142840388324,0.7481186882610924,-79.0364298020856,50.888588996073544,139.8212722486379,23
1767366257.928063,1,left_wrist,-0.6178,-0.0181,0.0937,-8.33,72.66,-22.54,-0.04036802309749575,0.4540026963880763,-0.3200938136863387,-0.8305371303098324,52.28344135421086,51.258314146073026,-159.06644879618474,23
1767366257.928063,2,right_wrist,-0.5812,-0.0893,-0.0454,-10.36,58.17,47.95,-0.027877038823830257,-0.5848088772857765,-0.38268190623746073,0.7146859494859459,-87.4280131725059,59.00869511480778,127.63853114055654,23
1767366257.985746,1,left_wrist,-0.6051,0.3094,0.1362,-17.78,-29.33,5.39,-0.052791957982849524,0.4547345017381267,-0.3377602016409244,-0.8224035434558855,54.781861866842476,51.59253996281586,-159.22567680520334,23
1767366257.985746,2,right_wrist,-0.6959,-0.0903,0.1444,1.89,-24.99,-14.28,-0.029835221201385372,-0.5750228038149339,-0.3824216556627089,0.7226425893544256,-84.90666130211083,58.63745494186834,130.3425277811861,23
1767366258.040936,1,left_wrist,-0.5675,0.1547,0.0639,35.91,-80.71,40.39,-0.059180689110445224,0.4223712386441881,-0.35552076661671944,-0.8316881430601539,54.2024385502731,48.1283784140545,-162.39434648919314,23
1767366258.040936,2,right_wrist,-0.6612,-0.2835,0.1659,24.99,-49.7,-37.94,-0.021487806837914694,-0.5521268295070682,-0.3806951866986303,0.7414616733994174,-79.47743056004914,56.628582879689915,135.06401933212211,23
1767366258.130034,1,left_wrist,-0.4265,0.466,0.1332,41.16,-116.76,71.89,-0.05680837246616922,0.3673869436727601,-0.38350285402162293,-0.8454142200092231,54.30315607346212,41.663964875897385,-165.60401497889916,23
1767366258.130034,2,right_wrist,-0.5012,-0.0581,0.021,-28.91,-95.55,-69.58,-0.028420689808722335,-0.46922710075713153,-0.4236669851097925,0.7742896602911807,-72.3170254884397,48.652542283176196,147.64102905670094,23
1767366258.189109,1,left_wrist,-0.1122,0.6373,0.3436,194.53,-218.61,165.83,-0.028398719199084026,0.17044819127537683,-0.4616225191775126,-0.8700836607056883,56.98366901240234,18.8339974339169,-173.45095905983536,23
1767366258.189109,2,right_wrist,-0.4133,-0.5763,0.2259,-33.53,-133.14,-121.59,-0.016250962192189387,-0.3966191785611673,-0.4580182859699613,0.7953919682410878,-69.62447089140959,40.22732624960123,153.7680930028444,23
1767366258.2726452,1,left_wrist,-0.1122,0.6373,0.3436,194.53,-218.61,165.83,-0.021318787957963988,0.04759821203606249,-0.5412669896504053,-0.8392317709701899,65.68723385492586,5.910232269105418,-179.09308406151797,23
1767366258.2726452,2,right_wrist,0.3377,-1.2756,0.7218,98.49,-155.54,-239.82,0.08067721017472153,-0.19175969917267494,-0.4655821144489001,0.8602050338360736,-59.35313283641423,14.760643415870227,160.84114913134843,23
1767366258.330842,1,left_wrist,0.3782,-0.0932,0.9038,63.63,-158.2,210.98,0.0390815407947525,-0.1793150416415764,-0.5466408388107322,-0.8170082878126066,68.96792264888545,-19.616988670005856,171.93324160498963,23
1767366258.330842,2,right_wrist,0.3299,-0.4538,0.5417,-218.4,-117.46,-233.59,0.12672887392108695,-0.10302001328728895,-0.5644222586535207,0.8091688225045737,-70.01802671976485,1.355972249012377,161.24792812062975,23
1767366258.392799,1,left_wrist,0.8755,1.1771,0.4992,-13.44,-102.41,204.19,0.08878865688488487,-0.26722163131303306,-0.523546428598229,-0.8041195876665479,68.74965148326753,-31.515302233200252,170.75140727891255,23
1767366258.392799,2,right_wrist,0.3299,-0.4538,0.5417,-218.4,-117.46,-233.59,0.17039974070886016,-0.013202057771837543,-0.649846567137504,0.7406004815124979,-80.89112988106834,-11.648817538031262,164.02466593203943,23
1767366259.187799,1,left_wrist,0.5724,0.6964,0.6564,-62.23,209.51,-180.11,-0.22094650081144912,0.09733733393487859,-0.3163628602115028,-0.9173999279923796,34.53815091866376,18.565771780502246,158.73518411666328,24
1767366259.187799,2,right_wrist,0.5729,-0.913,0.6793,93.52,189.98,209.02,0.09803437324677902,-0.2242694015283409,-0.5469455986096894,0.8005891639047581,-71.87222820409914,14.587389675383328,155.43678331786123,24
1767366259.271487,1,left_wrist,0.3719,0.5739,0.7476,-104.58,197.33,-145.18,-0.24457703105283712,0.20083505198323331,-0.28526576045621976,-0.9046937623790751,28.91531126405818,30.193861181587987,157.70164393818578,24
1767366259.271487,2,right_wrist,-0.1893,-0.6207,0.3606,13.65,135.1,138.46,0.06532945836298984,-0.39944055353553637,-0.466129621079774,0.7867035543413089,-72.59016801795592,34.58154723600434,144.75023331712038,24
1767366259.3234181,1,left_wrist,0.1118,0.3933,0.6486,-76.93,185.57,-113.75,-0.2575469958839962,0.2911090770019564,-0.2632043431262902,-0.882977080086259,24.466728559347967,40.51599193109666,156.62855703614312,24
1767366259.3234181,2,right_wrist,-0.1893,-0.6207,0.3606,13.65,135.1,138.46,0.049300669774913985,-0.4692017546053782,-0.43177509759325844,0.768758364203806,-75.25908856168988,42.75243429584432,139.07854104760688,24
1767366259.374964,1,left_wrist,-0.1845,0.2464,0.4377,-21.35,156.52,-91.14,-0.27032735652139156,0.3593961189737434,-0.2606697551216392,-0.8542884926929498,22.511818304911433,49.02434476715319,155.2522629162325,24
1767366259.374964,2,right_wrist,-0.6085,-0.3235,0.3167,-19.11,79.24,81.13,0.031244191210651598,-0.5110195807829446,-0.4162810912591086,0.7513939323897563,-78.72064596286528,47.89704752567405,135.20283046438126,24
1767366259.4266229,1,left_wrist,-0.5602,0.2338,0.2835,-29.47,105.49,-43.82,-0.26513794611166813,0.45531490990762397,-0.25512727718199624,-0.810740571813943,20.72610037557817,60.87646555748553,156.0472474961431,24
1767366259.4266229,2,right_wrist,-0.6827,-0.303,0.1913,60.34,53.27,52.01,0.034667439770840795,-0.5375562917890158,-0.38052087087874853,0.7516882788785897,-77.73437209197768,51.42256888552876,132.29891203133133,24
1767366259.484353,1,left_wrist,-0.6329,0.2054,0.0976,54.11,68.74,-20.51,-0.27391492217030117,0.47738294029417966,-0.2804278268104262,-0.7864072594266303,24.891313313622106,64.7508605615272,157.52342681432884,24
1767366259.484353,2,right_wrist,-0.7086,-0.1152,0.1078,0.35,31.71,28.56,0.027485710185558825,-0.5544645796019056,-0.370035237212642,0.7449077049698583,-79.1706860322329,53.678735767094395,130.3667003223339,24
1767366259.535019,1,left_wrist,-0.7052,0.4294,0.0742,11.27,28.28,-1.82,-0.2710142916716951,0.4864588402248915,-0.29100104808951566,-0.7779636498497512,27.886666212498547,66.15259548583259,159.95792038027804,24
1767366259.535019,2,right_wrist,-0.7086,-0.1152,0.1078,0.35,31.71,28.56,0.02025028462012002,-0.5708981841162317,-0.3593750641428132,0.7379124288273928,-80.77954419096324,55.89289814540648,128.27324537222586,24
1767366259.59407,1,left_wrist,-0.6812,0.3274,0.2479,33.32,-39.06,17.5,-0.2742243233121041,0.46538617741230853,-0.3051192354441626,-0.7842952113455415,30.4054784567918,63.810924222161546,160.66125952573677,24
1767366259.59407,2,right_wrist,-0.7593,-0.2259,-0.0039,-61.67,7.7,4.41,0.0014734723863569007,-0.5771402497026614,-0.3755167221399639,0.7251855986197833,-84.58457884503788,56.71603372502151,127.46479325097678,24
1767366259.673986,1,left_wrist,-0.5958,0.204,0.0542,-5.32,-75.6,35.63,-0.2696168977120309,0.43737435604472163,-0.30378783487443833,-0.8023237205298783,30.17135341341384,59.956358471056774,160.52689199051295,24
1767366259.673986,2,right_wrist,-0.5236,-0.2318,0.101,-4.2,-86.24,-80.71,0.018252922076967926,-0.5209028376750238,-0.38121047239075445,0.763548060227631,-74.50345960111818,51.40292237781488,137.0547884010946,24
1767366259.724302,1,left_wrist,-0.5958,0.204,0.0542,-5.32,-75.6,35.63,-0.26509557008696016,0.4091273702994381,-0.3019061790892918,-0.8192629569435204,29.905839837219503,56.14332347336092,160.3515315030879,24
1767366259.724302,2,right_wrist,-0.5236,-0.2318,0.101,-4.2,-86.24,-80.71,0.026634694616954255,-0.4802677845121253,-0.3980352480014941,0.7811538833999772,-71.08777724533066,46.81292196258287,141.7242582386756,24
1767366259.783187,1,left_wrist,-0.222,0.2411,0.3792,-5.67,-158.55,101.29,-0.23592299981601286,0.2729060570777663,-0.31590854421611103,-0.8775331411743593,33.16149954751206,38.904810931590035,161.91019566810365,24
1767366259.783187,2,right_wrist,-0.1942,-0.7422,0.2943,-108.36,-148.05,-169.96,0.03854569176680098,-0.39590582655518036,-0.471277903102239,0.7871911738538707,-72.58467426491487,35.94268564785537,147.5965489018496,24
1767366259.876919,1,left_wrist,-0.1313,0.611,0.4031,97.02,-185.71,148.68,-0.2127035774292588,0.16662937455364246,-0.3521295819047209,-0.8961007740384247,38.81091602868965,26.643118570509323,162.8302927044791,24
1767366259.876919,2,right_wrist,0.0703,-0.4241,0.6974,103.53,-175.28,-195.23,0.08979833404466016,-0.1945192754522014,-0.5270743959504873,0.8223691943487323,-67.76309402524888,13.018903497728658,158.7736489323319,24
1767366259.9344451,1,left_wrist,0.2103,1.2893,0.5012,227.36,-182.49,211.75,-0.12378324972863634,-0.09195511496881686,-0.5099482715513877,-0.8462710702011749,62.406587042453864,-1.6842685728708677,162.33661734697404,24
1767366259.9344451,2,right_wrist,0.0107,-0.8218,0.4778,-277.2,-148.68,-218.19,0.11093200200812223,-0.09685787533843715,-0.6412326270919301,0.7530825724103404,-80.85813100113928,0.207268947658465,163.06415807313272,24
