timestamp,node_id,node_name,ax,ay,az,gx,gy,gz,qw,qx,qy,qz,roll,pitch,yaw,rep_number
1767379822.8961658,1,left_wrist,-0.0449,-0.1571,-0.978,0.0,0.84,-1.26,0.05104787693592714,-0.8045336512565824,-0.5881381467815071,0.06490946430606842,-170.8716066950627,2.54461371434526,72.53900735702044,0
1767379822.8961658,2,right_wrist,0.0254,0.002,-0.9672,1.33,-1.54,-0.56,0.011345720035934252,0.555849425972319,-0.8311778554457209,0.006786965431045258,179.92373142537167,-1.5131101316321716,-112.45381326666877,0
1767379822.9674602,1,left_wrist,-0.0366,-0.1552,-0.9804,0.49,0.42,-1.33,0.05300616825913951,-0.8041562858643319,-0.588984182982401,0.06017180592204519,-171.01226191342087,1.9676649867265292,72.59462256768025,0
1767379822.9674602,2,right_wrist,0.0215,0.0034,-0.9697,1.05,-3.01,-0.84,0.007693662401981843,0.556394785920436,-0.8308631822398994,0.005658812382828797,-179.9517498565966,-1.0933746300240077,-112.38328456604934,0
1767379823.026507,1,left_wrist,-0.0366,-0.1552,-0.9804,0.49,0.42,-1.33,0.050584963495135186,-0.8039479657289088,-0.589047424286489,0.06428033766244719,-170.9547585627441,2.5081908692021746,72.65840659070969,0
1767379823.026507,2,right_wrist,0.0181,0.0034,-0.9682,1.26,-2.45,-0.63,0.008900540431921363,0.5566701885709282,-0.8306851385672086,0.0011322985492105788,179.53995590828833,-0.9195064984618798,-112.34155656289627,0
1767379823.088314,1,left_wrist,-0.0346,-0.1527,-0.9838,0.35,-1.82,-0.84,0.048726723304349615,-0.8036647887686155,-0.5903935519041118,0.056427542916249775,-171.66106553201473,1.9003780070609877,72.7425386744279,0
1767379823.088314,2,right_wrist,0.0239,0.0034,-0.9677,0.84,-1.82,-0.56,0.010429518135038212,0.5568268253240007,-0.8305456914830075,0.005382017287106114,179.8467006099414,-1.3361490119283224,-112.3196525216683,0
1767379823.140358,1,left_wrist,-0.0346,-0.1527,-0.9838,0.35,-1.82,-0.84,0.05176225761216318,-0.803079489808295,-0.5905034309597257,0.06074289885190841,-171.08441727778597,2.087814350463953,72.81678937942569,0
1767379823.140358,2,right_wrist,0.021,0.002,-0.9667,0.98,-3.29,-0.49,0.004132063226843982,0.5570245174612553,-0.8304770563522638,0.0038041915072234414,-179.90171636551236,-0.6360663067838841,-112.2987891731721,0
1767379823.215343,1,left_wrist,-0.0366,-0.1532,-0.9804,0.35,-1.61,-1.05,0.046543271675734195,-0.8031348498720655,-0.5908048346420998,0.06130076790885167,-171.52754670284145,2.491408877300252,72.86271414396954,0
1767379823.215343,2,right_wrist,0.0254,0.002,-0.9682,1.12,-2.59,-0.56,0.011184917472578122,0.5573942622121495,-0.8301466891766286,0.006558088379033383,179.90941553395746,-1.4830448904306792,-112.24079114859141,0
1767379823.287269,1,left_wrist,-0.0366,-0.1503,-0.9823,0.63,-0.91,-1.12,0.046207671687837085,-0.8025460662586064,-0.5917349129557881,0.060286444572819474,-171.62544017654812,2.4117135026574745,72.98093324320685,0
1767379823.287269,2,right_wrist,0.0195,0.001,-0.9677,0.98,-1.82,-0.49,0.005893332919284213,0.5576064694900035,-0.8300744404691761,0.004088653785848041,-179.987654189033,-0.8218518951177086,-112.21724785117597,0
1767379823.340428,1,left_wrist,-0.0386,-0.1532,-0.9838,0.49,-1.12,-1.05,0.05090360543953146,-0.8018482908967067,-0.5921144665941411,0.0620370839838769,-171.0704793212724,2.246979413209552,73.06253871844335,0
1767379823.340428,2,right_wrist,0.0234,0.0024,-0.9672,0.77,-2.38,-0.56,0.009583383122535132,0.5578003538877248,-0.8299023951962836,0.005379444035145595,179.89899750923115,-1.255328162456413,-112.18661489533481,0
1767379823.393323,1,left_wrist,-0.0386,-0.1576,-0.9789,0.0,-0.42,-1.19,0.05500684798152049,-0.801141468943,-0.5924118012631835,0.0647676704776424,-170.50289438737477,2.2123227105449454,73.14665913034553,0
1767379823.393323,2,right_wrist,0.0244,0.0034,-0.9682,0.77,-2.52,-0.56,0.013456965371606538,0.557998074824177,-0.8297145233408306,0.005555927717095366,179.6676473704398,-1.6349434037239883,-112.15216223032824,0
1767379823.464349,1,left_wrist,-0.0386,-0.1532,-0.9853,0.35,-0.63,-1.12,0.0510296015872746,-0.8012028245988172,-0.592965926331042,0.06214035586549379,-171.04938673606017,2.238337756820561,73.18510299165679,0
1767379823.464349,2,right_wrist,0.021,0.0044,-0.9697,1.05,-2.17,-0.63,0.011566492002244286,0.5584797629543331,-0.8294239134637008,0.004747884559809005,179.7109531096693,-1.4033279816605018,-112.08897239897874,0
1767379823.521217,1,left_wrist,-0.0381,-0.1537,-0.9823,0.28,-0.84,-1.05,0.049573728480176514,-0.8010933984375874,-0.5936809876912932,0.05774683781975304,-171.48451635998828,1.9288979332385547,73.22704455266069,0
1767379823.521217,2,right_wrist,0.0224,0.0029,-0.9667,0.84,-2.66,-0.56,0.005802034327337232,0.5586697315132279,-0.8293455276607694,0.006361072054461522,-179.76687538135747,-0.9586752737459704,-112.07138804714538,0
1767379823.571618,1,left_wrist,-0.0351,-0.1527,-0.9819,0.0,-1.12,-1.12,0.05228464055891956,-0.8004764455644054,-0.5938470322924432,0.06204416729764374,-170.93795449953663,2.1337085133270093,73.31010624020223,0
1767379823.571618,2,right_wrist,0.021,0.0024,-0.9677,1.19,-2.31,-0.63,0.009408865742004032,0.5589257759930718,-0.829151487678593,0.004610927929099911,179.83544523798366,-1.189378669709201,-112.03097061312532,0
1767379823.643559,1,left_wrist,-0.0366,-0.1527,-0.9843,0.07,-1.05,-1.12,0.05221235433634216,-0.7998789795257977,-0.5947901850695904,0.06076284977111495,-171.0306860487709,2.0112118622201307,73.4267608094301,0
1767379823.643559,2,right_wrist,0.0239,0.0044,-0.9697,1.12,-2.59,-0.63,0.013110400877728875,0.5591427914884559,-0.8289506561746037,0.005316553678501676,179.66486978495598,-1.5862171818678894,-111.99455179528123,0
1767379823.726292,1,left_wrist,-0.0376,-0.1547,-0.9828,0.42,-1.05,-1.05,0.04854854135527884,-0.7997755095197092,-0.5948248285438456,0.06469618885644739,-171.09575458149746,2.6209984127781474,73.48340407323163,0
1767379823.726292,2,right_wrist,0.022,0.0005,-0.9692,0.98,-2.38,-0.56,0.011038053475256495,0.5595598643147839,-0.8286959108278503,0.005831552168811643,179.84595639695277,-1.4222608036119415,-111.9413287439726,0
1767379823.7774248,1,left_wrist,-0.0361,-0.1552,-0.9833,0.35,-0.84,-1.05,0.05192156940154001,-0.7992780984571943,-0.5955520466540496,0.0614526784095345,-171.00782256344573,2.085543647264765,73.54451666582106,0
1767379823.7774248,2,right_wrist,0.0224,0.0029,-0.9692,0.98,-2.59,-0.56,0.006272402820790859,0.5598112803361879,-0.8285937975111194,0.0020751138074138107,179.79464227801057,-0.7287012025321518,-111.9115093695645,0
1767379823.841165,1,left_wrist,-0.0346,-0.1513,-0.9799,0.35,-0.7,-1.19,0.050628942335188665,-0.7987497561473552,-0.5964951510484762,0.060241779756381876,-171.20812204569057,2.0537128692333506,73.661617591542,0
1767379823.841165,2,right_wrist,0.0215,0.0029,-0.9687,0.7,-2.24,-0.56,0.009252145290889066,0.5599865843861582,-0.8284359298331201,0.004830453040253442,179.8648265136965,-1.188376578600443,-111.88463911630622,0
1767379823.895437,1,left_wrist,-0.0346,-0.1513,-0.9799,0.35,-0.7,-1.19,0.05247381315874381,-0.7983439215865453,-0.5972967512531002,0.05594705301344304,-171.3341407739314,1.526832657334776,73.72113987635466,0
1767379823.895437,2,right_wrist,0.021,0.0029,-0.9682,0.98,-2.66,-0.63,0.01305152771995563,0.5602137945194674,-0.8282327698589271,0.004543235200225963,179.59319011351724,-1.5305392266254387,-111.84599572610038,0
1767379823.945581,1,left_wrist,-0.0381,-0.1532,-0.9814,0.28,-0.7,-1.05,0.05073105497543369,-0.7981003568852701,-0.5972866825890206,0.060916329522439056,-171.1499382348263,2.0993700623918756,73.78377195506128,0
1767379823.945581,2,right_wrist,0.021,0.0029,-0.9682,0.98,-2.66,-0.63,0.006873924758739503,0.5604532550479673,-0.8281442390871286,0.004692262924221725,-179.99617703941007,-0.9537202842359398,-111.82304760150443,0
1767379824.015575,1,left_wrist,-0.0356,-0.1518,-0.9848,0.21,-0.98,-0.98,0.04875694544988215,-0.7980306732476593,-0.5979579531635381,0.0567105904991025,-171.62127081589938,1.8454938534294814,73.82304149507462,0
1767379824.015575,2,right_wrist,0.0249,0.0024,-0.9677,0.98,-2.66,-0.63,0.01409105147266135,0.560889671412158,-0.8277428193015286,0.006785563080056326,179.73782283041012,-1.7729821495832274,-111.75175279036843,0
1767379824.0659251,1,left_wrist,-0.0371,-0.1523,-0.9794,0.7,-0.91,-1.12,0.050483058758272026,-0.7974900527615956,-0.5980294212247362,0.06182141921958447,-171.1078811719082,2.190563096329708,73.90203811622308,0
1767379824.0659251,2,right_wrist,0.0229,0.0029,-0.9687,0.91,-2.38,-0.63,0.008374323722888726,0.5611588311202548,-0.8276526424962818,0.004662652341255627,179.9036946402117,-1.0941316641580774,-111.7235583606907,0
1767379824.119405,1,left_wrist,-0.0351,-0.1547,-0.9838,0.42,-0.84,-1.19,0.05434073321371525,-0.7968950017363869,-0.5987600292864216,0.05909203203718084,-170.94176206736105,1.6678963640402276,73.97205882227239,0
1767379824.119405,2,right_wrist,0.0229,0.0029,-0.9687,0.91,-2.38,-0.63,0.012047065363347192,0.5613715080149869,-0.8274548162745015,0.0059519097138477795,179.78931212561133,-1.525351977048614,-111.68877702817308,0
1767379824.170154,1,left_wrist,-0.0356,-0.1537,-0.9809,0.49,-1.12,-1.05,0.0499900367629572,-0.7968678998784599,-0.5988629402108337,0.06217495645166289,-171.1262273299204,2.2474929484017987,74.02567291039809,0
1767379824.170154,2,right_wrist,0.022,0.0024,-0.9667,0.84,-2.52,-0.56,0.006153632015924367,0.5616022103548036,-0.8273739608350624,0.004173615903769722,179.9996845838804,-0.8520502203504544,-111.66449982103204,0
1767379824.241505,1,left_wrist,-0.0376,-0.1527,-0.9814,0.49,-1.12,-1.12,0.04928557923083519,-0.796268724004623,-0.5996818422583038,0.06251990817025746,-171.16444964604662,2.318473902139482,74.14704120026975,0
1767379824.241505,2,right_wrist,0.022,0.0024,-0.9667,0.84,-2.52,-0.56,0.009826515197999312,0.5617963698228614,-0.8272002326925553,0.005296554191224811,179.86942615883677,-1.2725385225047205,-111.63346089671094,0
1767379824.2988002,1,left_wrist,-0.039,-0.1552,-0.9819,0.42,-0.98,-1.12,0.05406351039054091,-0.7955351203214763,-0.6000990667974524,0.06389146428258444,-170.6298849934993,2.107176805783237,74.22968040773259,0
1767379824.2988002,2,right_wrist,0.021,0.0034,-0.9682,1.05,-2.59,-0.56,0.009603057043667557,0.5620548128837652,-0.8270442254470508,0.00013328278060805275,179.3940407482239,-0.9187273582719264,-111.59550770255085,0
1767379824.3525891,1,left_wrist,-0.0361,-0.1527,-0.9814,0.28,-0.84,-1.19,0.050203380287648494,-0.7955518954611809,-0.6007059806444341,0.0610665788613129,-171.17894084105416,2.1117314899991126,74.27440555262955,0
1767379824.3525891,2,right_wrist,0.021,0.0034,-0.9682,1.05,-2.59,-0.56,0.008799865224771166,0.5622129662137203,-0.8269313945799358,0.004859182161477032,179.8935014922671,-1.1469983181852916,-111.57704227562526,0
1767379824.41409,1,left_wrist,-0.0386,-0.1518,-0.9809,0.42,-0.98,-1.12,0.046361862700089844,-0.7954409088746075,-0.6007744743706921,0.0647639492336213,-171.27203158637624,2.712578488093459,74.33252477608116,0
1767379824.41409,2,right_wrist,0.0215,0.0015,-0.9682,0.98,-2.45,-0.56,0.006391675921664113,0.5626569242718487,-0.8266528118721553,0.004632566428484591,-179.9732735356997,-0.9041927138131498,-111.51829745638172,0
1767379824.470371,1,left_wrist,-0.0346,-0.1532,-0.9828,0.35,-1.33,-1.12,0.0498493030385299,-0.7948933202665632,-0.6015176604421022,0.06193674643078478,-171.14839157295626,2.206188546155239,74.40236935466817,0
1767379824.470371,2,right_wrist,0.0215,0.0015,-0.9682,0.98,-2.45,-0.56,0.010053726074965566,0.5628521282411171,-0.8264759063194086,0.0058292881183425556,179.90360313159977,-1.328256865051142,-111.4870689189002,0
1767379824.542749,1,left_wrist,-0.0361,-0.1513,-0.9823,0.28,-1.19,-0.98,0.04855168218353313,-0.7943832911710446,-0.6022708355505376,0.0621913298673213,-171.24711726856918,2.3110779207803014,74.51290365520016,0
1767379824.542749,2,right_wrist,0.0215,0.001,-0.9697,0.91,-2.52,-0.56,0.003926537161906395,0.563059601811223,-0.826389320759495,0.0053997822884993595,-179.74198180893495,-0.7202552959771767,-111.46457199796312,0
1767379824.61315,1,left_wrist,-0.0361,-0.1513,-0.9823,0.28,-1.19,-0.98,0.05144075091099573,-0.7939231746446901,-0.6029837352488473,0.05874059016692112,-171.22273436771206,1.7899339400033976,74.57063886677888,0
1767379824.61315,2,right_wrist,0.0215,0.0054,-0.9672,1.26,-2.87,-0.7,0.01088396186615387,0.5635550725903665,-0.8260015497073186,0.002942688034915231,179.57556191912815,-1.2203246186843923,-111.38648443229704,0
1767379824.6659,1,left_wrist,-0.0371,-0.1527,-0.9828,0.7,-1.19,-0.98,0.04902352794452961,-0.7937201271990957,-0.6029499026240163,0.06369040989515405,-171.09696885468176,2.406400064616485,74.63164456819634,0
1767379824.6659,2,right_wrist,0.0215,0.0054,-0.9672,1.26,-2.87,-0.7,0.008897783755544784,0.5637592461656573,-0.8258558480945897,0.0076459123023526615,-179.85119506233983,-1.3361143447784718,-111.36400110447046,0
1767379824.7177641,1,left_wrist,-0.0337,-0.1537,-0.9819,0.91,-1.19,-1.19,0.052027487698547877,-0.7931995529170186,-0.6037295226741899,0.060318100331608504,-171.05698923308466,1.8835093893053096,74.6991503068375,0
1767379824.7177641,2,right_wrist,0.022,0.0024,-0.9677,0.91,-2.66,-0.7,0.010041571665284776,0.5640717442034828,-0.8256596646975398,0.00289003828306785,179.6242946390422,-1.1369500334804719,-111.31628553156717,0
1767379824.770838,1,left_wrist,-0.0356,-0.1542,-0.9809,0.07,-0.77,-1.05,0.04864080757987199,-0.7930802305906349,-0.6037503851978665,0.06436840884868099,-171.08187803111264,2.485400116309527,74.75590981229068,0
1767379824.770838,2,right_wrist,0.0195,0.0024,-0.9667,0.77,-2.31,-0.56,0.00653767467313245,0.564236764415782,-0.8255580077383953,0.006936018345496891,-179.7665027340197,-1.0669991816038795,-111.30000129207401,0
1767379824.851456,1,left_wrist,-0.0356,-0.1523,-0.9823,0.21,-1.05,-1.12,0.046532610954600935,-0.7926543074785214,-0.6047892686883665,0.06134986090354346,-171.4831423481288,2.348272614613339,74.8615963431697,0
1767379824.851456,2,right_wrist,0.0239,0.0029,-0.9706,1.12,-2.73,-0.63,0.010102215159771314,0.5644929672041693,-0.8253587476076758,0.005345369340602378,179.8520489463849,-1.3013420142124785,-111.259021880899,0
1767379824.916972,1,left_wrist,-0.0366,-0.1547,-0.9814,0.63,-1.33,-1.12,0.05131915597213714,-0.7919198920491187,-0.605221719588647,0.06273674318436342,-170.948059813303,2.1345331348191245,74.9464471981025,0
1767379824.916972,2,right_wrist,0.0229,0.0029,-0.9687,1.05,-2.59,-0.63,0.007711241499064237,0.5649652861008742,-0.8250641435287597,0.004890942511895756,179.96318219009314,-1.0457612254865696,-111.19663099140188,0
1767379825.0021079,1,left_wrist,-0.0342,-0.1523,-0.9833,0.0,-1.05,-0.98,0.052147910861093945,-0.7912246323041293,-0.6060733416709446,0.0626041623522999,-170.87964875126738,2.0548948910218807,75.06771111381948,0
1767379825.0021079,2,right_wrist,0.0224,0.0034,-0.9687,0.98,-2.45,-0.56,0.011576170715676634,0.5651664795591043,-0.824880631548608,0.004978589187671746,179.72080037382602,-1.416804389380399,-111.16260853838534,0
1767379825.073549,1,left_wrist,-0.0337,-0.1508,-0.9823,0.35,-1.12,-1.05,0.04908352636393815,-0.7912040247010957,-0.6067080781557939,0.059095741276099276,-171.40412949390395,1.9458426383000154,75.10940374456543,0
1767379825.073549,2,right_wrist,0.0215,0.0049,-0.9692,1.05,-2.94,-0.56,0.00935879661842092,0.5656185617939756,-0.8246030486391613,0.004227014900662527,179.79278715377424,-1.1583899098281072,-111.10324797699313,0
1767379825.146396,1,left_wrist,-0.0366,-0.1542,-0.9828,0.35,-1.12,-1.12,0.04833318074888597,-0.7905938274978223,-0.6074114083895774,0.060635670353588925,-171.3621113837813,2.129608505447009,75.23083142588183,0
1767379825.146396,2,right_wrist,0.0224,0.0024,-0.9682,1.05,-2.45,-0.56,0.011030880204113726,0.5657768917162455,-0.824444487279885,0.008131166929411194,-179.94696102796007,-1.5695018647899464,-111.08082735753193,0
1767379825.2176661,1,left_wrist,-0.0366,-0.1542,-0.9828,0.35,-1.12,-1.12,0.05231955170052093,-0.7898869404560478,-0.6076785301973253,0.06378157840676967,-170.77677951018936,2.130377514138509,75.31571489429342,0
1767379825.2176661,2,right_wrist,0.0215,0.0039,-0.9677,0.84,-2.73,-0.56,0.011014664284472312,0.5662228791002551,-0.8241629370653677,0.005077550778187165,179.7647872882193,-1.3698323403995218,-111.01689066895815,0
1767379825.2877052,1,left_wrist,-0.0376,-0.1523,-0.9823,0.21,-1.05,-1.05,0.05258179086353647,-0.7892408574286753,-0.6085500373442202,0.06325248045081551,-170.7880611841692,2.0542406534789412,75.43408805630071,0
1767379825.2877052,2,right_wrist,0.0215,0.0039,-0.9677,0.84,-2.73,-0.56,0.005586245822900797,0.5664636978025862,-0.824065191972861,0.002057257435956442,179.83164309843318,-0.6610695808061751,-110.98964308943455,0
1767379825.340342,1,left_wrist,-0.0376,-0.1537,-0.9843,0.42,-1.19,-1.12,0.047807613244803,-0.789295349917563,-0.608996855794786,0.062049273536532376,-171.30563651681862,2.276446479198972,75.47849766992489,0
1767379825.340342,2,right_wrist,0.0234,0.002,-0.9682,1.12,-2.59,-0.49,0.00829293980901675,0.5666168518587934,-0.8239249285873338,0.004927716642723049,179.92677949622504,-1.102998949008156,-110.96634077089206,0
1767379825.3915288,1,left_wrist,-0.0386,-0.1523,-0.9819,0.7,-1.19,-1.05,0.05254290789757316,-0.7885700611621487,-0.6093555609909506,0.06389289285825188,-170.74416617077088,2.1051434623876126,75.55945122889207,0
1767379825.3915288,2,right_wrist,0.0234,0.002,-0.9682,1.12,-2.59,-0.49,0.01160105151574563,0.5667749761832468,-0.8237626171775356,0.0068331923012614265,179.89152770064507,-1.5390803907387274,-110.94011701752883,0
1767379825.442677,1,left_wrist,-0.0356,-0.1532,-0.9819,0.28,-0.91,-1.05,0.04899233228831964,-0.7885932805394359,-0.6099440603617751,0.060734113102875666,-171.28861843019027,2.064461980772738,75.59817973322458,0
1767379825.442677,2,right_wrist,0.0224,0.0024,-0.9682,0.98,-2.59,-0.63,0.006801420503246126,0.5670531764566801,-0.8236472526280925,0.0031046719186470554,179.85105904985602,-0.8437091699308918,-110.90671964433928,0
1767379825.5161679,1,left_wrist,-0.0386,-0.1542,-0.9814,0.35,-0.91,-1.12,0.050236683089856446,-0.7880643653662236,-0.6099938532949156,0.06586600530229052,-170.811697939163,2.437247582516762,75.67853033856112,0
1767379825.5161679,2,right_wrist,0.0234,0.0044,-0.9682,1.05,-2.45,-0.49,0.013973254205265845,0.5674139497826828,-0.8233028026836661,0.0043188947834401385,179.49870534756406,-1.5993123127940885,-110.84437871445441,0
1767379825.567425,1,left_wrist,-0.0386,-0.1542,-0.9814,0.35,-0.91,-1.12,0.049062436342947616,-0.7879141839662777,-0.6107449178474232,0.06143908665005829,-171.23019789493608,2.1140171278861204,75.723614935412,0
1767379825.567425,2,right_wrist,0.0234,0.0044,-0.9682,1.05,-2.45,-0.49,0.007977952870584356,0.5675952407576293,-0.8232522286561416,0.005269055890728408,179.97816791333443,-1.0953968520230681,-110.83077178212986,0
1767379825.627677,1,left_wrist,-0.0356,-0.1532,-0.9809,0.35,-0.91,-1.12,0.053868393010712785,-0.787184625630744,-0.6111672432215168,0.06255527330321566,-170.71426108328413,1.8704609797348546,75.80318152366387,0
1767379825.627677,2,right_wrist,0.0215,0.0029,-0.9687,0.98,-2.59,-0.56,0.011779897501532017,0.5678053464100065,-0.823066404356553,0.004473994036783201,179.6553987357785,-1.4022818034582745,-110.79485209833005,0
1767379825.693316,1,left_wrist,-0.0351,-0.1542,-0.9819,0.56,-1.33,-1.12,0.053119730914551674,-0.7865633141450347,-0.6118418728952112,0.06438920407044357,-170.6501074231234,2.079756053260379,75.92644817251184,0
1767379825.693316,2,right_wrist,0.0244,0.0034,-0.9706,1.05,-2.8,-0.56,0.008814074289303577,0.5679569453440877,-0.822963423336908,0.008855742737511123,-179.7384293550395,-1.4077088561378621,-110.7812806199676,0
1767379825.76332,1,left_wrist,-0.0371,-0.1537,-0.9814,0.56,-1.19,-1.12,0.04878321151672994,-0.7866016132550302,-0.6123578029805353,0.062418117782817084,-171.18156931939197,2.203613146654474,75.97040367329548,0
1767379825.76332,2,right_wrist,0.021,0.0044,-0.9682,1.19,-2.45,-0.63,0.013288141410787279,0.5684232495985019,-0.8226056538421038,0.006194584790839901,179.71826230605942,-1.6563131947075478,-110.70672273525744,0
1767379825.8191621,1,left_wrist,-0.0371,-0.1537,-0.9814,0.56,-1.19,-1.12,0.05364975040499347,-0.7858657297741561,-0.6128412870616402,0.06294692939808236,-170.70225949542663,1.9013143234313599,76.05093662132612,0
1767379825.8191621,2,right_wrist,0.021,0.002,-0.9697,0.91,-2.45,-0.56,0.007318252415486062,0.5686538278560194,-0.8225305486771304,0.0047711360469889835,179.97282079761146,-1.00073438397425,-110.68392679869008,0
1767379825.889566,1,left_wrist,-0.0386,-0.1518,-0.9814,0.21,-0.91,-0.98,0.04745701780874097,-0.7858186865120709,-0.6138178220967702,0.0588600430302435,-171.55093712041213,1.9625760914550532,76.13311628769463,0
1767379825.889566,2,right_wrist,0.0215,0.0034,-0.9682,1.05,-2.59,-0.56,0.011125383211909841,0.5688567262776332,-0.8223480849066411,0.004677399647439498,179.7154690060844,-1.3534186918240907,-110.64978593954228,0
1767379825.9634502,1,left_wrist,-0.0366,-0.1532,-0.9819,0.42,-0.77,-1.12,0.050074974913707035,-0.7852117836165762,-0.6139377467238458,0.06336714373169898,-170.99276849619406,2.1793362166251553,76.21362809271594,0
1767379825.9634502,2,right_wrist,0.0229,0.0029,-0.9692,0.98,-2.45,-0.56,0.00977002317108186,0.5692714182640205,-0.8220767507170842,0.004941146157329733,179.82809562061325,-1.2427927392851028,-110.59450926963095,0
1767379826.021269,1,left_wrist,-0.0366,-0.1537,-0.9814,0.28,-0.7,-1.12,0.04843477139438904,-0.7850913615994054,-0.6146589682809231,0.05899135168646234,-171.45118676810998,1.8960036969118472,76.25749636512037,0
1767379826.021269,2,right_wrist,0.022,0.0024,-0.9687,0.91,-2.66,-0.63,0.010943918455552187,0.5694505297887626,-0.8219033123024956,0.009014987427730322,-179.86502268343364,-1.6192145976678205,-110.57008971141714,0
1767379826.095687,1,left_wrist,-0.0366,-0.1532,-0.9823,0.35,-0.98,-1.12,0.04884392754119935,-0.784376688830562,-0.6154815087460991,0.05958181898179366,-171.37014511394068,1.9108310496242942,76.38503707294474,0
1767379826.095687,2,right_wrist,0.022,0.0034,-0.9677,0.84,-2.59,-0.63,0.009062324152744345,0.569750606832582,-0.8217592288121536,0.00372695008147511,179.75924311661637,-1.0967632683275024,-110.52820807539281,0
1767379826.167402,1,left_wrist,-0.0366,-0.1547,-0.9833,0.49,-1.05,-1.05,0.05041393894892854,-0.7838424281772164,-0.615519235958495,0.06469584773360448,-170.86278935312606,2.255813519881563,76.46245820375385,0
1767379826.167402,2,right_wrist,0.0224,0.0039,-0.9672,1.05,-2.66,-0.56,0.009719677556211715,0.570203823008891,-0.8214417821325006,0.0025547331034310437,179.60531526652062,-1.081908057333873,-110.46337617486873,0
1767379826.223795,1,left_wrist,-0.0366,-0.1547,-0.9833,0.49,-1.05,-1.05,0.0491139356595394,-0.7837037485298366,-0.616238331170414,0.06038687821552286,-171.28641601506502,1.9552579722299284,76.50601117606782,0
1767379826.223795,2,right_wrist,0.0229,0.0034,-0.9677,0.98,-2.59,-0.56,0.010257492530966469,0.5703557327260634,-0.8213042794273491,0.006957196836034416,179.98435984909233,-1.4202327447365473,-110.44362206338914,0
1767379826.2996302,1,left_wrist,-0.0366,-0.1537,-0.9828,0.28,-1.12,-1.19,0.049829929755095204,-0.7829166439499599,-0.6170546034419511,0.06166135822239489,-171.1286122708062,2.008962848198383,76.64257561155053,0
1767379826.2996302,2,right_wrist,0.0205,0.0024,-0.9677,0.91,-2.52,-0.56,0.007115508259144353,0.5706154668353098,-0.8211839237862474,0.0020789097041574544,179.73033247460458,-0.8055363302686177,-110.4096058931614,0
1767379826.3696718,1,left_wrist,-0.0386,-0.1513,-0.9823,0.49,-1.05,-1.05,0.045174290070837994,-0.782903523469349,-0.6171799919479494,0.06411095066369871,-171.37193436619967,2.5576186052521397,76.69194284142102,0
1767379826.3696718,2,right_wrist,0.0244,0.0039,-0.9692,1.05,-2.52,-0.56,0.013091487238677672,0.5710121011198617,-0.820820629651035,0.005223722412107081,179.63458099501628,-1.5733761479321848,-110.34539764173985,0
1767379826.4444869,1,left_wrist,-0.0346,-0.1537,-0.9809,0.49,-1.05,-1.12,0.05030419211613109,-0.7819457567327993,-0.6185154751815125,0.05889761238030952,-171.28056202388763,1.7123463829484038,76.81822423289982,0
1767379826.4444869,2,right_wrist,0.022,0.0029,-0.9677,1.05,-2.45,-0.56,0.0069560894672279815,0.5712285227942347,-0.820746061050053,0.005048845062323701,-179.9804818320447,-0.9847598004830993,-110.32534389124419,0
1767379826.51923,1,left_wrist,-0.0356,-0.1527,-0.9819,0.28,-0.91,-0.98,0.04856061258379405,-0.7816930892012005,-0.6184714290633457,0.06395992990078875,-171.0740695015345,2.288277910594558,76.8803433470594,0
1767379826.51923,2,right_wrist,0.0224,0.002,-0.9687,0.91,-2.52,-0.56,0.006258989350086826,0.5715985401000101,-0.8204674881314328,0.008308725964290862,-179.62871576079513,-1.1327601191959418,-110.2758065184316,0
1767379826.570555,1,left_wrist,-0.0376,-0.1508,-0.9809,0.28,-1.05,-1.05,0.04680343634527024,-0.7815846045641176,-0.6191684762175372,0.05971048746308504,-171.53556098644222,2.0275002815297305,76.9223261300898,0
1767379826.570555,2,right_wrist,0.0224,0.002,-0.9687,0.91,-2.52,-0.56,0.00928999803873168,0.5718461984094668,-0.8202915855333348,0.005228384481712475,179.882671817787,-1.2159465609241542,-110.23608108954959,0
1767379826.6420789,1,left_wrist,-0.0361,-0.1523,-0.9833,0.56,-0.91,-1.05,0.04622181406687219,-0.7809553434059817,-0.6197930923219002,0.061877445164366635,-171.43031414412624,2.2552354351186894,77.04245015351644,0
1767379826.6420789,2,right_wrist,0.0234,0.0029,-0.9697,1.12,-2.59,-0.63,0.012867707639569993,0.5720577449024886,-0.8200871701398084,0.006433659088171929,179.7609893006949,-1.6312096257546473,-110.20063810015272,0
1767379826.721146,1,left_wrist,-0.0361,-0.1523,-0.9833,0.56,-0.91,-1.05,0.05115509408462417,-0.7802513512971608,-0.6202348859084502,0.06244734942557009,-170.9449906109822,1.9480255429703284,77.11782357178303,0
1767379826.721146,2,right_wrist,0.0205,0.002,-0.9677,0.98,-2.59,-0.56,0.00938799567989994,0.572499892326674,-0.8198214827678107,0.00696241448414413,-179.96179500319613,-1.3388333778906392,-110.14550946936701,0
1767379826.78855,1,left_wrist,-0.0371,-0.1527,-0.9809,0.49,-1.12,-1.19,0.050275698210863695,-0.7795770770971023,-0.620947169297654,0.06447129574763834,-170.87614661550612,2.182556408637546,77.25007064562853,0
1767379826.78855,2,right_wrist,0.0205,0.002,-0.9677,0.98,-2.59,-0.56,0.0078933833487544,0.572761589257977,-0.8196822859877338,0.0016752336878869377,179.6392387528566,-0.8513980312972436,-110.1086623816923,0
1767379826.843519,1,left_wrist,-0.0381,-0.1537,-0.9809,0.7,-1.19,-1.05,0.04617652925322882,-0.779611778082585,-0.6214500443351783,0.06223380124049018,-171.40393549587554,2.272006153730694,77.28940704963885,0
1767379826.843519,2,right_wrist,0.0215,0.0024,-0.9692,0.98,-2.38,-0.56,0.009105881679288785,0.5729213335478575,-0.819538801699698,0.005863530780217547,179.9528273114409,-1.2402027115566185,-110.08640808733409,0
1767379826.912788,1,left_wrist,-0.0376,-0.1542,-0.9819,0.35,-1.12,-1.05,0.05063618031785935,-0.7788974451535376,-0.6217720501603423,0.06445358652172536,-170.84283072077702,2.145491738414227,77.37061194017966,0
1767379826.912788,2,right_wrist,0.0215,0.0039,-0.9687,0.91,-2.38,-0.56,0.009329744366225018,0.5733278439862414,-0.8192545491856884,0.00548842588575811,179.90227822561076,-1.2365507034594139,-110.02901939806686,0
1767379826.970895,1,left_wrist,-0.0361,-0.1552,-0.9823,0.35,-0.91,-1.12,0.04802066107453619,-0.7788331517966757,-0.6224464390942198,0.060608318169594416,-171.35330059722784,1.9843751211939487,77.41399841666565,0
1767379826.970895,2,right_wrist,0.0215,0.0039,-0.9687,0.91,-2.38,-0.56,0.012065414398584714,0.5735633899257652,-0.8190699207867871,0.0019820127601661666,179.39286425262947,-1.262812750129202,-109.98913555342632,0
1767379827.041887,1,left_wrist,-0.0376,-0.1527,-0.9819,0.28,-0.84,-0.98,0.04690408880739554,-0.778259781695409,-0.6230943027797194,0.062170800960076426,-171.33863266763888,2.1960389701565535,77.52960358549556,0
1767379827.041887,2,right_wrist,0.022,0.0044,-0.9697,1.12,-2.66,-0.49,0.008415131589305737,0.5737026382625514,-0.8189977979935484,0.006088948401946952,-179.98177003436777,-1.190144135120455,-109.9782036977524,0
1767379827.121453,1,left_wrist,-0.0381,-0.1542,-0.9804,0.7,-1.12,-0.98,0.05067426306186736,-0.7775886619760647,-0.6232593064075631,0.0658470106062026,-170.73441797901953,2.2487127114720002,77.6085683354132,0
1767379827.121453,2,right_wrist,0.022,0.0015,-0.9687,0.98,-2.52,-0.49,0.00634012984816073,0.5740604266192855,-0.8187635423686803,0.006378952193173381,-179.81854578728877,-1.0145287846904147,-109.93063743371019,0
1767379827.185792,1,left_wrist,-0.0381,-0.1532,-0.9799,0.49,-1.05,-1.12,0.051294726603256104,-0.7768551563876854,-0.6241260385090428,0.06581493046088462,-170.67878785349723,2.190870554785528,77.73547251710069,0
1767379827.185792,2,right_wrist,0.0224,0.0029,-0.9672,0.98,-2.45,-0.56,0.010082332387093268,0.5742834256199862,-0.8185795101228319,0.004947649833447474,179.80055297383905,-1.2714454422542403,-109.89378580963742,0
1767379827.236662,1,left_wrist,-0.0366,-0.1547,-0.9843,0.42,-1.05,-1.19,0.04812976895956292,-0.7768063601994875,-0.6247887408316752,0.062405395788286966,-171.20735339910163,2.109645521283259,77.78195404802426,0
1767379827.236662,2,right_wrist,0.0224,0.0029,-0.9672,0.98,-2.45,-0.56,0.01133787590738337,0.5744347474138007,-0.8184214834472902,0.009080141270306756,-179.8947018691028,-1.6612499892620565,-109.87292758347094,0
1767379827.296503,1,left_wrist,-0.0371,-0.1523,-0.9804,0.28,-1.05,-1.05,0.048873886161535124,-0.7763146711125551,-0.6247940840086087,0.0676699878433422,-170.75838395795333,2.5214946042313318,77.8594876564522,0
1767379827.296503,2,right_wrist,0.0224,0.0015,-0.9687,0.91,-2.31,-0.49,0.008175852038906318,0.5746776305907283,-0.8183277732345726,0.004293238289458817,179.8641628104932,-1.0494600803528311,-109.84120548386909,0
1767379827.36337,1,left_wrist,-0.039,-0.1527,-0.9814,0.49,-0.91,-1.12,0.047425774280992754,-0.7761816384343513,-0.625521978438908,0.06336493179266298,-171.1985436216717,2.2370325669828866,77.90261144487792,0
1767379827.36337,2,right_wrist,0.0244,0.0049,-0.9677,0.98,-2.52,-0.56,0.011011171258907554,0.5751252859552878,-0.8179909286014153,0.0007073105045591662,179.34048241227183,-1.0788092398728582,-109.77207321231039,0
1767379827.417417,1,left_wrist,-0.039,-0.1527,-0.9814,0.49,-0.91,-1.12,0.050245299781556986,-0.7755300093008716,-0.6256465757422968,0.06778625808812665,-170.62476357891194,2.4225544861046098,77.98728339615654,0
1767379827.417417,2,right_wrist,0.0224,0.0024,-0.9682,0.98,-2.38,-0.56,0.009079062058857305,0.575281635254125,-0.8178872774467085,0.005386293928304703,179.90628496727106,-1.206083332228586,-109.7558070621904,0
1767379827.493576,1,left_wrist,-0.0381,-0.1527,-0.9804,0.35,-1.12,-0.98,0.043612179553981,-0.775504598050277,-0.6267342322459811,0.0624083193850789,-171.6048449165316,2.414550602807503,78.06496894087257,0
1767379827.493576,2,right_wrist,0.0224,0.0024,-0.9687,0.98,-2.52,-0.56,0.01280594611573789,0.5754712806348721,-0.8176980271909023,0.006224888484744297,179.73869870243715,-1.6106408010769524,-109.72286577096459,0
1767379827.571449,1,left_wrist,-0.0366,-0.1532,-0.9819,0.28,-1.05,-1.19,0.04838038733308959,-0.7747625680072691,-0.6272066093139063,0.06335748234608839,-171.10920215623813,2.1482363914514995,78.15061380706479,0
1767379827.571449,2,right_wrist,0.0224,0.0044,-0.9677,1.05,-2.52,-0.63,0.010747656628073338,0.5759272434161856,-0.8174173413383139,0.004603069350013071,179.72178495827347,-1.3106239233185146,-109.66211226015028,0
1767379827.639173,1,left_wrist,-0.0361,-0.1518,-0.9828,0.49,-1.12,-1.05,0.047912666178137046,-0.7741311947036271,-0.6280777977618067,0.06279768917019492,-171.18931282846285,2.1228093432886435,78.27064458722545,0
1767379827.639173,2,right_wrist,0.0224,0.0044,-0.9677,1.05,-2.52,-0.63,0.009586257039949149,0.5761614975762045,-0.8172681231432237,0.004341345489812706,179.77361105655808,-1.1844864993025885,-109.63116009057454,0
1767379827.715476,1,left_wrist,-0.0371,-0.1562,-0.9809,0.42,-1.05,-1.12,0.05139033201444168,-0.7734363781306886,-0.6282658223846067,0.06661275540706853,-170.60056577311954,2.2045910102221677,78.3554813056513,0
1767379827.715476,2,right_wrist,0.021,0.0034,-0.9682,0.98,-2.45,-0.56,0.008344819725371426,0.5765842166634688,-0.8169882861104323,0.003338478195817795,179.76115470021207,-1.0018716324521564,-109.57334217983322,0
1767379827.765866,1,left_wrist,-0.0376,-0.1542,-0.9809,0.35,-1.12,-1.05,0.047675337991500914,-0.7734576095662529,-0.6288378943589407,0.0636654613559658,-171.14499457888257,2.20786357240531,78.39469826246227,0
1767379827.765866,2,right_wrist,0.0224,0.0015,-0.9687,0.98,-2.31,-0.56,0.009763628779039881,0.5767422543865499,-0.8168339371019094,0.007440615349492411,-179.9488022800355,-1.405787638000938,-109.55106209339999,0
1767379827.816373,1,left_wrist,-0.0376,-0.1547,-0.9823,0.42,-0.98,-1.12,0.05235419800637742,-0.7727095514710759,-0.6292092600031963,0.06538114516210156,-170.60226449859957,2.014807534728369,78.47675201973794,0
1767379827.816373,2,right_wrist,0.0224,0.0015,-0.9687,0.98,-2.31,-0.56,0.009140862639339518,0.5770068137693035,-0.8166851426050555,0.0022269580520028667,179.6039517156405,-1.0027475757174724,-109.51236690969925,0
1767379827.889504,1,left_wrist,-0.0351,-0.1532,-0.9823,0.42,-1.26,-1.12,0.05256892319463222,-0.7720984271702079,-0.6304062166716514,0.06073326153915046,-170.92021266558626,1.5760939359230062,78.58734754757025,0
1767379827.889504,2,right_wrist,0.0229,0.0049,-0.9687,1.05,-2.52,-0.63,0.011052647642903044,0.5771878685385733,-0.8165152262280968,0.005906668236860936,179.82157479807043,-1.4249682944181925,-109.48543141184612,0
1767379827.944532,1,left_wrist,-0.0351,-0.1532,-0.9823,0.42,-1.26,-1.12,0.047875366141260284,-0.7720658764705877,-0.6305632565492102,0.06334201762336554,-171.14606468377087,2.145169664749152,78.64464093067596,0
1767379827.944532,2,right_wrist,0.0229,0.0049,-0.9687,1.05,-2.52,-0.63,0.010138210576116401,0.5774773260724976,-0.8163435135825454,0.000649915515493967,179.389807939692,-0.9914468204189889,-109.44392517597363,0
1767379828.019076,1,left_wrist,-0.0376,-0.1562,-0.9809,0.49,-1.19,-1.05,0.05115630978089875,-0.7713917574732219,-0.6307095106154578,0.06740401836081299,-170.5564607655892,2.2614938683602404,78.7274292207965,0
1767379828.019076,2,right_wrist,0.021,0.001,-0.9658,0.98,-2.52,-0.56,0.01093345761840795,0.5778219723653415,-0.8160419322691777,0.008820007637167665,-179.89913072000883,-1.6066185037161185,-109.39841405764739,0
1767379828.071029,1,left_wrist,-0.0346,-0.1547,-0.9819,0.42,-1.26,-1.19,0.049152345706591445,-0.7712521198662243,-0.6314594939227792,0.06334920716301301,-171.0297453223033,2.042510883962196,78.77775340844072,0
1767379828.071029,2,right_wrist,0.022,0.002,-0.9682,1.05,-2.52,-0.7,0.008147395472572445,0.5781412575402205,-0.8158870299121502,0.003828929087322255,179.81818631421285,-1.0154508161919793,-109.35526949946183,0
1767379828.140353,1,left_wrist,-0.0371,-0.1532,-0.9848,0.35,-1.05,-1.12,0.04791543836044222,-0.7706532742066637,-0.6322889118946716,0.06331171784375746,-171.1400141159648,2.1198524571268784,78.89915250423931,0
1767379828.140353,2,right_wrist,0.022,0.002,-0.9682,1.05,-2.52,-0.7,0.01034306878350878,0.5783554308869308,-0.8156869358292594,0.007269058343815604,179.9939597730077,-1.448683955675718,-109.32352017938443,0
1767379828.198139,1,left_wrist,-0.0361,-0.1523,-0.9823,0.42,-0.91,-1.05,0.04698364245504029,-0.7704779965813793,-0.6330028935224487,0.05885177072789162,-171.54816286127496,1.788286809964894,78.94325943213686,0
1767379828.198139,2,right_wrist,0.0215,0.0039,-0.9697,0.84,-2.52,-0.56,0.008958906534274749,0.5786208305435926,-0.815545164854206,0.0019381789595292254,179.58704861920714,-0.965807769311973,-109.28590886364539,0
1767379828.268183,1,left_wrist,-0.0376,-0.1557,-0.9819,0.14,-1.12,-1.12,0.048140124901282666,-0.769949004383534,-0.6330623897774373,0.06397710272100264,-171.06908353516243,2.1529261457321716,79.0231540278505,0
1767379828.268183,2,right_wrist,0.0229,0.0044,-0.9672,1.05,-2.52,-0.56,0.011604051678834026,0.5790304580960799,-0.8152225798708227,0.0011044683966314646,179.33307362374703,-1.1573853642698837,-109.22297594315295,0
1767379828.358716,1,left_wrist,-0.0361,-0.1542,-0.9814,0.21,-1.26,-1.05,0.048428186874331126,-0.769222390087513,-0.6338920718528779,0.06428426359681569,-171.01867819883017,2.149170298558923,79.15054235596337,0
1767379828.358716,2,right_wrist,0.022,0.0054,-0.9687,1.12,-2.52,-0.63,0.009305910616565164,0.579210980100559,-0.8151043743195576,0.005735810637466084,179.91807028300516,-1.2500103654748893,-109.20410824126158,0
1767379828.413741,1,left_wrist,-0.0361,-0.1542,-0.9814,0.21,-1.26,-1.05,0.04838296286958475,-0.7689616558275567,-0.6346500672567525,0.05980261617941322,-171.35064598239987,1.751193628945762,79.20046221065914,0
1767379828.413741,2,right_wrist,0.0224,0.0024,-0.9692,0.98,-2.38,-0.63,0.007738327103471801,0.5796602078483605,-0.814795758398138,0.006483350001210363,-179.90865132234435,-1.1532466586259777,-109.14347107054677,0
1767379828.466401,1,left_wrist,-0.0361,-0.1537,-0.9828,0.35,-0.91,-1.12,0.04797240611065891,-0.7685562006536946,-0.6346486574792318,0.06512369959178134,-170.99499803544606,2.247212375300856,79.27454802238935,0
1767379828.466401,2,right_wrist,0.0224,0.0024,-0.9692,0.98,-2.38,-0.63,0.01139097904299785,0.579909006535123,-0.8145883255177548,0.004652920165757427,179.67727121687534,-1.3726206206642098,-109.10167248806238,0
1767379828.54159,1,left_wrist,-0.0351,-0.1503,-0.9843,0.35,-1.05,-1.12,0.04532746583339323,-0.7680469047387817,-0.6354153364291281,0.06554939506171896,-171.1950291574186,2.469438270703733,79.3929559326753,0
1767379828.54159,2,right_wrist,0.0239,0.0029,-0.9687,0.98,-2.66,-0.56,0.008457533160234626,0.5800590660103327,-0.8144806527756167,0.009012010112578185,-179.7209737119719,-1.3885267009851174,-109.08775397923817,0
1767379828.596444,1,left_wrist,-0.0366,-0.1557,-0.9828,0.42,-1.12,-1.19,0.04981890080058442,-0.7673515432282233,-0.6360590814138862,0.06417578343276374,-170.89791707089148,2.012369011170154,79.47099110830484,0
1767379828.596444,2,right_wrist,0.0229,0.002,-0.9692,1.12,-2.38,-0.63,0.009862177196347896,0.5803483270747952,-0.8142962365346669,0.0044939835237935025,179.76342143710104,-1.2192097863853817,-109.04259467358602,0
1767379828.664217,1,left_wrist,-0.0351,-0.1532,-0.9804,0.35,-1.05,-0.98,0.04570468954854508,-0.7674010149569449,-0.6365544278363859,0.061686497697740546,-171.44374679102782,2.0911595464547683,79.50744558268352,0
1767379828.664217,2,right_wrist,0.021,0.0029,-0.9672,0.98,-2.31,-0.49,0.008603772167871107,0.5807666169898283,-0.8140151958607025,0.003920791059934152,179.7931032071596,-1.0635470434851815,-108.98546429332961,0
1767379828.717003,1,left_wrist,-0.0361,-0.1552,-0.9833,0.28,-1.26,-1.05,0.04936871960550543,-0.7667129338483938,-0.6367607056438326,0.06519056942587663,-170.86076662751557,2.1257476253857637,79.58967789552813,0
1767379828.717003,2,right_wrist,0.021,0.0029,-0.9672,0.98,-2.31,-0.49,0.010975225030671516,0.5809034434054094,-0.813865656293558,0.007309403609092096,179.95108982709525,-1.5103101851170038,-108.96402187062336,0
1767379828.798839,1,left_wrist,-0.0366,-0.1523,-0.9789,0.35,-0.84,-1.12,0.049619918046326254,-0.765989787608734,-0.6375911043932724,0.06538419236153073,-170.82200571993192,2.1142821414102655,79.71605461397094,0
1767379828.798839,2,right_wrist,0.0215,0.0034,-0.9692,1.05,-2.73,-0.56,0.007862975037702998,0.5811679103322008,-0.8137422718402906,0.0023555559559778664,179.695962703269,-0.8901152773444374,-108.92942280679671,0
1767379828.863263,1,left_wrist,-0.0381,-0.1547,-0.9843,0.28,-1.12,-0.84,0.044879393049130696,-0.7661091150108681,-0.6379493309387898,0.06390082262034516,-171.3487145569018,2.3296263418383205,79.74544329189604,0
1767379828.863263,2,right_wrist,0.0229,0.002,-0.9682,1.26,-2.31,-0.56,0.013035770132852948,0.5815502091991961,-0.813392925877934,0.004622878880996541,179.56201664458237,-1.523289126258573,-108.86704036515616,0
1767379828.921289,1,left_wrist,-0.0386,-0.1537,-0.9848,0.35,-1.05,-1.12,0.049561058468074966,-0.7653638596114556,-0.6383416337847135,0.06543563601924196,-170.82133239319325,2.114142087641941,79.82842332777342,0
1767379828.921289,2,right_wrist,0.0229,-0.0005,-0.9658,0.63,-1.82,-0.63,0.008135819643330442,0.5817495797552612,-0.8132949652032245,0.007248066527982109,-179.86683541786925,-1.2415111471160911,-108.84919074252748,0
1767379828.995595,1,left_wrist,-0.0376,-0.1537,-0.9809,-0.07,-0.98,-1.05,0.04866450735421761,-0.7647863262331903,-0.6392704681233433,0.06377232562854182,-171.0212096441833,2.02438543956503,79.94219118494627,0
1767379828.995595,2,right_wrist,0.0229,-0.0005,-0.9658,0.63,-1.82,-0.63,0.012304123741459927,0.5819873151946218,-0.8130788938744484,0.006487359047734749,179.78378516422046,-1.5792468884391844,-108.80820201981453,0
1767379829.067347,1,left_wrist,-0.0376,-0.1527,-0.9823,0.49,-1.05,-0.91,0.04361207697207142,-0.7648639766499049,-0.6394540274668623,0.06465006358763441,-171.40000886081287,2.4714275299412667,79.97954919027828,0
1767379829.067347,2,right_wrist,0.0215,0.0039,-0.9692,0.98,-2.52,-0.49,0.010458589156692571,0.5823905247911032,-0.8128291615681855,0.00454407864758916,179.7252061362644,-1.2775123433439235,-108.75388687317808,0
1767379829.1190221,1,left_wrist,-0.0376,-0.1527,-0.9823,0.49,-1.05,-0.91,0.04837076369616331,-0.7642193942186756,-0.6399411654327144,0.06406474462689765,-171.0235618836282,2.0636760634033293,80.04619381862099,0
1767379829.1190221,2,right_wrist,0.022,0.0024,-0.9682,0.91,-2.38,-0.63,0.0072473975477294105,0.5825693252101515,-0.8127012890910458,0.0087790240190177,-179.66615642440772,-1.2611085270261717,-108.73543353479906,0
1767379829.1719282,1,left_wrist,-0.0366,-0.1503,-0.9828,0.35,-0.84,-1.12,0.04406241543425804,-0.7642443975290044,-0.6404380371278361,0.06187184328490779,-171.56393099775664,2.18532820725257,80.0873151652134,0
1767379829.1719282,2,right_wrist,0.021,0.0024,-0.9672,1.12,-2.52,-0.56,0.008834626415209839,0.582828574554643,-0.8125353710884404,0.004367240418952683,179.8165571460654,-1.1143355320731754,-108.69475158754598,0
1767379829.239329,1,left_wrist,-0.0376,-0.1542,-0.9804,0.42,-0.91,-1.12,0.04350609973156598,-0.763557377992024,-0.6411404817192248,0.06345260042687557,-171.49313347377444,2.3562287310015244,80.21398310089731,0
1767379829.239329,2,right_wrist,0.0229,0.0015,-0.9692,0.98,-2.8,-0.63,0.010297186895468838,0.583010913173871,-0.8123576296923598,0.008205153430599037,-179.9240973101819,-1.5069028713876316,-108.66868146115421,0
1767379829.2922869,1,left_wrist,-0.0361,-0.1523,-0.9828,0.56,-1.05,-1.12,0.04839293228731785,-0.7628300602535818,-0.6416283627694094,0.06372964277319418,-171.04209531683694,2.0131701737365755,80.29315015978993,0
1767379829.2922869,2,right_wrist,0.0229,0.0015,-0.9692,0.98,-2.8,-0.63,0.008420220769645671,0.5833040782813118,-0.8122051220297131,0.0028795644251317616,179.70514022290325,-0.9762078147850471,-108.6276872562731,0
1767379829.363752,1,left_wrist,-0.0366,-0.1552,-0.9814,0.35,-1.05,-1.05,0.046241143698356746,-0.7625645727529179,-0.6415893616516681,0.06870312967422136,-170.86006653815437,2.6047321022992627,80.35988980297414,0
1767379829.363752,2,right_wrist,0.0224,0.0034,-0.9697,0.91,-2.59,-0.63,0.009222170403592906,0.5837745569264972,-0.8118627507561593,0.001045080361189516,179.4802283119171,-0.9279145375589684,-108.5593117039614,0
1767379829.440477,1,left_wrist,-0.0361,-0.1523,-0.9853,0.35,-1.05,-0.98,0.04462669070840589,-0.762177758218942,-0.6429116481387842,0.06130363806688957,-171.54988890140524,2.066906517925932,80.44926425023824,0
1767379829.440477,2,right_wrist,0.0224,0.0034,-0.9697,0.91,-2.59,-0.63,0.009400534780173421,0.5839516510920969,-0.8117152034440026,0.005525181492229122,179.88485592900278,-1.2442178688624872,-108.53592194538233,0
1767379829.522814,1,left_wrist,-0.0361,-0.1523,-0.9853,0.35,-1.05,-0.98,0.048169710728893166,-0.7615254065313819,-0.6430662118452114,0.06499677960143954,-170.96329497450543,2.12276546141617,80.52626384897016,0
1767379829.522814,2,right_wrist,0.0244,0.0005,-0.9692,1.05,-2.73,-0.56,0.006995849384548037,0.584332390189508,-0.8114504990474599,0.007402936068450319,-179.7800296255582,-1.1462855033639328,-108.48623912639951,0
1767379829.5764139,1,left_wrist,-0.0376,-0.1537,-0.9823,0.49,-0.98,-1.12,0.043570731279853774,-0.7615581285777522,-0.6435095416461277,0.06345295882211684,-171.48024356303065,2.3251204785566006,80.56821157022482,0
1767379829.5764139,2,right_wrist,0.0244,0.0005,-0.9692,1.05,-2.73,-0.56,0.010747835494942098,0.5845518093643561,-0.811257567838194,0.006695134523608982,179.9024298298747,-1.4477795885736362,-108.449480079063,0
1767379829.644473,1,left_wrist,-0.0366,-0.1537,-0.9853,0.42,-1.05,-0.98,0.04358683624540355,-0.760880468574291,-0.6443258505079107,0.06328742857425419,-171.48875707963163,2.300475560858232,80.68813338020368,0
1767379829.644473,2,right_wrist,0.021,0.0015,-0.9672,0.98,-2.52,-0.56,0.005431718083188908,0.5847892309228481,-0.8111588784472685,0.0036504453835507615,179.9753241413609,-0.7495335393114705,-108.42186638870994,0
1767379829.713805,1,left_wrist,-0.0366,-0.1537,-0.9853,0.42,-1.05,-0.98,0.048317429458617084,-0.7601773620910295,-0.6446782273418311,0.06469766121143708,-170.96834615295845,2.0668208051911146,80.76333698340189,0
1767379829.713805,2,right_wrist,0.0205,0.0044,-0.9687,0.98,-2.38,-0.63,0.01126708275391732,0.5852359331117829,-0.8107832629428064,0.0015671543679568083,179.38986229296472,-1.1519883098940813,-108.34919551397665,0
1767379829.7715929,1,left_wrist,-0.0371,-0.1547,-0.9804,0.28,-0.84,-1.05,0.043287578417960784,-0.7602175009639132,-0.6448816381281463,0.06575111853079173,-171.3286644819013,2.5298331800685285,80.80676480884219,0
1767379829.7715929,2,right_wrist,0.0205,0.0044,-0.9687,0.98,-2.38,-0.63,0.007980393533967017,0.5854233670883009,-0.8106677566717899,0.0057950736636701115,-179.99702341933005,-1.1301774505289903,-108.33019549904806,0
1767379829.839954,1,left_wrist,-0.0376,-0.1557,-0.9833,0.14,-0.28,-1.33,0.04493173523020469,-0.759320074024886,-0.6455128678903557,0.06875537608080365,-170.9573623859349,2.6598603558452134,80.94739731689951,0
1767379829.839954,2,right_wrist,0.0239,0.0049,-0.9687,1.26,-2.45,-0.56,0.011714608806532547,0.5856364064611005,-0.8104753842270724,0.004734863231195082,179.6534820009397,-1.4058712869049437,-108.29321478151887,0
1767379829.924544,1,left_wrist,-0.0381,-0.1532,-0.9819,0.84,-1.47,-0.91,0.04651817823408163,-0.7589711384979333,-0.6462198593774233,0.06479786545216132,-171.1138123715428,2.1913803480779195,80.9952281434024,0
1767379829.924544,2,right_wrist,0.0224,0.002,-0.9697,1.26,-2.31,-0.42,0.00983544948050465,0.5860144968824,-0.8102203614405009,0.005765352062800004,179.8747751831708,-1.3004349336742345,-108.24380859031038,0
1767379829.9904902,1,left_wrist,-0.0346,-0.1498,-0.9809,0.0,-0.84,-1.12,0.04539236198135784,-0.7584355389803467,-0.6471395478623673,0.06265358950479394,-171.37049980018116,2.07955036547718,81.10224170747651,0
1767379829.9904902,2,right_wrist,0.0224,0.0015,-0.9672,1.26,-2.66,-0.49,0.008571997314076658,0.5861359723165372,-0.8100989470877574,0.010527998190626728,-179.59828792961636,-1.503041192767443,-108.23106451677289,0
1767379830.059523,1,left_wrist,-0.0346,-0.1523,-0.9833,0.21,-1.05,-1.05,0.04999995111736073,-0.7577125053156752,-0.6474923875211754,0.06422906101316087,-170.84932703118423,1.8673221216315654,81.1795874035342,0
1767379830.059523,2,right_wrist,0.0224,0.0015,-0.9672,1.26,-2.66,-0.49,0.008699073342698883,0.5863864890895438,-0.8099661044887612,0.0054882707219899565,179.92484578918823,-1.1762735757043166,-108.19284085006932,0
1767379830.123543,1,left_wrist,-0.0351,-0.1537,-0.9833,0.21,-1.19,-0.91,0.044900078679376246,-0.757811632956435,-0.6477995684913496,0.06372778791789722,-171.3308518944628,2.201548459280783,81.21647402662047,0
1767379830.123543,2,right_wrist,0.0249,0.001,-0.9687,1.19,-2.52,-0.56,0.006515921829908427,0.5868075828670872,-0.8096869634592779,0.00462867761753668,179.99131142724673,-0.9158547506816721,-108.13569717438538,0
1767379830.190194,1,left_wrist,-0.0361,-0.1503,-0.9823,0.0,-0.7,-1.12,0.04450814132392772,-0.7571448238403743,-0.6485728676035729,0.064062286066734,-171.33757376921622,2.2508884912880323,81.33744738235296,0
1767379830.190194,2,right_wrist,0.0249,0.001,-0.9687,1.19,-2.52,-0.56,0.00961770418611935,0.5869887346224456,-0.8095080646496657,0.006958337422194186,179.99854957823555,-1.3603381751754169,-108.10690886145424,0
1767379830.242964,1,left_wrist,-0.0332,-0.1576,-0.9731,1.26,-0.63,-1.19,0.04965860200140363,-0.7563686014072084,-0.6489663085724974,0.06544686692543702,-170.78372025435962,1.9799856544173657,81.4189705487858,0
1767379830.242964,2,right_wrist,0.0234,0.0,-0.9692,1.26,-2.94,-0.56,0.008258231520147846,0.5872001592140444,-0.809372336013122,0.006648031875855552,-179.93908111871647,-1.2133528286783646,-108.07882552312908,0
1767379830.297177,1,left_wrist,-0.0322,-0.1723,-0.9853,6.23,2.45,-1.54,0.05672278514996247,-0.7554570017249179,-0.6491006096074908,0.06881600683571099,-169.91430733221964,1.738476280331781,81.49280520162115,0
1767379830.297177,2,right_wrist,0.0273,-0.0283,-0.9697,8.33,-1.96,-0.84,0.003558387466990744,0.5874613169031314,-0.8091281638079728,0.013716907589234982,-178.9674194657245,-1.2534272883674937,-108.04881787883787,0
1767379830.348182,1,left_wrist,-0.0264,-0.1479,-0.9911,0.14,1.33,-1.4,0.05395580786934306,-0.7554294537067625,-0.6497945642296434,0.06466943301960032,-170.46637842842608,1.5807623419611825,81.5338079526856,0
1767379830.348182,2,right_wrist,0.0273,-0.0283,-0.9697,8.33,-1.96,-0.84,0.00015590028100136732,0.5877035476530124,-0.808800715985874,0.021116760923575614,-178.0523739747261,-1.4367262159889138,-108.01742809200717,0
1767379830.419402,1,left_wrist,-0.0351,-0.1493,-0.9921,1.05,0.28,-1.26,0.049699222022440946,-0.7554618172723236,-0.6502243993429758,0.06336923917034624,-170.93374589526667,1.7830337897793656,81.57839499497933,0
1767379830.419402,2,right_wrist,0.0151,-0.0146,-0.9594,0.21,-2.45,-0.63,0.0007888518865069317,0.5884090471795083,-0.8084823498879896,0.011421945088238005,-178.99484028163306,-0.8432580048346378,-107.9135499914863,0
1767379830.496164,1,left_wrist,-0.0293,-0.163,-0.9897,-0.21,-2.8,-0.49,0.05028235280953288,-0.7547897654465535,-0.6506216379691054,0.06675012493975263,-170.62676571275856,2.02497069921738,81.68807861973681,0
1767379830.496164,2,right_wrist,0.0151,-0.0146,-0.9594,0.21,-2.45,-0.63,0.00418927703670354,0.5886937637382335,-0.8083022326058091,0.00834285671022468,-179.50977848547114,-0.9508773884247859,-107.87169428839576,0
1767379830.5672479,1,left_wrist,-0.0298,-0.1503,-0.9828,-0.42,-2.8,-0.49,0.047310609831398114,-0.7548177811709562,-0.651179366166918,0.06306549376629401,-171.16193281158107,1.9249575002075383,81.71728651918399,0
1767379830.5672479,2,right_wrist,0.0215,0.0063,-0.9667,2.31,-2.66,-0.07,0.010317178066746844,0.5887845853610467,-0.8082151329412187,0.003816642866100783,179.6573007615147,-1.2131202034962045,-107.84970871409104,0
1767379830.640569,1,left_wrist,-0.0429,-0.1464,-0.9794,1.12,-2.17,-0.91,0.04347832009962794,-0.7544809701079679,-0.6517714348428277,0.06373459146472682,-171.44237602757937,2.2636127418797423,81.81470541760373,0
1767379830.640569,2,right_wrist,0.0215,0.0063,-0.9667,2.31,-2.66,-0.07,0.013718106380803305,0.5887970891031369,-0.8081504486079824,0.004759604575420079,179.5150040376704,-1.5917365520317215,-107.84107633412171,0
1767379830.691515,1,left_wrist,-0.0386,-0.1508,-0.9819,0.21,-2.1,-0.84,0.047314400490045955,-0.7537985998506614,-0.6519840523906038,0.06682674462949872,-170.87482117400597,2.2380462771848633,81.89373271613925,0
1767379830.691515,2,right_wrist,0.0176,0.0005,-0.9662,1.68,-2.03,-0.56,0.007583205079271865,0.5890143829577906,-0.80807060065192,0.005143542711416137,179.96443957124438,-1.0494177796461077,-107.82197381041397,0
1767379830.7634718,1,left_wrist,-0.042,-0.1444,-0.9745,-0.42,-0.49,-1.19,0.04258547820231593,-0.7538430309833084,-0.6524655524208485,0.06477549373285739,-171.4388420829714,2.412291626452892,81.93421406827021,0
1767379830.7634718,2,right_wrist,0.0239,0.002,-0.9628,1.61,-2.59,-0.77,0.009899489530861645,0.5894894484220193,-0.8076888660093456,0.006548742678511342,179.937381232564,-1.3587388750124205,-107.75179337498571,0
1767379830.816587,1,left_wrist,-0.042,-0.1444,-0.9745,-0.42,-0.49,-1.19,0.038011020019046805,-0.7538625550921911,-0.6529547702041079,0.06242177868889462,-172.01204739417403,2.5491239271415846,81.97267445854824,0
1767379830.816587,2,right_wrist,0.0181,0.001,-0.9711,1.33,-2.59,-0.7,0.0045730071785577584,0.589774609230334,-0.8075475727111567,0.0034519155364351206,-179.98962391366715,-0.656483391384536,-107.71665491551364,0
1767379830.880436,1,left_wrist,-0.0434,-0.1503,-0.9887,0.56,-0.42,-1.26,0.04212997152699456,-0.7531275421357537,-0.6532420558458888,0.06556513745833153,-171.41589795542416,2.5055226140673286,82.06300551634847,0
1767379830.880436,2,right_wrist,0.019,-0.0034,-0.9726,1.33,-2.24,-0.7,0.006057862159864773,0.5899973789518764,-0.8073466319748396,0.007603352869015298,-179.70608630499217,-1.0745597229375927,-107.6851545870112,0
1767379830.941535,1,left_wrist,-0.0312,-0.1366,-0.975,0.77,-0.56,-1.26,0.04492114496632324,-0.752207653414895,-0.6544005055678168,0.06265552802073887,-171.39174220353712,2.0325411606281674,82.1977813646692,0
1767379830.941535,2,right_wrist,0.0181,-0.0049,-0.9643,1.61,-1.68,-0.84,0.0050543597755976395,0.5903027722096535,-0.8071290157430934,0.007735794364002387,-179.6263522039791,-0.9908058565599607,-107.64265907587104,0
1767379831.020946,1,left_wrist,-0.0312,-0.1366,-0.975,0.77,-0.56,-1.26,0.04259156189203193,-0.7520709317995333,-0.6550747997197661,0.05875609900161149,-171.8874588950822,1.8668085062110573,82.24594457858159,0
1767379831.020946,2,right_wrist,0.021,0.0122,-0.9726,1.61,-4.83,-0.77,0.00940830025400968,0.5909611642189091,-0.806642244276711,0.002162410597676763,179.562685890949,-1.0161404156543457,-107.54172005929024,0
1767379831.100493,1,left_wrist,-0.0312,-0.1484,-0.995,-0.28,-0.7,-1.12,0.042422411786759484,-0.751386532821885,-0.6558981101702184,0.05844900638365708,-171.92337985152358,1.8444424030524353,82.36675034726004,0
1767379831.100493,2,right_wrist,0.021,0.0122,-0.9726,1.61,-4.83,-0.77,0.012107214613343404,0.5912335565013049,-0.8064094987491054,0.00013171310155594076,179.1917195941361,-1.1277965564247472,-107.49669801587511,0
1767379831.1683662,1,left_wrist,-0.0527,-0.1064,-1.0146,-22.54,1.05,-1.12,0.030517593514924828,-0.7517927322466386,-0.6567543462468907,0.050498444659325153,-173.55276797898233,2.054127180161989,82.39561173455343,0
1767379831.1683662,2,right_wrist,0.0512,0.0503,-0.9604,-3.15,-2.31,0.7,0.021918513761913876,0.5906042438198652,-0.8066480214222298,-0.005017516520739922,178.05157912083646,-1.6867058323384714,-107.5503068066138,0
1767379831.238465,1,left_wrist,-0.0522,-0.1191,-0.974,-6.86,8.61,-1.82,0.02745511929775374,-0.7511699173435571,-0.6576030683500859,0.05047946314068518,-173.81593479351588,2.276855497866089,82.52331233495367,0
1767379831.238465,2,right_wrist,0.0322,0.019,-0.9721,-1.47,6.58,0.14,0.02274129839075147,0.5905087147614506,-0.8067103921131898,0.0007964890872847453,178.53358793847136,-2.1566612012002335,-107.5644458043913,0
1767379831.298142,1,left_wrist,-0.0522,-0.1191,-0.974,-6.86,8.61,-1.82,0.02809202901605125,-0.7508003640036282,-0.657988275868248,0.05060711548498784,-173.75018243765845,2.2364342375086235,82.58362455157013,0
1767379831.298142,2,right_wrist,0.0083,0.0122,-0.9833,-3.01,3.57,-1.12,0.01988348473764118,0.5909509126445469,-0.8064623464283249,-0.0003868754135152277,178.61695230893477,-1.8116113519949644,-107.51249249498524,0
1767379831.366782,1,left_wrist,-0.0971,-0.0947,-0.9858,7.7,10.92,-2.94,0.029783999462275463,-0.7502635354708975,-0.6584075226414494,0.05212556808217701,-173.48763128858496,2.2348618423433138,82.66548970952822,0
1767379831.366782,2,right_wrist,0.0049,0.001,-0.9623,4.2,0.0,-1.19,0.010968678845625447,0.5918707599855542,-0.8059576973100209,0.0009389916044791057,179.34265794735504,-1.0767717233977885,-107.40897213825949,0
1767379831.4251351,1,left_wrist,-0.0961,-0.1454,-1.0277,-10.5,15.68,-3.5,0.029674486376391498,-0.7497239076591732,-0.6592885112886279,0.048704681760396794,-173.7550794448959,1.9428156776561374,82.76117655758495,0
1767379831.4251351,2,right_wrist,0.0737,0.0288,-0.9755,0.42,-0.7,-1.26,0.01533785387025614,0.5922678001910044,-0.8055913239330084,0.002494373553792319,179.18896485206037,-1.5853907826008855,-107.3423986093934,0
1767379831.491458,1,left_wrist,0.0215,-0.1488,-0.9897,-3.57,-6.37,-1.54,0.03138827905763155,-0.748225644978618,-0.660956529801692,0.04805856683918339,-173.65289441859701,1.7434775761186652,83.00919678684856,0
1767379831.491458,2,right_wrist,0.0137,0.0127,-0.9584,-5.74,9.73,-2.87,0.016026805583541734,0.5932924443375034,-0.804827393649115,0.0002888369610779718,178.9366106834514,-1.4979025774862624,-107.1932462332433,0
1767379831.541473,1,left_wrist,0.0293,-0.1435,-0.997,1.26,-6.86,-1.47,0.03452237516088513,-0.7474029936885491,-0.6616661060438583,0.04893807057295245,-173.31507032122684,1.5740184924287552,83.1280268628879,0
1767379831.541473,2,right_wrist,0.022,0.0015,-0.9872,2.52,-9.45,-1.68,0.00827331040568054,0.5938747397842332,-0.8045125288554729,0.00198411081157112,179.6198425428291,-0.8977808346801719,-107.12904733683263,0
1767379831.592532,1,left_wrist,0.0107,-0.1093,-0.998,-1.33,-3.36,-0.42,0.03564896238332912,-0.7471367134723943,-0.6621634811122348,0.04533659828426389,-173.49247679752858,1.1766166967078298,83.1659919593752,0
1767379831.592532,2,right_wrist,0.022,0.0015,-0.9872,2.52,-9.45,-1.68,0.0056690485169341755,0.5944343202274723,-0.8041072177141686,0.0052233365384741865,-179.90484964075122,-0.8782014510714612,-107.05357922915547,0
1767379831.667179,1,left_wrist,0.0107,-0.1093,-0.998,-1.33,-3.36,-0.42,0.03700174188332073,-0.7468509675929869,-0.6626394359178716,0.04187458978263992,-173.6399960247516,0.7741198456049913,83.20474164236602,0
1767379831.667179,2,right_wrist,0.0156,0.0307,-0.9887,2.66,-8.68,-0.49,0.005266967033537295,0.5948285038024451,-0.8038236949199606,-0.00433331370135166,179.2418173555712,-0.18977936946127397,-106.99595700434892,0
1767379831.7262871,1,left_wrist,0.0034,-0.1093,-1.0082,-2.17,0.28,-0.77,0.0389963148038426,-0.7465415844069619,-0.6631698917854777,0.03688691925466802,-173.84895246212767,0.19210592097678367,83.24115149285554,0
1767379831.7262871,2,right_wrist,0.001,0.0,-0.9697,5.46,-2.31,-0.35,-0.0005746440507021242,0.5949607003530599,-0.8037544675033239,0.00043679292570184713,-179.92059204074346,0.023147277598788103,-106.98030072832013,0
1767379831.788173,1,left_wrist,-0.0112,-0.1264,-0.9892,6.23,0.21,-1.05,0.04602429576608969,-0.7454968987046854,-0.6630593783279156,0.04968298534035375,-172.26919762012332,0.747349587854948,83.35152373829246,0
1767379831.788173,2,right_wrist,0.001,0.0,-0.9697,5.46,-2.31,-0.35,0.0021552285083747073,0.5950834666076674,-0.8036602590055135,0.0011003887806807443,179.95436887353475,-0.2735190205166407,-106.96247769825916,0
1767379831.843861,1,left_wrist,0.0073,-0.1215,-0.9892,-2.59,-3.71,-0.63,0.04496337518055708,-0.7452535649026313,-0.6637247591789477,0.04522016082611455,-172.70087316566213,0.4420047337024861,83.40487784749378,0
1767379831.843861,2,right_wrist,0.0234,-0.0132,-0.9667,-0.28,-6.16,-0.21,0.001516130013999574,0.5951448563190722,-0.8036061060964684,0.004186596613360007,-179.7178600714454,-0.4251389033557009,-106.9542869384381,0
1767379831.9215639,1,left_wrist,0.0073,-0.1215,-0.9892,-2.59,-3.71,-0.63,0.04498434310016583,-0.7449371586464583,-0.6643483896847904,0.041064043478619625,-173.01654069486122,0.08077057145838198,83.45923839730976,0
1767379831.9215639,2,right_wrist,-0.0005,-0.0034,-0.9389,-1.26,2.59,-0.21,-0.00043193393601914496,0.5954912390025804,-0.8033598258743686,0.0017285471792092934,-179.81139802262547,-0.07819000808037611,-106.90467518916016,0
1767379831.9956968,1,left_wrist,-0.0034,-0.144,-0.9711,-0.7,-2.52,-0.84,0.05035802817549369,-0.7438957361028763,-0.6645966931083858,0.04893299822853962,-171.9541170683754,0.336129880632185,83.5788639739913,0
1767379831.9956968,2,right_wrist,-0.0005,-0.0034,-0.9389,-1.26,2.59,-0.21,-0.0036635665963057353,0.5955529949352859,-0.8033076163866946,-0.00028628400790006335,-179.7763268182222,0.35677948624367695,-106.8946021864059,0
1767379832.06815,1,left_wrist,-0.0142,-0.1269,-0.9872,-1.54,0.7,-1.4,0.04517829646846039,-0.7438754373431109,-0.6650932471420623,0.04753133547283267,-172.50457963436523,0.6084482747507928,83.63915759503655,0
1767379832.06815,2,right_wrist,0.0102,0.0044,-0.9511,1.89,-0.91,-0.63,0.0025591024284210744,0.5959035148851642,-0.8030519417060951,-0.00017568249249041193,179.8090817470959,-0.22350021390007443,-106.84521095852776,0
1767379832.136574,1,left_wrist,0.0059,-0.1308,-0.9926,0.98,1.19,-1.47,0.04502123748430608,-0.7431450008844328,-0.6660952998600751,0.04500719209387297,-172.71090571582482,0.3963106330691409,83.76622315871153,0
1767379832.136574,2,right_wrist,0.0078,0.0088,-0.974,0.35,0.35,-0.49,0.007354906823212532,0.596063282856928,-0.8029024097935847,-0.0014793657757079621,179.36147602884498,-0.5756577221337367,-106.8174616326805,0
1767379832.1913369,1,left_wrist,0.0063,-0.1405,-0.9872,0.56,-2.52,-0.84,0.04944908453767611,-0.7425167135237859,-0.6664231587808888,0.04586819831565564,-172.26629445161691,0.12649643586670717,83.82573417764547,0
1767379832.1913369,2,right_wrist,0.0078,0.0088,-0.974,0.35,0.35,-0.49,0.0024537508559055237,0.5962521863711737,-0.8027933135836633,-0.0004527910051816146,179.79069089448828,-0.1947919484200902,-106.79548086537542,0
1767379832.264749,1,left_wrist,-0.0034,-0.121,-0.9814,1.33,1.12,-1.19,0.04623493035503903,-0.7424306771564226,-0.6669444925770331,0.04294257390148576,-172.76534049586482,0.1198344457667801,83.87590651181104,0
1767379832.264749,2,right_wrist,0.0112,0.0034,-0.9853,2.1,-4.13,-0.63,-0.0010423370195174104,0.5966050011893764,-0.8025320181125865,0.0019354569229583852,-179.750747668065,-0.03646240033058071,-106.74560594976839,0
1767379832.3265212,1,left_wrist,-0.0034,-0.121,-0.9814,1.33,1.12,-1.19,0.042399353045800635,-0.7423655571239046,-0.6673856796773465,0.04113428033913359,-173.2315206837413,0.2566804378572185,83.92618042301926,0
1767379832.3265212,2,right_wrist,0.0112,0.0034,-0.9853,2.1,-4.13,-0.63,0.001964870830045105,0.5968362639063365,-0.8023589553612532,0.001649278795592874,-179.9827414313014,-0.2934566408814518,-106.71247135212673,0
1767379832.387769,1,left_wrist,-0.0146,-0.1322,-0.9755,2.87,-0.63,-1.05,0.04622091386172568,-0.7412332874690999,-0.6676060514260873,0.05233546377750127,-172.0437252320087,0.9093710236725348,84.08002524481289,0
1767379832.387769,2,right_wrist,0.0161,-0.0005,-0.9692,1.33,-3.92,-0.63,0.00420156103126388,0.5970501809199522,-0.8021821427818099,0.004151885154580844,-179.90579634400504,-0.6702958121209803,-106.68121661134974,0
1767379832.438638,1,left_wrist,-0.0146,-0.1322,-0.9755,2.87,-0.63,-1.05,0.04423437988874475,-0.7410745461303205,-0.6681512617849436,0.049251681075732114,-172.45009121915365,0.7957391062658924,84.12801313274016,0
1767379832.438638,2,right_wrist,0.0068,0.001,-0.9677,1.05,-2.8,-0.49,0.0009533256874631098,0.5972433822736196,-0.8020591009011694,-0.0007950862270765808,179.861679396454,-0.033204459523354456,-106.6544471575855,0
1767379832.490935,1,left_wrist,0.0054,-0.1274,-0.9784,2.59,-1.96,-0.84,0.047404589331691775,-0.7405688781206784,-0.668687635480473,0.04655521265022332,-172.38727306480814,0.3183918620214038,84.1813296930583,0
1767379832.490935,2,right_wrist,0.0034,0.0005,-0.9623,1.47,-3.01,-0.49,0.0012799687593958431,0.5974050999027938,-0.8019304525574064,0.0036135233749532494,-179.75555508234262,-0.3649975796072872,-106.63159774764628,0
1767379832.543993,1,left_wrist,-0.0059,-0.1508,-0.995,0.63,-3.92,-0.56,0.05007932626598946,-0.7400520606050262,-0.6687124365322006,0.05136814092574124,-171.7883895609957,0.5186977847481724,84.2392870249147,0
1767379832.543993,2,right_wrist,0.0142,-0.0005,-0.9721,0.56,-4.76,-0.49,0.004356120726796473,0.5975886014586067,-0.8017828578677598,0.003624423867015608,-179.96529568888457,-0.6484390387308643,-106.60404813658162,0
1767379832.613386,1,left_wrist,-0.0059,-0.1508,-0.995,0.63,-3.92,-0.56,0.0538562720454235,-0.7394334684291335,-0.6688692875039145,0.05432792985414486,-171.23813406408394,0.47545537990242204,84.29951778026394,0
1767379832.613386,2,right_wrist,0.0117,0.0073,-0.9755,1.75,-3.64,-0.63,0.005325098885538989,0.5980190258525276,-0.8014642041837228,0.00013210755073586437,179.64719931472686,-0.49812191291833885,-106.54094897965336,0
1767379832.671766,1,left_wrist,-0.0059,-0.1283,-0.997,1.75,0.0,-1.19,0.05112371927146228,-0.7393086180076347,-0.6694718035592593,0.05115307328603593,-171.7155748091737,0.41161864064706777,84.35386265267871,0
1767379832.671766,2,right_wrist,0.0034,0.002,-0.9648,1.19,-4.13,-0.63,-0.0014274722468456428,0.5982433818784206,-0.8013130873858917,-0.00039286861020742923,-179.93821598765456,0.15800858038793816,-106.5114361178613,0
1767379832.7373319,1,left_wrist,0.0181,-0.1371,-0.9872,0.0,-3.5,-0.84,0.05390400414260973,-0.7383297744097415,-0.6707994574799822,0.0446272383417976,-171.98267155068885,-0.3677449338110054,84.48680569847286,0
1767379832.7373319,2,right_wrist,0.0073,-0.0005,-0.9648,0.91,-3.78,-0.63,0.0011759354317245816,0.5984651386048301,-0.8011461634132453,0.0017087711372605681,-179.923770897563,-0.22514275389697377,-106.47986520506157,0
1767379832.820384,1,left_wrist,0.0161,-0.1425,-0.9853,1.82,0.49,-1.47,0.05909813274396427,-0.7375362610962588,-0.6713596155643092,0.042707620674427835,-171.68949017214982,-0.9371349763277251,84.5534373295856,0
1767379832.820384,2,right_wrist,0.0112,-0.0078,-0.9594,-0.49,-0.49,-0.49,0.0025421688324868833,0.5988222292881089,-0.800865860014534,0.004398789745778775,-179.77074515573506,-0.5351537203712974,-106.42877979642701,0
1767379832.896539,1,left_wrist,0.0146,-0.1352,-1.0033,0.14,-6.44,-0.28,0.05351555074347662,-0.7372187713753786,-0.6723525809459333,0.03983184474439999,-172.3871307652361,-0.7582211934898896,84.67995250711746,0
1767379832.896539,2,right_wrist,0.0112,0.0024,-0.9858,0.56,-4.34,-0.63,0.00493661927933172,0.5990668904184266,-0.8006835848254706,0.0005362700077326572,179.71030271827243,-0.48976245264544616,-106.39150921623268,0
1767379832.971932,1,left_wrist,-0.0264,-0.1327,-0.9999,-1.19,-5.32,-0.56,0.04813638937734114,-0.7372231613581611,-0.6724424876408548,0.04478838231249899,-172.46048916921868,0.07449363081471251,84.74259710904983,0
1767379832.971932,2,right_wrist,0.0093,0.0127,-0.9784,2.73,-7.91,-0.63,0.004091827794832335,0.5994973947694431,-0.8003498955189655,-0.005116185368911917,179.24965833799925,-0.02380687242777315,-106.33018282626301,0
1767379833.040249,1,left_wrist,-0.0107,-0.124,-0.9526,1.61,-4.06,-0.63,0.04477490580189336,-0.7367938457443001,-0.6729785051398187,0.04722254020625249,-172.55670610648338,0.5340878028721306,84.85113025732585,0
1767379833.040249,2,right_wrist,0.0093,0.0127,-0.9784,2.73,-7.91,-0.63,0.004576896787384893,0.5996768407522931,-0.8002228419656426,-0.0031846314663945227,179.3934433590917,-0.20085507716000112,-106.30408877256869,0
1767379833.114215,1,left_wrist,-0.0107,-0.124,-0.9526,1.61,-4.06,-0.63,0.03993500518685945,-0.7367366890020443,-0.6730156901006054,0.05171196493498065,-172.61814982546892,1.285964686070542,84.9069275697819,0
1767379833.114215,2,right_wrist,0.0054,-0.001,-0.955,0.0,0.7,-0.56,0.004056690233800764,0.6000728280016716,-0.7999268239843136,0.0036360182606989997,-179.9456530089638,-0.6218927057907497,-106.24879188901271,0
1767379833.1723762,1,left_wrist,0.0107,-0.1366,-0.9721,0.28,0.07,-0.91,0.04439858738632833,-0.7362046745248868,-0.6734995288263436,0.04929327861379444,-172.4274408609471,0.7319751502694875,84.95464533768698,0
1767379833.1723762,2,right_wrist,0.0054,-0.001,-0.955,0.0,0.7,-0.56,0.0002462648666907146,0.6002744842931088,-0.7997935251317514,0.0008944370208357181,-179.9349648033936,-0.08409519635485056,-106.22089338523918,0
1767379833.241463,1,left_wrist,-0.0088,-0.1401,-0.9789,-1.05,-0.07,-1.33,0.052271696058043195,-0.7348951208098978,-0.6744034652496806,0.048752407737916933,-171.80247902787715,0.06596964381918172,85.08910419012695,0
1767379833.241463,2,right_wrist,0.0107,-0.0034,-0.9643,0.42,-2.31,-0.56,0.002488055154771261,0.6004647812712172,-0.7996357038984985,0.004312433791841271,-179.77603383741004,-0.524722352744388,-106.1935742669476,0
1767379833.3254,1,left_wrist,-0.0181,-0.1357,-0.9892,-1.47,1.05,-1.33,0.04764986148689773,-0.7348713999832116,-0.6746713579953143,0.05012060342566354,-172.08701899951802,0.5367777760911,85.14601710344864,0
1767379833.3254,2,right_wrist,0.0137,0.0039,-0.9706,0.63,-2.1,-0.49,0.006290038893579832,0.6008716354162603,-0.7993203662329323,0.0008156519827826592,179.64158629958777,-0.6323128238757035,-106.13159056777482,0
1767379833.391364,1,left_wrist,0.0039,-0.1327,-0.9906,-0.35,1.82,-1.4,0.05168853083513491,-0.7339149431638321,-0.6761332733377723,0.039254919010027735,-172.5903391737475,-0.7034452789528637,85.26128498442228,0
1767379833.391364,2,right_wrist,0.0137,0.0039,-0.9706,0.63,-2.1,-0.49,0.006858886716079227,0.6010080012531501,-0.7991962426386724,0.005263445158612772,-179.99034080262416,-0.9906898562256731,-106.11261362428945,0
1767379833.467019,1,left_wrist,-0.022,-0.1264,-0.997,1.4,2.8,-1.61,0.049283240242174196,-0.7337118618586338,-0.6763636741307301,0.042074295187781795,-172.574553290488,-0.2822383160913888,85.32378004544954,0
1767379833.467019,2,right_wrist,0.0083,0.001,-0.9716,1.82,-2.38,-0.7,0.005562751276223016,0.6015234513299469,-0.7988304874995336,0.0029061210583228875,179.88257728047813,-0.7095456106112531,-106.03940366625062,0
1767379833.5388741,1,left_wrist,-0.0093,-0.1337,-0.9843,-0.56,-3.29,-0.91,0.045231908448269846,-0.7331939202745673,-0.6766255311757724,0.05058300398001874,-172.2535028606854,0.7428132528737584,85.45482115107201,0
1767379833.5388741,2,right_wrist,0.0073,-0.0005,-0.9662,0.28,-0.91,-0.56,0.00023452257822518488,0.6017215503781754,-0.7987034432358879,0.001982567219990086,-179.83471617514058,-0.15816719551132685,-106.01346737144702,0
1767379833.619435,1,left_wrist,-0.0093,-0.1337,-0.9843,-0.56,-3.29,-0.91,0.047283396767829874,-0.7326682698171528,-0.6772699841018207,0.04761150520573121,-172.31192295681407,0.3277123047048187,85.5218849208141,0
1767379833.619435,2,right_wrist,-0.002,-0.0005,-0.957,1.4,-3.43,-0.63,-0.0038594891254584546,0.6021661690075065,-0.7983613882258213,-0.00032099322924929174,-179.76304351523436,0.3752394299276237,-105.94818366056111,0
1767379833.689434,1,left_wrist,-0.0024,-0.1357,-0.9814,-0.07,-3.29,-0.63,0.04686191907550365,-0.7319231381101257,-0.6779826951765653,0.04931475925833211,-172.21403855910276,0.49539042719842785,85.65178321236306,0
1767379833.689434,2,right_wrist,-0.002,0.0024,-0.956,0.84,17.43,-0.56,0.006715049906586378,0.6023298318359446,-0.798213750841997,0.002913717897315701,179.80300764032535,-0.8153538396538077,-105.92239683135575,0
1767379833.77422,1,left_wrist,-0.0078,-0.1386,-0.9736,1.61,-1.12,-0.98,0.05109244618857083,-0.7312778021966424,-0.678095611180842,0.05299698155741271,-171.56979453440624,0.47097118791351517,85.71269094488918,0
1767379833.77422,2,right_wrist,0.001,-0.0044,-0.9784,0.77,-1.61,-0.49,-0.00477106829760625,0.6026642827381804,-0.7979786720704367,0.001743026011381284,-179.5111103940201,0.3159020210685841,-105.87563156328994,0
1767379833.8415308,1,left_wrist,0.0024,-0.144,-0.9843,-0.14,-3.22,-0.7,0.055207417257153626,-0.7302896187921358,-0.6792738667624708,0.04707682760968972,-171.686245587657,-0.35766977189568483,85.82844917306822,0
1767379833.8415308,2,right_wrist,0.0034,0.0049,-0.9755,0.84,-5.95,-0.63,-0.002345962793135698,0.6028975953951976,-0.797814252083973,-0.0011853678553086825,-179.94629342331845,0.29636923933829895,-105.84415052046367,0
1767379833.916209,1,left_wrist,-0.0024,-0.1322,-0.9897,2.8,0.35,-1.4,0.051321411027102214,-0.7301637939159438,-0.6797130684368805,0.04708600026104535,-172.01255626349382,-0.05767865968555878,85.89720263063379,0
1767379833.916209,2,right_wrist,0.0142,0.0054,-0.9672,0.77,-4.41,-0.63,0.00299231645977599,0.6033006855045911,-0.7975081995952229,-2.21422906595976e-05,179.79110534042928,-0.27193119688785167,-105.78579738300692,0
1767379833.967259,1,left_wrist,-0.0024,-0.1322,-0.9897,2.8,0.35,-1.4,0.04757796306711242,-0.7300201330881069,-0.6801843747771038,0.04643445946156255,-172.37815170928576,0.17604765744195394,85.96381626014252,0
1767379833.967259,2,right_wrist,0.0102,0.0098,-0.9667,1.19,-3.15,-0.56,0.006489244268090321,0.6034861480841758,-0.7973458471158651,-0.0013995950974325054,179.42332898073553,-0.4961344474288003,-105.75562262755277,0
1767379834.019404,1,left_wrist,-0.0205,-0.1269,-0.997,-0.21,-2.45,-1.05,0.04234809124633887,-0.7299435267106469,-0.680405708097956,0.04936759431787291,-172.58721507549717,0.827571530321149,86.03029253980371,0
1767379834.019404,2,right_wrist,0.0102,0.0098,-0.9667,1.19,-3.15,-0.56,0.009178630355893612,0.6036454067919416,-0.7971993986003586,0.001046171595827137,179.46058371708006,-0.910894046852365,-105.7291509596657,0
1767379834.090107,1,left_wrist,0.0044,-0.1449,-0.9941,0.7,-5.6,-0.42,0.04579446436668239,-0.7289991851373046,-0.6808691528892913,0.053667976916720046,-171.95981230469798,0.9103391246302561,86.15357554259987,0
1767379834.090107,2,right_wrist,0.0083,-0.002,-0.9609,0.28,0.91,-0.42,0.0047412087325129065,0.6037929824860069,-0.7971208799132311,0.0031397526596248534,179.95875054788894,-0.6503298961495626,-105.71429098496789,0
1767379834.1463199,1,left_wrist,-0.0249,-0.1254,-0.9838,0.14,0.63,-1.26,0.041149523187081184,-0.728979579616738,-0.6812608603665335,0.05271744849601871,-172.4234035602873,1.1914236966185796,86.20290335981817,0
1767379834.1463199,2,right_wrist,0.001,0.0059,-0.9653,1.68,-2.73,-0.63,0.0012165174163825932,0.6040354198595271,-0.7969550966572687,-0.0015184045916430528,179.77712803476453,-0.005997676388506711,-105.68089730429472,0
1767379834.220373,1,left_wrist,-0.0249,-0.1254,-0.9838,0.14,0.63,-1.26,0.03645816468573759,-0.7289411769179236,-0.6816153062953412,0.052116571694308264,-172.86304290760975,1.5058459358852585,86.25067018308913,0
1767379834.220373,2,right_wrist,0.0029,0.0029,-0.9628,0.21,-0.91,-0.42,0.001446846002415137,0.60438769184924,-0.7966890332640152,9.409910960331608e-05,179.90838509509507,-0.13860535082123954,-105.6302107968051,0
1767379834.2952871,1,left_wrist,-0.002,-0.1371,-0.977,-0.7,-2.31,-0.91,0.04424941126257523,-0.7277303142520009,-0.6825770878286277,0.05038946807607205,-172.34523235960407,0.7410051046377294,86.3819963847313,0
1767379834.2952871,2,right_wrist,0.0088,0.0034,-0.9711,1.26,-1.4,-0.56,0.005289280447439673,0.6045717618235092,-0.7965306793028261,0.0019711030781530974,179.81346745872477,-0.6193504934370484,-105.60154125705068,0
1767379834.363389,1,left_wrist,-0.0151,-0.1357,-0.9799,-0.63,0.49,-1.33,0.04563947350124917,-0.7272236224949618,-0.6826884741965784,0.05476576068112254,-171.88402063258732,0.9934912602062161,86.4520627600192,0
1767379834.363389,2,right_wrist,0.0112,0.0049,-0.9697,0.56,-2.73,-0.7,0.005019304909641234,0.6050448716449489,-0.7961749351477785,0.00099121985561009,179.74241847801102,-0.5266676151805729,-105.53353464845426,0
1767379834.417542,1,left_wrist,-0.0059,-0.1381,-0.9921,0.98,-0.77,-0.98,0.048005426884171296,-0.7267642612171713,-0.6833184705921892,0.05084343964248538,-171.99459177868528,0.47535415504772216,86.5037206127273,0
1767379834.417542,2,right_wrist,0.0093,0.001,-0.9658,0.77,-2.87,-0.56,0.0013165483972278518,0.6052194540889753,-0.7960429429832261,0.004828252185320271,-179.65086125958968,-0.4549540356033908,-105.51102460803027,0
1767379834.491112,1,left_wrist,-0.0073,-0.1293,-0.9799,0.91,1.33,-1.4,0.04735401878110413,-0.7260876871640675,-0.6843938032204704,0.04646923248165724,-172.39324104255945,0.1526293218663896,86.62380213606153,0
1767379834.491112,2,right_wrist,0.0098,0.0063,-0.9706,0.98,-1.05,-0.56,0.004349024644440669,0.6054352277199457,-0.7958813249928929,0.0014790361377724204,179.83315780506712,-0.49925516414904797,-105.47801929065182,0
1767379834.541302,1,left_wrist,0.0078,-0.1318,-0.9965,1.89,-3.64,-0.7,0.04984052535681652,-0.7255699680693495,-0.6849191897000093,0.04415707246503252,-172.36772082106847,-0.24037788106672128,86.68231221638553,0
1767379834.541302,2,right_wrist,0.0127,0.0024,-0.9882,1.05,-3.92,-0.56,0.006311806371793806,0.6056103272642945,-0.7957248353766085,0.00427539191518414,179.95181328989185,-0.8722682677029405,-105.45155212865373,0
1767379834.5923882,1,left_wrist,-0.0146,-0.142,-0.9765,-1.54,-3.08,-0.7,0.04734197729989392,-0.7254059337318279,-0.6849045329680626,0.049505042286529424,-172.15462898803654,0.3995286073180331,86.73745149757502,0
1767379834.5923882,2,right_wrist,0.0171,0.0024,-0.9594,0.63,-1.89,-0.56,0.010472854934383184,0.6057995580165613,-0.7955361949218539,0.004401975206695492,179.67419058327556,-1.2604082455537415,-105.41798638234398,0
1767379834.652395,1,left_wrist,-0.0171,-0.1308,-0.9853,2.94,1.82,-1.54,0.044191252163573724,-0.7252324387007992,-0.685148236465261,0.051545486289779306,-172.25617952624827,0.8141889966282195,86.79919395327148,0
1767379834.652395,2,right_wrist,0.0171,0.0024,-0.9594,0.63,-1.89,-0.56,0.004652665309246558,0.6060043142961296,-0.7954370745042079,0.004121196935969102,-179.94744225003768,-0.7102985719292835,-105.39634697255028,0
1767379834.7193012,1,left_wrist,-0.0029,-0.1484,-0.9916,-2.45,-4.76,-0.21,0.04694889081648499,-0.724769338731369,-0.6853749730615307,0.05259613661574382,-171.94287871490684,0.6809732061615561,86.84751593138463,0
1767379834.7193012,2,right_wrist,0.0083,0.0054,-0.9521,0.21,-4.9,-0.49,0.0015175993317887168,0.6064028402639251,-0.7951521847692519,0.0025090374246984084,-179.87683620483415,-0.31263137079923226,-105.34024649674106,0
1767379834.7977889,1,left_wrist,-0.0059,-0.1303,-1.0009,0.77,0.35,-0.98,0.04454964346503236,-0.7242923869569443,-0.6863604874323527,0.048219796297515445,-172.48815215196174,0.4982637122707812,86.95213036638478,0
1767379834.7977889,2,right_wrist,0.0054,0.0024,-0.978,0.91,0.0,-0.56,0.004365241274648053,0.6066053370575801,-0.7949903657389255,-0.0011081986117990777,179.59559831682287,-0.3206386607812091,-105.30908285086825,0
1767379834.8723252,1,left_wrist,-0.002,-0.1347,-0.9755,0.28,-0.14,-1.19,0.04957945745381665,-0.7235940266238874,-0.6867690591733513,0.0479773008303305,-172.08814013543073,0.07636967535602361,87.0139438453016,0
1767379834.8723252,2,right_wrist,0.0137,0.0049,-0.9648,1.19,-1.82,-0.49,0.0025724393737598956,0.6069936595485946,-0.7947001526378584,0.0019357739634304515,179.99735350749023,-0.3689095023471554,-105.2546559289798,0
1767379834.945837,1,left_wrist,-0.0117,-0.1332,-0.9823,0.42,-2.73,-0.77,0.045313021514734084,-0.7232123617492304,-0.6874938205958026,0.04756949166106379,-172.4753857340756,0.37247356263128345,87.12369896217744,0
1767379834.945837,2,right_wrist,0.0054,0.001,-0.9736,1.26,-2.52,-0.63,0.0009366708257983088,0.6072226132277808,-0.7945244381750813,-0.0032768544612629753,179.6364766384494,0.14273221564226585,-105.22204494566668,0
1767379835.021369,1,left_wrist,-0.0049,-0.1274,-0.9765,0.0,-1.61,-1.19,0.04461831080501171,-0.7228462309593092,-0.6882189458423861,0.04309542101457438,-172.8872339417969,0.05090109873750738,87.19167159232659,0
1767379835.021369,2,right_wrist,-0.0005,0.0044,-0.9658,2.38,-4.34,-0.56,-0.00030087875645490303,0.6075999591385277,-0.7942312219778973,-0.00435490095518383,179.62459090641187,0.33059904888318564,-105.16791587765424,0
1767379835.086427,1,left_wrist,-0.0215,-0.1322,-0.9701,1.4,-0.63,-1.33,0.04192524818638069,-0.722194525497669,-0.6882816135615211,0.05427486839096032,-172.2241423728765,1.1850340128320067,87.32587766569031,0
1767379835.086427,2,right_wrist,-0.0005,0.0044,-0.9658,2.38,-4.34,-0.56,0.00019581640272398523,0.607784331765458,-0.7941019977213042,-0.00043003649369663914,179.94722977855113,0.012131951267831167,-105.14106064285866,0
1767379835.14155,1,left_wrist,-0.02,-0.1274,-0.9814,-0.63,2.52,-1.4,0.039195809156273985,-0.7220984538815655,-0.6888955329566191,0.04960298497926467,-172.8210664842172,1.0103397785381951,87.36735722173802,0
1767379835.14155,2,right_wrist,-0.0015,0.0024,-0.956,1.54,-2.31,-0.56,-0.0012805175259671144,0.607969162365275,-0.7939405436834639,-0.005501907245424237,179.5886346961167,0.49981400749573124,-105.1147849925701,0
1767379835.213762,1,left_wrist,-0.0059,-0.1313,-0.9955,-0.28,0.91,-1.54,0.04410147902044784,-0.7213702951695341,-0.6895090050842558,0.0475109324571509,-172.5795645753821,0.44285591661395424,87.4413847432467,0
1767379835.213762,2,right_wrist,0.0034,0.001,-0.9687,1.47,-0.35,-0.63,-6.819060395769948e-05,0.6083995818462262,-0.793630501054406,0.000756277403478543,-179.92646747465434,-0.046524259763810076,-105.05226041007298,0
1767379835.268613,1,left_wrist,0.0073,-0.1308,-0.9814,1.4,-3.57,-0.63,0.0475624869241619,-0.7208210652707377,-0.6899438032412262,0.046177376155212044,-172.39818830147692,0.0538789366303064,87.49592648028141,0
1767379835.268613,2,right_wrist,0.0034,0.001,-0.9687,1.47,-0.35,-0.63,0.0044129483393163995,0.60861499315974,-0.7934529052558035,0.0008961747872036839,179.77370643951716,-0.46374473745969397,-105.0193426649704,0
1767379835.324236,1,left_wrist,-0.0185,-0.1347,-0.9804,0.07,-1.19,-1.26,0.044647975197799665,-0.7205763675552956,-0.6900695081104825,0.0507969566776277,-172.2725792009037,0.6638300298010162,87.56704385405946,0
1767379835.324236,2,right_wrist,0.0068,0.0024,-0.9638,0.7,-1.82,-0.56,-0.0011822008000674112,0.6088044187018237,-0.7933166329476508,0.0021218056001874592,-179.7246361859569,-0.040554536743058985,-104.99362850745673,0
1767379835.388244,1,left_wrist,0.0073,-0.1347,-0.9823,0.56,-3.92,-0.7,0.050147642965031006,-0.7195355798098114,-0.6909626352962387,0.048212030835541854,-172.0220812380627,0.004597874474930371,87.67931768822251,0
1767379835.388244,2,right_wrist,0.0068,0.0024,-0.9638,0.7,-1.82,-0.56,0.0029024472683756722,0.6090061546204096,-0.7931596900104608,0.0008863277191448026,179.8780027515391,-0.32565758121219346,-104.96389589924466,0
1767379835.438873,1,left_wrist,-0.02,-0.1327,-0.9911,0.56,0.28,-1.26,0.04607380377215167,-0.7194451333398388,-0.6911635127370348,0.05068435045050679,-172.162538725098,0.5294293840644166,87.73910198089615,0
1767379835.438873,2,right_wrist,0.0083,0.0029,-0.9677,0.91,-2.03,-0.49,0.006631496559593371,0.6091626688717294,-0.7930138196279733,0.002438849217158632,179.75869116704519,-0.7728889957465265,-104.93820895408119,0
1767379835.495539,1,left_wrist,-0.02,-0.1327,-0.9911,0.56,0.28,-1.26,0.04192605932782288,-0.7193452107854202,-0.6913565036937644,0.05301752606123163,-172.3194926918303,1.048806210798117,87.79717415519613,0
1767379835.495539,2,right_wrist,0.0083,0.0034,-0.975,1.47,-3.85,-0.63,0.0005473304088889122,0.609400689908203,-0.7928620489811947,-0.0005204365201481477,179.914494277685,-0.013384653463931426,-104.9076017957959,0
1767379835.549817,1,left_wrist,-0.0171,-0.1347,-0.9853,0.42,2.03,-1.33,0.04754653455822546,-0.7186362999317922,-0.6916886532769385,0.05355373376135299,-171.81144157522755,0.6415265875566539,87.85664064526344,0
1767379835.549817,2,right_wrist,0.0005,-0.002,-0.9618,0.35,-1.89,-0.56,-0.002920271959359621,0.6095875037056708,-0.7927065683342737,0.00329300125596717,-179.49687404018024,0.035242217733242334,-104.8796261947361,0
1767379835.613371,1,left_wrist,-0.0132,-0.1347,-0.9809,-0.21,-1.96,-0.98,0.042452940800967724,-0.7186201612901176,-0.6921593924927127,0.05194407558936356,-172.36053992150823,0.9103374036916252,87.91173815741885,0
1767379835.613371,2,right_wrist,0.0146,0.0083,-0.9682,0.77,-2.38,-0.49,0.0055453832573254935,0.609946124942252,-0.7924225230064813,0.0012322436864441037,179.72428536446122,-0.5896858365801855,-104.825942904121,0
1767379835.691333,1,left_wrist,0.0098,-0.1362,-0.9975,0.7,-1.05,-0.7,0.046142676985404404,-0.7178099307070803,-0.6931853832981385,0.0459758754210283,-172.53137722936222,0.11648362814202694,88.00796541376981,0
1767379835.691333,2,right_wrist,0.0127,0.0024,-0.974,0.07,-2.45,-0.7,0.005709618391131368,0.6101564209920136,-0.7922413411299685,0.005495414873623955,-179.9003004248071,-0.9026129818224031,-104.79638599225017,0
1767379835.7633128,1,left_wrist,-0.0073,-0.1396,-0.9862,-0.84,-4.13,-0.7,0.046230944490027785,-0.7174118688919395,-0.693188923146988,0.051691652816037,-172.0676127831879,0.5772563363158504,88.0724420639713,0
1767379835.7633128,2,right_wrist,0.0117,0.0063,-0.9828,0.98,-1.4,-0.63,0.009164659158974338,0.6105979272817439,-0.7918791019778774,0.0036970356298524545,179.69417660809418,-1.0903706199524972,-104.7272762223228,0
1767379835.818115,1,left_wrist,-0.022,-0.1254,-0.9843,0.91,2.59,-1.4,0.04235931990976476,-0.7173669751297904,-0.693512808297532,0.051286408893463656,-172.4191884626996,0.8496639654495524,88.11904352979809,0
1767379835.818115,2,right_wrist,0.0078,0.0,-0.9672,0.56,-17.92,-0.56,-0.0020708571424787247,0.6107971253220569,-0.7917821545455148,-0.0018981549645827613,179.9727208631975,0.32074978892122075,-104.70540224521302,0
1767379835.8763561,1,left_wrist,-0.0024,-0.1381,-0.9882,0.84,1.12,-1.26,0.04772173662382455,-0.71668156694988,-0.6939946594538734,0.04961431343244815,-172.1101919914454,0.2794937639928726,88.1765379902589,0
1767379835.8763561,2,right_wrist,0.0078,0.0,-0.9672,0.56,-17.92,-0.56,-0.004561624961488412,0.6109807611252938,-0.7916254643189796,-0.003290190606521605,-179.97908956593983,0.6441718730730651,-104.67757913989247,0
1767379835.937278,1,left_wrist,-0.0171,-0.1381,-0.977,0.91,1.26,-1.26,0.04557683596541336,-0.7161150486866762,-0.694331431834972,0.05482564941574828,-171.86955553352243,0.8727679727092165,88.29236282232263,0
1767379835.937278,2,right_wrist,0.0093,0.0005,-0.9716,0.77,-3.01,-0.63,-0.0017239601096133374,0.611205319407155,-0.7914696464381862,-0.00094034937696101,-179.96454102316352,0.22221749840966085,-104.64634756657281,0
1767379835.997343,1,left_wrist,-0.002,-0.1342,-0.9814,-1.68,-0.14,-1.19,0.04671906464411221,-0.7156907234511264,-0.6950819117075416,0.04965131802653215,-172.18940274629935,0.35081404585374365,88.3500944279976,0
1767379835.997343,2,right_wrist,0.0093,0.0005,-0.9716,0.77,-3.01,-0.63,0.0012308853391123473,0.6114235020008069,-0.7913016226104123,0.001236194353581966,-179.97414679999565,-0.1982254403634624,-104.61490449410937,0
1767379836.088491,1,left_wrist,-0.0083,-0.1313,-0.9911,-0.28,-1.68,-1.05,0.0414582907812311,-0.715656144223428,-0.6955347165919691,0.048465981637474904,-172.7171340363805,0.6702953539501182,88.40886854700054,0
1767379836.088491,2,right_wrist,0.0142,0.0039,-0.9677,1.4,-4.2,-0.63,0.007247920806182223,0.6118699819009308,-0.7909193827669527,0.0030204066091425005,179.76553101055057,-0.8687080247226348,-104.54581359732332,0
1767379836.1654882,1,left_wrist,-0.0151,-0.122,-0.9936,2.52,0.56,-1.19,0.040496967127031824,-0.7150276655569444,-0.6961363819736011,0.0498955993490742,-172.68088803517108,0.8577867321014394,88.52091555428896,0
1767379836.1654882,2,right_wrist,0.0059,0.002,-0.9614,1.4,-0.77,-0.56,0.0016900881461376512,0.6122772851995287,-0.7906338131067498,0.0034413955068199635,-179.80678439354966,-0.3945795726031712,-104.49131651194052,0
1767379836.220372,1,left_wrist,-0.0151,-0.122,-0.9936,2.52,0.56,-1.19,0.037866006938696774,-0.7148851702444985,-0.6966267587135881,0.047079910017050204,-173.12251982196466,0.8340561368309938,88.56791877416397,0
1767379836.220372,2,right_wrist,0.0059,0.002,-0.9614,1.4,-0.77,-0.56,0.003545471022138202,0.6124856755938068,-0.790473496311179,-0.0006151887593810821,179.6954288803539,-0.2779780475072066,-104.45978366694497,0
1767379836.2904031,1,left_wrist,-0.0322,-0.1405,-0.9448,0.21,1.05,-1.82,0.04179098479086153,-0.7137230807501321,-0.6970921342080512,0.05399475919026638,-172.24387222586518,1.0778131179598622,88.72230192642805,0
1767379836.2904031,2,right_wrist,-0.0024,0.002,-0.9692,1.12,-5.6,-0.56,-0.0035402816516487477,0.6126778301753013,-0.7903194314997475,-0.0029221586930734613,179.98391218968598,0.5257872832369861,-104.43237702808509,0
1767379836.368494,1,left_wrist,-0.0322,-0.1405,-0.9448,0.21,1.05,-1.82,0.04179084046630946,-0.7131646175960552,-0.6972887905506957,0.058635283188025446,-171.8697210768834,1.4527554673980876,88.81348299982707,0
1767379836.368494,2,right_wrist,-0.0098,-0.001,-0.9633,1.12,-4.76,-0.63,-0.006079976205926535,0.6130499736057393,-0.7900125123799148,-0.0036047239162849045,-179.89920076794598,0.8036722180493796,-104.37634343138491,0
1767379836.422135,1,left_wrist,-0.0249,-0.1371,-0.9936,1.68,1.19,-1.47,0.03959515279756639,-0.7129809747707294,-0.6979069038115189,0.05492091679985896,-172.34800048998252,1.3206515350763943,88.86406201947598,0
1767379836.422135,2,right_wrist,0.0068,0.0005,-0.9731,0.07,4.62,-0.42,-0.00024992957974045803,0.6132089190946264,-0.7899206803039874,0.0002791166257046697,-179.95717265642634,0.003010061200663446,-104.3562083630475,0
1767379836.490242,1,left_wrist,-0.0166,-0.1357,-0.9862,0.21,-3.15,-0.7,0.042785988423215,-0.7121093365137142,-0.6984583386746809,0.056794376310080184,-171.93450966933463,1.2101281572845035,88.97637476121808,0
1767379836.490242,2,right_wrist,0.0068,0.0005,-0.9731,0.07,4.62,-0.42,0.005752099012550529,0.6133398374956546,-0.7897887378156322,0.0038609218257454453,179.9451421899388,-0.7919675041520822,-104.33470792607672,0
1767379836.5421948,1,left_wrist,-0.0195,-0.1337,-0.9828,1.89,2.45,-1.68,0.041636696215386244,-0.7118382870092419,-0.6991523716540473,0.05233163370788915,-172.3876337987585,0.9329615438826514,89.03182927901618,0
1767379836.5421948,2,right_wrist,0.0063,0.002,-0.9643,2.17,-5.11,-0.7,-2.7221379358527524e-05,0.6136060177281819,-0.7896122481572625,-0.0003896495760867875,179.96665741650878,0.029860918304583314,-104.29860041077004,0
1767379836.619926,1,left_wrist,-0.0195,-0.1337,-0.9828,1.89,2.45,-1.68,0.042171489896357536,-0.7113548722714023,-0.6992461392952101,0.05701445269755903,-171.9656757861498,1.2685470783346935,89.10545025530486,0
1767379836.619926,2,right_wrist,0.0029,-0.0034,-0.9662,0.7,-3.36,-0.56,-0.003576378258905421,0.6140234155945274,-0.7892741486609153,0.002961904077951116,-179.48046414980016,0.1150573876719979,-104.2365288789072,0
1767379836.692619,1,left_wrist,-0.0122,-0.1376,-0.9755,1.12,-2.94,-0.98,0.04628980466435928,-0.7102708116719675,-0.7005344014042102,0.051226755901823476,-172.09487692493107,0.4534743461744714,89.2405130903168,0
1767379836.692619,2,right_wrist,0.0029,-0.0034,-0.9662,0.7,-3.36,-0.56,3.015195541096229e-06,0.6142362924342885,-0.7891208569063796,0.0014318669033929112,-179.87073307737177,-0.10105651159175966,-104.2071248089207,0
1767379836.763264,1,left_wrist,-0.0093,-0.1327,-0.9984,-0.14,0.98,-1.19,0.04237288982475812,-0.710223825273181,-0.7010415604643498,0.04824299663099697,-172.65552721905644,0.5223349049296647,89.28795533343518,0
1767379836.763264,2,right_wrist,0.0098,0.001,-0.9701,0.98,-1.96,-0.63,0.007902384139651917,0.6146656314426581,-0.78874267773968,0.0029499423972752957,179.70997827438475,-0.9220636326904619,-104.1392323972938,0
1767379836.814888,1,left_wrist,-0.002,-0.1391,-0.9823,0.98,-2.73,-1.05,0.04664957618098771,-0.7095049535665652,-0.7013277244009681,0.050655314560272446,-172.11119453429177,0.3693948091167462,89.36130178805524,0
1767379836.814888,2,right_wrist,0.0078,-0.0005,-0.9672,0.63,-0.63,-0.7,0.002525409871209312,0.6149154182150218,-0.7885843285220403,0.002721682543940188,-179.93200379644642,-0.41999365174993963,-104.10808395638462,0
1767379836.867475,1,left_wrist,-0.0156,-0.142,-0.9804,0.49,-0.42,-1.33,0.04573586960580615,-0.7091196310593197,-0.7013885692285102,0.05578220176076097,-171.77096964548065,0.856906162356719,89.4335677077551,0
1767379836.867475,2,right_wrist,0.001,0.0005,-0.9726,0.63,-1.82,-0.7,-0.0012746003070013229,0.6151619197394821,-0.7883982475592536,-0.001546331785329037,179.9501477349663,0.2241573692601775,-104.07254477520002,0
1767379836.926313,1,left_wrist,-0.0044,-0.1332,-0.9902,0.07,0.98,-1.26,0.046221384306976476,-0.7087741482437331,-0.7021047897919265,0.05051390467339015,-172.15716567699388,0.38396417437651514,89.48463922102738,0
1767379836.926313,2,right_wrist,0.0049,-0.0024,-0.9711,0.0,-2.1,-0.63,0.0006210057684267786,0.6153790915867341,-0.7882281179210561,0.0021499089169663035,-179.8496014636971,-0.20769802281367145,-104.04110674599025,0
1767379836.988875,1,left_wrist,-0.0044,-0.1396,-0.975,-1.26,-3.36,-0.91,0.047251405013399396,-0.7079299301687785,-0.7026446863140308,0.053786276039017984,-171.8078441657782,0.558753400682902,89.61065581047922,0
1767379836.988875,2,right_wrist,0.0127,0.0039,-0.9643,0.63,-1.75,-0.56,0.004843263990876658,0.6155740825960562,-0.7880611778617143,0.002161383155812815,179.85353425403122,-0.5898452333212515,-104.0106951612925,0
1767379837.048376,1,left_wrist,-0.0181,-0.1288,-0.9721,0.07,2.45,-1.75,0.0431387988605622,-0.7077986521123742,-0.7031458939318888,0.05240194602779201,-172.25456973380898,0.7743367816623238,89.67454134641189,0
1767379837.048376,2,right_wrist,0.0044,0.1235,-0.9794,0.56,-3.43,-0.84,0.006382262426135321,0.6158768902895783,-0.7878121946274744,-0.002620826168434112,179.312944512975,-0.39120921401395836,-103.96419350058174,0
1767379837.116456,1,left_wrist,0.0059,-0.1362,-1.0067,-0.35,0.42,-1.33,0.04657679634096739,-0.7071924298287835,-0.7038177561273392,0.04847716364795117,-172.29247725501494,0.1720144341110276,89.73752240772563,0
1767379837.116456,2,right_wrist,0.0112,0.0005,-0.9697,1.26,-6.58,-0.84,0.003940654165962824,0.616421967147374,-0.7873965312731618,-0.0038900130975347376,179.3706397219752,-0.08078339696413764,-103.8875494959328,0
1767379837.190631,1,left_wrist,-0.0034,-0.1337,-0.9926,-0.35,-7.35,0.77,0.04476204353623256,-0.7068695194690906,-0.7040047202246353,0.05204993569093411,-172.15022251613178,0.6050344042345707,89.80883214991718,0
1767379837.190631,2,right_wrist,0.0063,0.0127,-0.977,-0.28,-2.52,-0.7,0.00794860085195659,0.6166252722952632,-0.7872099056721301,-0.0032646168174263307,179.1437954629641,-0.4863521374606616,-103.85283087306905,0
1767379837.245701,1,left_wrist,-0.0098,-0.124,-0.9833,2.66,-6.51,1.05,0.040265449423480995,-0.7072302828856619,-0.7039760518105941,0.05120292012531406,-172.58465841996895,0.9014537643234354,89.79416999759675,0
1767379837.245701,2,right_wrist,-0.0068,0.0132,-0.9711,1.75,-1.05,-0.14,0.0029277948050401028,0.616711251542002,-0.7871635427521269,-0.005676019820049711,179.2810820738064,0.13703008695126426,-103.8462919676829,0
1767379837.318951,1,left_wrist,-0.0098,-0.1376,-0.9721,3.5,-5.25,0.77,0.04443579326643495,-0.706957705605327,-0.7036793933333608,0.055421784164961685,-171.90328764381707,0.9067212487261864,89.79786487018522,0
1767379837.318951,2,right_wrist,0.0073,-0.0034,-0.9633,1.05,-1.61,-0.07,0.0012803006396168704,0.6165352714410278,-0.7873134720978154,0.004485148012340416,-179.68579466942572,-0.4323866915046814,-103.87308798949437,0
1767379837.390157,1,left_wrist,-0.0137,-0.1474,-0.9906,4.83,-3.01,-1.75,0.04754088284735873,-0.7055902190129678,-0.7046573074659617,0.05779607535245864,-171.45666691919286,0.8342921237092455,89.9865119790159,0
1767379837.390157,2,right_wrist,0.0283,-0.0063,-0.977,-0.49,-4.34,-0.98,0.0037158348306975753,0.6168752900710551,-0.7870260834601704,0.006404141207646483,-179.68506880511163,-0.7878435595872783,-103.82308547000646,0
1767379837.4406111,1,left_wrist,-0.0137,-0.1474,-0.9906,4.83,-3.01,-1.75,0.04706485870599877,-0.7049900045808979,-0.7054859589949648,0.05534938280563478,-171.6936010885474,0.6666130064345308,90.08869904775996,0
1767379837.4406111,2,right_wrist,0.0332,0.0039,-0.9672,-0.7,-5.32,-1.12,0.00694538938882745,0.6172758134216254,-0.7866942404197041,0.005873995350114389,-179.96174101517857,-1.04166865252721,-103.76168452763598,0
1767379837.49113,1,left_wrist,-0.0278,-0.1542,-0.9804,0.84,-2.03,-1.47,0.04577761330909896,-0.7044996501372354,-0.7055886209248777,0.06106841325566492,-171.33171471325568,1.2288036481462574,90.18162994027526,0
1767379837.49113,2,right_wrist,0.0137,0.0005,-0.9618,-1.12,-3.64,-1.05,0.003125952549462471,0.6176645950983386,-0.7864353141255851,0.00041602747106020855,179.8162366309144,-0.3111548446715883,-103.70747213708552,0
1767379837.5714638,1,left_wrist,-0.0244,-0.1601,-0.9799,0.21,-0.63,-1.89,0.048050136626140674,-0.7036620140655341,-0.7058650910847282,0.06561575663965094,-170.77557370557676,1.4043915845499881,90.2924069376672,0
1767379837.5714638,2,right_wrist,0.0122,0.0068,-0.9648,0.84,-1.61,-1.26,0.006491166796462968,0.6185179400145512,-0.7857432336338355,0.0009967108007147606,179.62964258859535,-0.6551197675130501,-103.57996305960192,0
1767379837.645647,1,left_wrist,-0.0195,-0.1537,-0.9984,-0.91,-1.19,-1.54,0.048435319450092246,-0.702484420735836,-0.707051809554606,0.0651720573463935,-170.77842915184078,1.3220540949569266,90.47794043054124,0
1767379837.645647,2,right_wrist,0.0102,0.0068,-0.9633,0.0,0.0,-1.4,0.0050572214995048,0.6190220554308357,-0.7853481420924601,-0.003796723957515729,179.2995629753587,-0.18580178848121962,-103.50754844639927,0
1767379837.7165172,1,left_wrist,-0.0176,-0.142,-0.9906,1.4,-1.82,-1.19,0.04600245286072162,-0.7022686461346596,-0.7077318252700551,0.061791475843399744,-171.25069022704486,1.2419049008641743,90.53900400120676,0
1767379837.7165172,2,right_wrist,0.0107,0.0015,-0.9687,0.98,-3.15,-0.77,0.004773779288906904,0.6196846877488084,-0.784826288606919,0.003974356860145792,-179.98155600371135,-0.7115671942873601,-103.41214425903692,0
1767379837.788921,1,left_wrist,-0.019,-0.1523,-0.9872,3.15,-2.24,-0.63,0.047217622456576853,-0.7016059368439456,-0.7082349950620943,0.0626322383782738,-171.08278557352148,1.203526498411873,90.6326526219067,0
1767379837.788921,2,right_wrist,0.0102,-0.002,-0.9697,1.68,-1.75,-0.07,-0.001265891089516946,0.6197007538773623,-0.7848245984044927,0.004441047489601445,-179.51069458275813,-0.20152319515990988,-103.41132526907485,0
1767379837.8716412,1,left_wrist,-0.021,-0.143,-0.9745,-0.21,-0.56,-1.05,0.04343580838559601,-0.7015761959199508,-0.7087914958979257,0.05931936624038713,-171.65859669350974,1.2411378233069479,90.6767427617096,0
1767379837.8716412,2,right_wrist,0.0215,0.0039,-0.9662,1.61,-3.36,-0.49,0.006017954837684155,0.6199208449156389,-0.7846279280570155,0.004576545816070271,179.98398170855103,-0.8662250449106036,-103.37658257003392,0
1767379837.940214,1,left_wrist,-0.0146,-0.1479,-0.9858,0.14,0.35,-1.82,0.04619881786175148,-0.7003193662929039,-0.7101883226642002,0.0552358649311464,-171.76847725578364,0.6729985188565185,90.85018210324525,0
1767379837.940214,2,right_wrist,0.0156,0.0015,-0.9697,0.98,-3.85,-0.91,0.009280871444155738,0.6202468106539596,-0.7843473946463876,0.0026313134082138518,179.5767919086846,-1.0212357291235108,-103.32369163359827,0
1767379838.019884,1,left_wrist,-0.0176,-0.1479,-0.9858,0.77,0.0,-1.47,0.04613905079199924,-0.6998332096151983,-0.7102516871794721,0.06039211513448238,-171.3502631831555,1.088005566324816,90.92893456117027,0
1767379838.019884,2,right_wrist,0.0098,-0.0063,-0.9716,0.42,-1.4,-0.56,-0.0006878837774477577,0.6208322152727597,-0.783926595171161,0.00509712455969815,-179.49316720027466,-0.3008281449487088,-103.24626471547072,0
1767379838.0864608,1,left_wrist,-0.0122,-0.1581,-0.9877,2.03,-1.54,-0.77,0.049314416304929234,-0.6988569920549161,-0.7110252318956921,0.060084212636399764,-171.11886730914063,0.7937412808698944,91.05061970320925,0
1767379838.0864608,2,right_wrist,0.0098,-0.0063,-0.9716,0.42,-1.4,-0.56,0.00360505329727653,0.6210395938129413,-0.7837484638511231,0.005930591739929403,-179.72390025603724,-0.7458502268926551,-103.2154283459742,0
1767379838.13885,1,left_wrist,-0.021,-0.1508,-0.977,-1.05,-2.66,-0.7,0.04388309476496189,-0.698895951922749,-0.7110846001675174,0.063066740715259,-171.3104176388142,1.4752424842820198,91.10265791884424,0
1767379838.13885,2,right_wrist,0.0098,0.0093,-0.9672,0.35,-1.47,-0.21,0.0052847710003014765,0.6211423946041555,-0.7836789881664769,0.0012001363492291364,179.73160432430066,-0.560020106782247,-103.19814207188858,0
1767379838.192211,1,left_wrist,-0.0249,-0.1459,-0.9853,1.82,-1.75,-0.77,0.0410764501749585,-0.6988362575219761,-0.7115658521951514,0.06012194610531372,-171.77738179627318,1.4654187125214546,91.13955785008724,0
1767379838.192211,2,right_wrist,0.0151,-0.001,-0.9692,0.91,-0.91,-0.49,0.005340047581923293,0.6212789882352735,-0.7835465169284149,0.0062256307734081355,-179.82116648075964,-0.9227344741957587,-103.17919726702372,0
1767379838.25337,1,left_wrist,-0.0215,-0.1493,-0.9941,-0.84,0.21,-1.19,0.04582187392423899,-0.698116912594542,-0.71194858543842,0.06051730258172869,-171.36285671854586,1.103050179040948,91.20732109947816,0
1767379838.25337,2,right_wrist,0.021,-0.0015,-0.9697,1.12,-4.27,-0.56,0.008194263968648374,0.6214734667165901,-0.7833577025398101,0.007368451453716655,-179.92210292105725,-1.2604182250744214,-103.14770700221379,0
1767379838.313359,1,left_wrist,-0.02,-0.1547,-0.975,-0.42,-0.07,-0.77,0.04856804720879307,-0.6976202007628063,-0.7119133506108952,0.06439395546132276,-170.82304818774492,1.1856813143363216,91.25711858383023,0
1767379838.313359,2,right_wrist,0.0117,0.0083,-0.9687,1.19,-1.68,-0.28,0.007443313874540183,0.6217462955201165,-0.7831795658319011,-0.0024307918322873994,179.25148464618795,-0.49482573972557414,-103.10643756552673,0
1767379838.366584,1,left_wrist,-0.0283,-0.1459,-0.9755,0.21,0.0,-0.98,0.043802376585518873,-0.6977031024147844,-0.7122247589087948,0.06346357603818369,-171.28180886812748,1.4992116420125645,91.29449046412223,0
1767379838.366584,2,right_wrist,0.0132,-0.0005,-0.9672,0.91,-0.21,-0.14,0.005563407049785401,0.6217776735364107,-0.7831698119921767,0.0025726985415510726,179.8344785688864,-0.6826081528050979,-103.10517269552432,0
1767379838.440887,1,left_wrist,-0.0298,-0.1635,-0.9809,-0.14,-1.61,-0.84,0.04874288888507806,-0.6964957233724609,-0.7122786659483847,0.07195095650370971,-170.18441590743242,1.7644174733070737,91.43526911370562,0
1767379838.440887,2,right_wrist,0.0137,0.0039,-0.9677,-0.35,-0.77,-0.21,0.010295111180320886,0.6218293492597556,-0.7830784018147768,0.003238471273400601,179.55691465554392,-1.154663249907818,-103.09054235120126,0
1767379838.514312,1,left_wrist,-0.0322,-0.1493,-0.9862,-2.1,-1.05,-1.33,0.04414675214224713,-0.696448430022515,-0.7129829178398436,0.06830818005954921,-170.85233722045314,1.8449271555109819,91.49185232538177,0
1767379838.514312,2,right_wrist,0.0229,0.0078,-0.9662,0.49,-0.56,-0.49,0.009827437678444918,0.6221730842604873,-0.7828122531225092,0.0030084965895245206,179.56913542995147,-1.096117272603228,-103.04107054650645,0
1767379838.587477,1,left_wrist,-0.0273,-0.1503,-0.9906,-17.71,-2.94,-0.77,0.0393140697037985,-0.696013279522791,-0.7145944368195312,0.05809225006686285,-172.07984363797542,1.41413029552222,91.60726457903323,0
1767379838.587477,2,right_wrist,0.0146,0.0083,-0.9682,1.26,-0.77,-0.56,0.006217059869513363,0.622411756330222,-0.7826649127679891,-0.0007668574724772078,179.48777626818438,-0.5028999381214865,-103.0110272852531,0
1767379838.6464782,1,left_wrist,-0.022,-0.141,-0.9794,-0.98,-3.92,-0.49,0.04250475067200013,-0.6954272135784781,-0.7147786418843376,0.060546097238110545,-171.6214826970683,1.3435849186521667,91.67079205732456,0
1767379838.6464782,2,right_wrist,0.0117,0.0039,-0.9697,1.33,-1.05,-0.35,0.0050846846372775145,0.6225058531028502,-0.7825863457361879,0.004384096498918674,-179.9695516431848,-0.7687411148126304,-102.99943606516919,0
1767379838.718473,1,left_wrist,-0.0259,-0.141,-0.9823,-1.4,-2.38,-0.7,0.036473572029990055,-0.6955271165237629,-0.7150648710153389,0.05994947008381202,-172.1523869367893,1.7896968819986714,91.70984367863612,0
1767379838.718473,2,right_wrist,0.0181,0.0093,-0.9687,0.14,-1.19,-0.14,0.012894262342436121,0.6226051123178679,-0.782424996965042,0.002781409454524921,179.3292315433758,-1.354657209868422,-102.97088854955858,0
1767379838.794653,1,left_wrist,-0.0268,-0.1366,-0.9897,1.33,-0.56,-0.91,0.03689963676310855,-0.694894888694237,-0.7158389147280922,0.05774217379248454,-172.2991251717304,1.571309741017839,91.80688568730619,0
1767379838.794653,2,right_wrist,0.021,0.0044,-0.9682,2.8,-2.87,-0.42,0.007120198684594235,0.622743000798877,-0.7823717516227788,0.005907621298529415,-179.97846431641847,-1.0599833543945132,-102.9628539011615,0
1767379838.865366,1,left_wrist,-0.0268,-0.1366,-0.9897,1.33,-0.56,-0.91,0.04127829519129043,-0.6942489061276748,-0.7159524617775533,0.06104613961004057,-171.6757645941005,1.4701324990003286,91.870458514245,0
1767379838.865366,2,right_wrist,0.02,-0.0029,-0.9716,0.0,-3.15,-0.49,0.005561264111125991,0.6230505702234056,-0.7821284764185158,0.007218425107073125,-179.7500602899047,-1.0138520973807519,-102.91992734120643,0
1767379838.9402392,1,left_wrist,-0.0307,-0.1493,-0.9833,0.63,-1.33,-1.12,0.03825460675106482,-0.6936641308653948,-0.7164170520665154,0.06413474971808533,-171.6597775889738,1.9578022139186668,91.99163590865776,0
1767379838.9402392,2,right_wrist,0.0185,-0.0005,-0.9682,0.77,-2.59,-0.56,0.008741028819628053,0.6232779612008363,-0.7819403634166221,0.004176787806945322,179.74990536109866,-1.0816095165675577,-102.88154169860147,0
1767379839.0256908,1,left_wrist,-0.0264,-0.1381,-0.9765,-0.14,-0.49,-1.26,0.03909706223758181,-0.693260983555125,-0.717172796416142,0.05936167522250696,-171.98675320286043,1.5029012786524252,92.04781751993376,0
1767379839.0256908,2,right_wrist,0.0195,0.0059,-0.9701,2.1,-2.1,-0.7,0.007597635972290752,0.6237464201685354,-0.7815742573319373,0.004935537518857248,179.89897000895206,-1.0332869071551505,-102.81486148884218,0
1767379839.0858932,1,left_wrist,-0.0307,-0.143,-0.9887,1.96,0.0,-1.33,0.0381565316503633,-0.6925181967600051,-0.717763400316328,0.06146810079243158,-171.88546606448702,1.739814941595462,92.1744810545086,0
1767379839.0858932,2,right_wrist,0.0127,0.0029,-0.9687,0.35,-3.01,-0.7,0.003442398780816001,0.6240190247897295,-0.7814015219313211,0.00026098759367646824,179.7772084814751,-0.32690363089463037,-102.778373797291,0
1767379839.147213,1,left_wrist,-0.0229,-0.1459,-0.9833,-0.77,-0.7,-1.12,0.04268168801290268,-0.6918111150938877,-0.7182395668436958,0.06088989375176199,-171.57231899258224,1.3143232487857683,92.24436902276861,0
1767379839.147213,2,right_wrist,0.022,0.0044,-0.9677,0.63,-2.03,-0.49,0.00660264466049711,0.6241657164399729,-0.7812587401219023,0.002888682675620748,179.78634164441405,-0.7977423693742421,-102.75417618466366,0
1767379839.22143,1,left_wrist,-0.0234,-0.1405,-0.9799,0.49,-2.17,-0.98,0.03827058916594129,-0.6917514280406216,-0.7187311748210029,0.05865852153842015,-172.10756215310732,1.4979797899561904,92.29498489934302,0
1767379839.22143,2,right_wrist,0.019,0.0034,-0.9687,0.63,-1.96,-0.56,0.004551725178721873,0.6245249404643923,-0.7809863840473688,0.002854552234675755,179.9297170353437,-0.6116525955532619,-102.7036465821392,0
1767379839.2919092,1,left_wrist,-0.0239,-0.143,-0.9897,0.28,-0.63,-1.19,0.040727567589277924,-0.6907320726302589,-0.7196101729370841,0.0582380295307773,-171.94553126730884,1.2513135746106876,92.43414501056822,0
1767379839.2919092,2,right_wrist,0.0171,-0.0005,-0.9697,0.49,-2.94,-0.7,0.006446364305535541,0.6247404098861409,-0.780781320852302,0.006196261023513902,-179.90709494909893,-1.0204064590769495,-102.67088847815079,0
1767379839.345144,1,left_wrist,-0.0264,-0.144,-0.9843,-0.56,-1.89,-1.12,0.03988091150431295,-0.6902855072242192,-0.719635339652129,0.06356421428408053,-171.56935626712806,1.7395084036733002,92.51328720186548,0
1767379839.345144,2,right_wrist,0.021,0.002,-0.9677,1.47,-3.85,-0.63,0.009717360706932682,0.6249737105567175,-0.7805678219522061,0.005225834540868072,179.77145266895675,-1.2435384591996028,-102.63141922292564,0
1767379839.397068,1,left_wrist,-0.0249,-0.1396,-0.977,1.19,-2.59,-0.91,0.039527102180459385,-0.6899721506111776,-0.7202816164281276,0.05975309707358852,-171.91343344950846,1.4620407465735745,92.56579776694646,0
1767379839.397068,2,right_wrist,0.0205,0.0039,-0.9677,0.77,-2.45,-0.7,0.005030790968899288,0.6252538552615833,-0.7804039716698606,0.00139593146749657,179.76437322773407,-0.5499173817881153,-102.59597361425824,0
1767379839.465934,1,left_wrist,-0.0307,-0.1469,-0.9843,1.19,-0.77,-1.12,0.04022829118964627,-0.6894662858440299,-0.7202499785067987,0.06525253813726636,-171.3994340647952,1.8354976686308677,92.63994799230723,0
1767379839.465934,2,right_wrist,0.0215,-0.002,-0.9638,0.91,-2.94,-0.49,0.006159431854132816,0.6255972078137437,-0.7800896872940672,0.007090469118905387,-179.80769608491775,-1.058965013680107,-102.54565514619078,0
1767379839.54765,1,left_wrist,-0.0224,-0.1459,-0.9828,-0.28,-1.26,-1.05,0.0420032202874218,-0.688664365191332,-0.7212611437315523,0.061314632382157876,-171.5850224255955,1.367196921745371,92.74941321580775,0
1767379839.54765,2,right_wrist,0.0215,-0.002,-0.9638,0.91,-2.94,-0.49,0.009603534671086284,0.6257632717633376,-0.7799095089864303,0.008322116702479843,-179.94486840672084,-1.455189978625321,-102.5168132666882,0
1767379839.623053,1,left_wrist,-0.0249,-0.142,-0.9765,0.98,-1.19,-1.05,0.03722614525693491,-0.6886414971768503,-0.7216158063020216,0.06047917468367957,-172.03217333276106,1.6945398989815132,92.79688938625516,0
1767379839.623053,2,right_wrist,0.0181,0.0034,-0.9721,1.47,-1.75,-0.63,0.010199309127874916,0.6262281359226639,-0.7795466311915086,0.006430059883843523,179.8424412911687,-1.3726541632851188,-102.44664896691661,0
1767379839.688895,1,left_wrist,-0.0229,-0.1454,-0.9814,0.35,-0.84,-1.05,0.04338480462059186,-0.6874955652756704,-0.7224984777317947,0.05885198492454689,-171.6790093419906,1.0445625988648541,92.92012179574293,0
1767379839.688895,2,right_wrist,0.0156,0.0005,-0.9687,0.35,-2.24,-0.42,0.004738392854971713,0.6263972448952384,-0.7794793912875486,0.00398970911209487,-179.9837519851776,-0.7096403955521212,-102.4287036118139,0
1767379839.7678258,1,left_wrist,-0.0229,-0.1454,-0.9814,0.35,-0.84,-1.05,0.04110647471836071,-0.6872412724926028,-0.7224640015104772,0.06368247514384215,-171.4556140782417,1.6122039458706352,92.98301881420774,0
1767379839.7678258,2,right_wrist,0.0185,0.0059,-0.9643,1.19,-1.47,-0.63,0.00823277636087304,0.6267753747279935,-0.7791458130799052,0.004080807276579149,179.773007675332,-1.028203053919061,-102.36884322648241,0
1767379839.8182662,1,left_wrist,-0.0288,-0.1435,-0.9838,2.31,-0.42,-1.19,0.037690011733609155,-0.687147988660884,-0.7229165793327272,0.06163378960189425,-171.89580309390988,1.7311459849939972,93.02882352324362,0
1767379839.8182662,2,right_wrist,0.0176,-0.0034,-0.9716,1.05,-2.03,-0.49,0.0042103733066374644,0.626910279489694,-0.7790405762534771,0.007845685274266429,-179.60201483794737,-0.9395315891963827,-102.35453836215754,0
1767379839.876273,1,left_wrist,-0.0254,-0.1474,-0.9828,0.84,-1.12,-0.91,0.04241411849505965,-0.6864489713213515,-0.7231611837145061,0.06345671511179758,-171.36965562205353,1.4769683226430266,93.09522778384279,0
1767379839.876273,2,right_wrist,0.0181,0.0015,-0.9677,1.4,-2.52,-0.56,0.007017611254152303,0.6271443670982151,-0.7788572898003372,0.004692342073879812,179.9144578158347,-0.9635878111914322,-102.31648892190758,0
1767379839.937692,1,left_wrist,-0.0254,-0.1459,-0.9789,0.35,-1.96,-0.77,0.04219510168923951,-0.6857978781833471,-0.7237426978820545,0.06401055331005112,-171.33930204522696,1.5311145580708494,93.20000647207505,0
1767379839.937692,2,right_wrist,0.022,0.1244,-0.9667,0.84,-2.52,-0.35,0.009219991531181606,0.6272930529637777,-0.7787285091302929,0.0005714256376987277,179.388154466755,-0.8638607524546976,-102.2900687310063,0
1767379839.991389,1,left_wrist,-0.0259,-0.1454,-0.9814,0.35,-1.89,-0.98,0.03892919717786067,-0.6856882550079939,-0.7243218370179335,0.06061362033524837,-171.880128258508,1.5316733957021251,93.24768860580177,0
1767379839.991389,2,right_wrist,0.02,0.001,-0.9628,0.56,-2.94,-0.56,0.007347175183404671,0.6274458785428775,-0.7786100797818964,0.004902262580673893,179.90911436207872,-1.0080554063686165,-102.27172948341413,0
1767379840.0647209,1,left_wrist,-0.0244,-0.1415,-0.9853,0.77,0.0,-1.19,0.04384705292115122,-0.6849831073688486,-0.7248365366391865,0.059055683235025656,-171.62204878352503,0.9935814671113009,93.31123805524894,0
1767379840.0647209,2,right_wrist,0.022,0.0,-0.9682,0.77,-1.89,-0.56,0.007523472179597412,0.627851817815368,-0.7782647905281321,0.00702908646292275,-179.91439751008167,-1.1767636570973738,-102.21235743023809,0
1767379840.136539,1,left_wrist,-0.0234,-0.1435,-0.9872,1.26,-0.98,-0.91,0.040627514649208864,-0.6845384520372577,-0.7253524454956868,0.060169282439547396,-171.78145241560603,1.3430123328837618,93.41279985151942,0
1767379840.136539,2,right_wrist,0.022,0.0,-0.9682,0.77,-1.89,-0.56,0.011656311975477042,0.6280446454504289,-0.778057047542969,0.007161318376766076,179.79953148983512,-1.5548434354585954,-102.17661012712662,0
1767379840.187125,1,left_wrist,-0.0234,-0.1435,-0.9872,1.26,-0.98,-0.91,0.044050785175604235,-0.6839091982327362,-0.7253750423448819,0.06448864117989835,-171.14955665340776,1.3925431060358022,93.47846576825249,0
1767379840.187125,2,right_wrist,0.02,0.0015,-0.9721,1.54,-3.01,-0.56,0.00559096461980824,0.6282727289439515,-0.7779572884251152,0.004957475787358336,-179.96056993919873,-0.8553636255716713,-102.15210618401579,0
1767379840.24815,1,left_wrist,-0.0298,-0.1464,-0.9775,1.26,-1.33,-1.12,0.039073371685077844,-0.6838703903907218,-0.7256402781404796,0.06512102204518092,-171.48729860699237,1.8545443207251429,93.53288431574765,0
1767379840.24815,2,right_wrist,0.021,-0.002,-0.9648,0.7,-2.52,-0.63,0.007733058119399058,0.628461028160895,-0.7777577764403398,0.008353267722935978,-179.81237789515518,-1.2908856388315793,-102.12277244980423,0
1767379840.31671,1,left_wrist,-0.0312,-0.1464,-0.9828,0.21,-1.05,-1.33,0.03980960765614484,-0.6834157174251735,-0.7264181360755961,0.06062049071853684,-171.8057678804463,1.433755941243621,93.59686698289728,0
1767379840.31671,2,right_wrist,0.0171,0.0015,-0.9697,1.12,-2.38,-0.7,0.006375147075312339,0.6289328239112165,-0.7773958884716503,0.007648077811071733,-179.77810269935762,-1.1191884139271489,-102.05470788001958,0
1767379840.395703,1,left_wrist,-0.0307,-0.141,-0.9882,-0.63,-0.63,-1.26,0.039312858362791525,-0.6825830177351581,-0.7271998092073361,0.060953757519334635,-171.81510683843786,1.4918867301633392,93.73213042382827,0
1767379840.395703,2,right_wrist,0.0215,0.0078,-0.9697,1.75,-3.29,-0.77,0.008691119533663822,0.6292424472714332,-0.7771490167490469,0.004220516449284242,179.74913090457332,-1.0783728827067913,-102.00480100312502,0
1767379840.469429,1,left_wrist,-0.0288,-0.1435,-0.9862,0.84,-0.21,-1.19,0.03807376555063338,-0.6822178160530171,-0.7271670315079438,0.06601021227485915,-171.48668596115624,1.9882595657491005,93.80140648124669,0
1767379840.469429,2,right_wrist,0.0161,-0.0039,-0.9701,0.91,-1.89,-0.63,0.008050114067357153,0.6297093424150729,-0.7767627349641817,0.006402601787046838,179.98900495571473,-1.17863516845258,-101.93760948712999,0
1767379840.5399559,1,left_wrist,-0.0298,-0.1362,-0.9853,0.91,-1.82,-0.91,0.034334219025284496,-0.6818184911046422,-0.728191291630048,0.06068071675478926,-172.22598228186558,1.8763545135059951,93.89486263448067,0
1767379840.5399559,2,right_wrist,0.0176,0.0068,-0.9662,0.91,-3.29,-0.56,0.008398696638594669,0.6299507854287058,-0.77658885063952,0.001107652887215447,179.49223395405346,-0.8273913833633709,-101.90001488479946,0
1767379840.6168692,1,left_wrist,-0.0322,-0.1493,-0.9858,1.05,-0.56,-1.05,0.03797457801750254,-0.6811500333762428,-0.7282929223811341,0.06466825083055286,-171.6044546071013,1.8787403729259031,93.9693220846362,0
1767379840.6168692,2,right_wrist,0.0205,-0.001,-0.9653,0.77,-2.87,-0.63,0.004939244628340924,0.6302540439202088,-0.7763244201845062,0.00870853661156306,-179.58193133188115,-1.0684043651582542,-101.86149970226032,0
1767379840.671018,1,left_wrist,-0.0254,-0.141,-0.9833,-0.42,-1.12,-1.05,0.039011686001112496,-0.6807530671143034,-0.7289989697948973,0.06011532257085333,-171.9054786908136,1.4307339226993852,94.02137149365223,0
1767379840.671018,2,right_wrist,0.0205,-0.001,-0.9653,0.77,-2.87,-0.63,0.008152432505395706,0.6305123145891555,-0.7761147986095597,0.005794685057293381,179.92631802182035,-1.1437964212347103,-101.81874730983252,0
1767379840.737494,1,left_wrist,-0.0264,-0.1435,-0.9867,-0.28,-0.7,-1.19,0.038425774050644304,-0.6800139602823193,-0.7295740951548889,0.06185558494339954,-171.80325432803053,1.6077256483526263,94.14250534947517,0
1767379840.737494,2,right_wrist,0.0205,0.0015,-0.9667,0.91,-2.31,-0.63,0.011575495143673151,0.6307043346770527,-0.7758983350497354,0.007734584591539687,179.85103502569325,-1.5884016038349997,-101.78469565315987,0
1767379840.790933,1,left_wrist,-0.0278,-0.1503,-0.9838,1.05,-1.4,-1.05,0.04173245597423921,-0.6793191011552475,-0.7296629199664139,0.06615122183355175,-171.18179309392156,1.6603389470249996,94.22071818940798,0
1767379840.790933,2,right_wrist,0.0239,0.0024,-0.9701,1.19,-2.73,-0.63,0.006323121435257923,0.6309672358451816,-0.7757712831999418,0.004391080450407875,179.93316135541838,-0.8796306434841789,-101.75368607386413,0
1767379840.8428411,1,left_wrist,-0.0234,-0.1401,-0.9775,0.28,-1.89,-0.91,0.039695848842648825,-0.6791501721601332,-0.7302898614273584,0.06209671115230552,-171.68203960694802,1.510894767508977,94.26585381567264,0
1767379840.8428411,2,right_wrist,0.0166,0.0005,-0.9677,0.98,-3.08,-0.63,0.007588828676619196,0.6311497152933769,-0.7755810114588771,0.008157280725285142,-179.82383589888386,-1.2645307642045658,-101.72616131108224,0
1767379840.922347,1,left_wrist,-0.0244,-0.1459,-0.9867,0.77,-1.33,-0.98,0.04449555111411684,-0.6784217886942461,-0.7306549989488481,0.0625083599769632,-171.2718001331426,1.1340877651588408,94.3324133995353,0
1767379840.922347,2,right_wrist,0.02,0.0034,-0.9726,0.63,-3.57,-0.56,0.008448368820235974,0.6315447192599708,-0.7752625178520907,0.006922503359230079,-179.9964199163706,-1.2516197487901315,-101.66610840407866,0
1767379840.998631,1,left_wrist,-0.0229,-0.1449,-0.9794,-0.07,-1.61,-0.77,0.04361072222894601,-0.6778069117638614,-0.7313557840956331,0.06160042484974146,-171.41642067458127,1.12974426975915,94.43722694812178,0
1767379840.998631,2,right_wrist,0.0215,0.002,-0.9638,0.7,-2.1,-0.49,0.011447711627220835,0.6317470089790952,-0.7750824158262303,0.003451843194810286,179.47771784480136,-1.2667537834036322,-101.62928633111478,0
1767379841.067178,1,left_wrist,-0.0249,-0.1415,-0.9794,0.63,-1.4,-1.05,0.038448264939568315,-0.677788895791886,-0.7316598238083405,0.06162666540630481,-171.81602525638394,1.5630873851643168,94.48953533096814,0
1767379841.067178,2,right_wrist,0.0185,0.0039,-0.9697,1.26,-2.87,-0.56,0.008227292415175672,0.6321232656422214,-0.7748212092847944,0.002140639104908762,179.59405904235234,-0.8855791686570582,-101.5795894842833,0
1767379841.1449878,1,left_wrist,-0.0268,-0.1474,-0.9877,0.35,-0.84,-0.91,0.03832088896945646,-0.6771006125583999,-0.7320961422521518,0.06404302023755028,-171.62022480365889,1.7545556145100165,94.59834469782078,0
1767379841.1449878,2,right_wrist,0.02,0.001,-0.9692,1.47,-2.94,-0.56,0.0069443736008064924,0.6322741201688494,-0.7746835866266677,0.006822994301775894,-179.89743107792424,-1.1108852179766766,-101.56035623991856,0
1767379841.198482,1,left_wrist,-0.0273,-0.143,-0.9819,-0.21,-0.63,-1.05,0.03975848233800709,-0.6766927711595647,-0.732781966216478,0.05947055179229468,-171.8942111889912,1.2731016563995419,94.6479057421156,0
1767379841.198482,2,right_wrist,0.0229,0.0015,-0.9658,1.12,-2.87,-0.49,0.010664152757731209,0.6324505065222618,-0.7744997732650992,0.006537113889493845,179.80724833542547,-1.420368608703761,-101.52799285662108,0
1767379841.2666082,1,left_wrist,-0.0264,-0.1381,-0.9819,-0.63,0.07,-1.12,0.03497029940467749,-0.676648582701652,-0.7329398604542526,0.061015855682711576,-172.13530376454818,1.7942431097081577,94.69707883301557,0
1767379841.2666082,2,right_wrist,0.021,0.0059,-0.9687,0.77,-1.47,-0.49,0.010271185324067908,0.632804618580441,-0.7742292445665222,0.004679135951584523,179.67024777444297,-1.2506634572398105,-101.47574179567253,0
