timestamp,node_id,node_name,ax,ay,az,gx,gy,gz,qw,qx,qy,qz,roll,pitch,yaw,rep_number
1767370238.461657,1,left_wrist,-0.9477,0.001,-0.3562,-0.28,-1.47,-1.96,-0.26174126500483436,0.7313659037083551,-0.37450555430101595,-0.5063013083967086,-179.4059706815179,69.49312211499357,-53.818587475297875,1
1767370238.461657,2,right_wrist,-0.896,0.246,-0.3738,0.21,-3.08,0.28,0.44512843442349936,-0.32275285452864155,0.7636458980237336,0.33843199345337205,148.50374641903,63.93560482607368,-154.1400083853059,1
1767370238.5138838,1,left_wrist,-0.9462,-0.0039,-0.3543,-1.26,-2.17,-0.91,-0.26206543564819107,0.7333825543925813,-0.3735612868770346,-0.5039084255079591,-178.72330250020153,69.2136580224923,-53.104657600664794,1
1767370238.5138838,2,right_wrist,-0.8857,0.242,-0.3797,1.54,-2.24,-0.49,0.44269811144444826,-0.3206684564799639,0.7653601671480333,0.3397262687597338,147.95621638652383,63.57607265258782,-154.71663381600155,1
1767370238.585336,1,left_wrist,-0.9487,-0.0249,-0.3436,-1.05,0.63,-0.84,-0.2669132462233754,0.7319960500088822,-0.36913122682751187,-0.5066371868928589,-177.21730274595922,69.84515587871655,-51.57876116494633,1
1767370238.585336,2,right_wrist,-0.8808,0.2377,-0.3772,0.84,-3.22,-0.21,0.44047178218048594,-0.3191952206818448,0.7669882361846361,0.3403352255512143,147.65166422877368,63.24505650293109,-155.06044791120743,1
1767370238.635416,1,left_wrist,-0.9599,-0.0078,-0.3479,1.05,-1.12,-2.87,-0.265547590071768,0.7300598797441277,-0.37010594175125494,-0.5094297216255474,-178.20630325871477,70.11713581143844,-52.50697244928616,1
1767370238.635416,2,right_wrist,-0.8877,0.2323,-0.3704,2.1,-2.03,-0.91,0.4450434329917803,-0.3197711865447808,0.7646300565032285,0.33915130502255697,147.95214709857774,63.82991977787132,-154.89261830841946,1
1767370238.685932,1,left_wrist,-0.9579,-0.0185,-0.3343,-3.08,-1.05,-1.68,-0.2679454563596122,0.7293519882759575,-0.36677505986842707,-0.5115925772259194,-177.3218964670764,70.52955404000788,-51.49972822900667,1
1767370238.685932,2,right_wrist,-0.8833,0.2338,-0.3802,4.13,-1.68,-0.42,0.44332850249996547,-0.31907308618728486,0.7669334826880387,0.336846014781317,148.40025481397217,63.50379835785558,-154.6874990279707,1
1767370238.737976,1,left_wrist,-0.9409,-0.0112,-0.3587,0.0,-0.63,-0.77,-0.26638518675044087,0.7310379578860108,-0.3677222536409634,-0.5093159928639539,-177.48503772956568,70.14753035467672,-51.64009402741856,1
1767370238.737976,2,right_wrist,-0.8818,0.2489,-0.3806,3.29,-2.8,-2.31,0.4419505885307137,-0.3165563576576738,0.7681177944510912,0.3383294305428571,147.7587907425643,63.270622161929126,-155.39694123714293,1
1767370238.813063,1,left_wrist,-0.9414,-0.0156,-0.3665,-2.24,-1.05,0.14,-0.2644924241678141,0.7329429343994108,-0.3680412811298218,-0.5073302946366732,-177.63220749071564,69.78068585561276,-51.67495702931878,1
1767370238.813063,2,right_wrist,-0.8926,0.2318,-0.3719,0.63,-3.57,-1.26,0.4452711875662879,-0.31554524620258056,0.7665288108847196,0.33852377938029465,147.55082894849062,63.67144818952967,-155.7332626662503,1
1767370238.8854988,1,left_wrist,-0.954,-0.001,-0.3611,-0.7,-0.91,2.03,-0.25724472717967606,0.7332215613053129,-0.3721085111362076,-0.5076874514061267,179.90321307073384,69.38065299930751,-53.882403467177674,1
1767370238.8854988,2,right_wrist,-0.8974,0.2284,-0.3753,2.8,-3.99,-2.31,0.449281689349842,-0.3178697103926132,0.7651792098098144,0.33407422484336635,148.83580248260134,64.15099246225739,-154.7088286967141,1
1767370238.9371068,1,left_wrist,-0.9604,0.0068,-0.3636,1.68,-0.14,0.7,-0.2537494701689514,0.7324910449203161,-0.3753807217997054,-0.508091910191111,178.4316308390594,69.20406482529978,-55.34974787307577,1
1767370238.9371068,2,right_wrist,-0.8926,0.2377,-0.3875,1.75,-3.01,-0.56,0.44719598172488145,-0.31650129395562865,0.7669450689245598,0.3341226512911603,148.66002118595893,63.82488069421828,-154.96877505596987,1
1767370238.988998,1,left_wrist,-0.9594,-0.0005,-0.3518,-1.75,-0.42,-0.35,-0.25647688791785445,0.7318180947238707,-0.37265149641345857,-0.5096986800252735,179.26242244906047,69.5810129515635,-54.48404998534572,1
1767370238.988998,2,right_wrist,-0.8891,0.2372,-0.3836,3.36,-3.08,-0.91,0.4453540935721575,-0.31467940572413294,0.7688482917616422,0.3339294943649532,148.48405871544918,63.50598142874379,-155.29499834061,1
1767370239.040726,1,left_wrist,-0.9496,-0.0044,-0.3475,0.91,0.21,-1.61,-0.26074943499680164,0.7317927136000251,-0.36981364816238516,-0.5096342042127745,-179.22022444181906,69.84278256670638,-53.075362194053795,1
1767370239.040726,2,right_wrist,-0.8789,0.2396,-0.3845,1.19,-3.08,0.28,0.44303186289058966,-0.3128699676261283,0.7705923668885855,0.33469770825980677,148.1040368634258,63.154523086293246,-155.7288338266066,1
1767370239.0908082,1,left_wrist,-0.9565,-0.0049,-0.3509,17.71,-0.63,-0.49,-0.2666069661552663,0.7296949305936572,-0.3735125076448409,-0.506906737473734,-178.26607780328828,69.87373667622232,-53.002225138586034,1
1767370239.0908082,2,right_wrist,-0.8901,0.2518,-0.3694,-0.28,-3.36,-0.77,0.4447313587336156,-0.3105625301415194,0.7688722368303611,0.3385268332976383,146.9293240881584,63.399546004542444,-156.79095669637312,1
1767370239.1414888,1,left_wrist,-0.9536,-0.0054,-0.3504,-3.64,-1.4,-0.14,-0.261837446816447,0.7290613271730977,-0.37520522948240875,-0.5090498683177306,179.96587839120355,69.84147069908438,-54.48828445912303,1
1767370239.1414888,2,right_wrist,-0.8935,0.2528,-0.3587,1.68,-3.29,-1.33,0.4476134086349599,-0.30855123751929275,0.7668965478870228,0.34103966788992857,146.0494306689738,63.76685056356825,-157.66961907622246,1
1767370239.210664,1,left_wrist,-0.9457,-0.002,-0.3528,-0.35,-1.26,0.0,-0.26168533323420773,0.7309719890646619,-0.37515403736943964,-0.5064189824822551,-179.57468558764631,69.5046814499636,-54.04109566799039,1
1767370239.210664,2,right_wrist,-0.8838,0.2172,-0.3704,2.1,-2.52,-1.75,0.4519869298247497,-0.31355287088212935,0.7654910107679774,0.3337902408138858,148.30660843992845,64.33022206568273,-155.6934937127553,1
1767370239.261333,1,left_wrist,-0.9316,0.0112,-0.3538,-0.42,-0.42,0.14,-0.25770832452761,0.7305970508097709,-0.3777451063780032,-0.5070729764291408,178.94053186581306,69.32986650808826,-55.413861265599174,1
1767370239.261333,2,right_wrist,-0.8926,0.2347,-0.3709,4.2,-3.57,-2.03,0.45063154847399794,-0.31119707671320324,0.7670824126114453,0.33417384581574927,147.92422506087226,64.07025837811979,-156.2298794873873,1
1767370239.311668,1,left_wrist,-0.9457,0.0015,-0.3553,-0.7,0.14,1.4,-0.2610608442529305,0.7310831788801678,-0.3753484760253238,-0.5064367114476226,-179.74942918129253,69.4673222937275,-54.179493440278186,1
1767370239.311668,2,right_wrist,-0.9155,0.2323,-0.3714,4.13,-3.71,-1.89,0.4560545970130847,-0.31110564802673096,0.7645043369820126,0.3328071499303972,148.16134797749942,64.74095618576226,-156.21036689791018,1
1767370239.364094,1,left_wrist,-0.9628,0.0181,-0.3582,-1.89,0.7,1.68,-0.2565721990444686,0.7295964050258896,-0.37789606308384766,-0.5089738283610586,178.31709042888093,69.48920631328454,-55.931279179942855,1
1767370239.364094,2,right_wrist,-0.916,0.2494,-0.3806,0.98,-3.36,-0.63,0.4539901001184351,-0.30893096086054844,0.7658646493112787,0.334523525856618,147.49784130627827,64.43274056316766,-156.8802534491626,1
1767370239.440602,1,left_wrist,-0.995,0.001,-0.3616,4.62,-4.62,-1.61,-0.26479951063993107,0.727075424464881,-0.37253329733919455,-0.5123099537171353,-179.42620479947564,70.43620301950322,-53.85364680738254,1
1767370239.440602,2,right_wrist,-0.9292,0.2396,-0.3806,-4.13,-5.74,1.68,0.45244363898787854,-0.30886027416803075,0.7663599104121283,0.3355481668752938,147.274228847153,64.25607934910384,-156.99297027574718,1
1767370239.511762,1,left_wrist,-1.1009,0.0122,-0.3567,-4.55,-9.38,-8.61,-0.266854553743159,0.7246911431612467,-0.3676440250087637,-0.518120898097674,-178.9627251226401,71.2928420673751,-53.05449571144123,1
1767370239.511762,2,right_wrist,-1.2039,0.3748,-0.3792,6.93,-6.72,13.86,0.45803409629342395,-0.29617625945221554,0.763664037381721,0.34540067744492003,143.14428827455586,64.71136427929902,-161.4431332342326,1
1767370239.587679,1,left_wrist,-1.384,-0.0185,-0.3704,7.35,-5.39,-44.24,-0.2909562586119902,0.7272721062226417,-0.3477715883659124,-0.5152423327041805,-167.7946202101794,72.14124165325572,-42.206450388413494,1
1767370239.587679,2,right_wrist,-1.3625,0.2957,-0.4294,-18.41,2.73,27.79,0.45385136835770973,-0.29214542224222834,0.762870152389837,0.35594819608399664,140.29187902394898,64.21551545925034,-163.62362166005886,1
1767370239.641112,1,left_wrist,-1.3903,-0.1801,-0.4128,17.22,2.52,-45.78,-0.31000552156912414,0.7327938077199398,-0.3345137664328836,-0.5049854968519921,-158.63415053972957,71.3523319850968,-33.64669033302486,1
1767370239.641112,2,right_wrist,-1.2546,0.3357,-0.4963,-24.99,2.17,32.69,0.4450921376129348,-0.2890380037737606,0.764093420323335,0.36675777623414485,137.83454982080056,63.150736395119154,-165.2195089043263,1
1767370239.698433,1,left_wrist,-1.2151,0.1835,-0.4865,32.83,15.47,-51.17,-0.3255269111315183,0.7387270045330803,-0.3303135023914293,-0.48908857381936693,-152.98945735114413,69.66185337025007,-29.207463010240957,1
1767370239.698433,2,right_wrist,-1.1097,0.4372,-0.4412,-25.55,3.43,40.95,0.4307522787396473,-0.27858462900089176,0.767280015058159,0.384869402963379,133.49535197957286,61.09858951894361,-168.5504697173081,1
1767370240.612221,1,left_wrist,-1.344,-0.3431,-0.305,-38.99,-40.6,36.82,-0.3519073028421311,0.7553212856931434,-0.3477577769018444,-0.42978545134697205,-148.71288836636538,63.38144716830238,-29.826520061282437,2
1767370240.612221,2,right_wrist,-1.1107,0.2103,-0.283,33.46,27.37,-39.76,0.4297820823780473,-0.3054653322502134,0.7783133471258163,0.3408909299847455,146.04853346212354,61.314895989811,-157.65604519437431,2
1767370240.691308,1,left_wrist,-1.0521,-0.1674,-0.3645,13.23,69.16,52.29,-0.31552938203192804,0.7492990323497682,-0.3896952131010758,-0.4325850321963968,-162.35530642793117,63.404790597054685,-44.00395932091857,2
1767370240.691308,2,right_wrist,-1.1273,0.305,-0.4577,19.46,1.12,-31.57,0.44001358796499607,-0.31337992880164317,0.7749728236605886,0.32802162309515814,149.6671373278717,62.571695025173554,-154.6729619331821,2
1767370240.761201,1,left_wrist,-1.1556,-0.0805,-0.3328,-30.87,0.28,43.75,-0.29751273790599814,0.7439631728019077,-0.3980685185889143,-0.4467061929351581,-168.3964031684257,64.35949274130479,-48.98278939038397,2
1767370240.761201,2,right_wrist,-1.038,0.245,-0.4563,1.4,25.76,-26.18,0.44253616394177,-0.330402654740115,0.7769715727732897,0.30217710774740675,157.4076431652319,62.54289487625466,-147.75925520930835,2
1767370240.811417,1,left_wrist,-1.0531,-0.1225,-0.4782,-5.95,-1.12,50.4,-0.28952803545058053,0.7352081605659353,-0.41078670819306584,-0.4548590525616547,-172.9144176548179,65.0533233688579,-53.865192891253066,2
1767370240.811417,2,right_wrist,-1.1785,0.3621,-0.3982,26.18,-11.62,-25.27,0.45457626657692735,-0.33054788177464045,0.7734204847335812,0.2931198893179255,159.7702723318669,63.7583915935022,-146.38005492244628,2
1767370240.861803,1,left_wrist,-1.1175,0.0063,-0.4592,-16.38,1.61,43.61,-0.27383156592283425,0.7274442141680264,-0.4226442118122304,-0.46606121808119766,-179.38816670430649,65.44099521141257,-59.919970943822435,2
1767370240.861803,2,right_wrist,-0.997,0.0791,-0.429,-33.46,-11.06,-9.52,0.4576068975741838,-0.341012601467805,0.7638722016270347,0.3013396630285453,159.64185431298534,64.77317654310704,-144.88011538635843,2
1767370240.912013,1,left_wrist,-1.2395,0.1069,-0.4104,-25.34,-10.5,17.08,-0.26371787739233615,0.722987146428713,-0.42190013041285424,-0.47931487270912454,176.70412607204258,66.29139237769611,-62.684154489551325,2
1767370240.912013,2,right_wrist,-1.2712,0.3001,-0.3899,65.24,-7.77,-9.52,0.47246102061378653,-0.32833572307145276,0.7679670984560316,0.2814298716283494,162.84168862300598,65.57121416261039,-144.80299655401274,2
1767370240.965871,1,left_wrist,-1.3586,-0.0268,-0.4143,10.22,-13.02,-9.45,-0.273627585310955,0.7195044012227718,-0.41798311201994065,-0.48242251112907486,178.58031472301323,67.36177962296648,-61.25350275079499,2
1767370240.965871,2,right_wrist,-1.4123,0.4699,-0.5539,-22.61,-24.36,19.39,0.4737595251460692,-0.3208629527219726,0.7631896934389575,0.300233858404508,157.4147167288403,66.32025312870786,-149.26100814157599,2
1767370241.036652,1,left_wrist,-1.5396,-0.0093,-0.4431,3.99,-23.03,-64.75,-0.3088095980572861,0.7219680195426538,-0.38152018770160817,-0.48768961161940405,-167.52961655798669,70.02248967154543,-46.95486267271938,2
1767370241.036652,2,right_wrist,-1.4542,0.2733,-0.6437,-36.33,-7.35,43.33,0.4620677826165259,-0.31263765526657394,0.7649031091663036,0.3219849287854754,150.8828477730649,65.25824266035366,-154.41869248306145,2
1767370241.09122,1,left_wrist,-1.3654,-0.1283,-0.3904,4.55,-14.0,-73.08,-0.3301088670192871,0.7285700338234068,-0.35591529391890736,-0.48325784554875084,-156.49082996001803,69.91029038619295,-35.519831982920294,2
1767370241.09122,2,right_wrist,-1.3615,0.4026,-0.4807,-16.03,-7.49,44.38,0.45609698067479193,-0.29754471356215934,0.766364824895298,0.3407750619011759,144.49618083171742,64.40430666941926,-160.36035858133465,2
1767370241.158808,1,left_wrist,-1.2195,-0.1801,-0.4636,34.09,0.49,-65.59,-0.35286190207030804,0.7355113591837176,-0.3430500837204171,-0.4656481060183314,-147.83114875984438,67.98374693685962,-28.00431049767279,2
1767370241.158808,2,right_wrist,-1.0863,0.2098,-0.3797,-58.52,7.49,19.25,0.4332580740937471,-0.3032026610960057,0.7545856014223002,0.388530767974717,134.9142834106711,62.80643865114951,-164.65748007358047,2
1767370242.035407,1,left_wrist,-1.0282,-0.0639,-0.4885,4.41,14.63,39.41,-0.32737587984606076,0.7278188200607469,-0.37370958720974334,-0.4727006905938713,-160.00937989723985,68.87047913517004,-40.577960595181544,3
1767370242.035407,2,right_wrist,-0.8545,0.0874,-0.4299,26.81,-29.19,-25.97,0.4585114713382867,-0.332511362567617,0.7579452544391317,0.3236084295685544,153.36197377665292,65.54132674690497,-149.955876798235,3
1767370242.0865731,1,left_wrist,-1.0917,-0.0947,-0.2865,-22.12,29.89,42.07,-0.30710598814998735,0.7279484572843254,-0.38665891152039694,-0.47568039871499057,-167.54380191804742,68.43982853871348,-47.46161467989202,3
1767370242.0865731,2,right_wrist,-0.9833,0.1815,-0.4343,36.68,28.56,-27.09,0.4566438975236669,-0.3397744343511654,0.7659360377685541,0.29895095026299645,159.93461607792207,64.51151861960848,-144.89659644089502,3
1767370242.1614258,1,left_wrist,-1.0365,-0.0278,-0.4421,-11.06,7.98,43.61,-0.2894393039567149,0.7238114979441402,-0.40166907676119906,-0.4806076960918524,-174.9239617133537,68.16462888667792,-54.619274719821384,3
1767370242.1614258,2,right_wrist,-0.9823,0.2684,-0.5651,16.8,-12.04,-17.99,0.468237013099427,-0.3364166611633338,0.7667869532237691,0.2821625383023953,163.69505728087893,65.22007980305308,-143.0956505143229,3
1767370242.2349079,1,left_wrist,-1.259,-0.0615,-0.427,-25.9,-14.84,22.4,-0.2616189489332269,0.7139750238706802,-0.4032418976464279,-0.5091082034601713,173.8724184419171,69.71380951010403,-63.184067167739364,3
1767370242.2349079,2,right_wrist,-1.1649,0.245,-0.5197,5.74,-9.24,-21.0,0.4726548183839143,-0.3386109134383673,0.7635611942588616,0.280917024369981,164.59992577103827,65.78948841799213,-142.16472334701783,3
1767370242.288851,1,left_wrist,-1.6309,-0.0825,-0.5197,5.74,-31.78,-14.84,-0.2759681557197563,0.7088653597928692,-0.3935967830187685,-0.5161715326435959,177.2578750779815,71.6284438256811,-60.06125997730051,3
1767370242.288851,2,right_wrist,-1.423,0.2821,-0.5358,36.68,-37.45,6.23,0.4899915140871096,-0.3219302588077458,0.7605442912728764,0.2790010853004658,163.34997238189143,67.66206493671581,-145.31781868624384,3
1767370242.340953,1,left_wrist,-1.6821,-0.0146,-0.3924,-8.75,-32.83,-57.47,-0.2937284293344496,0.7105344622437254,-0.36817681039909184,-0.5227908033325456,-173.40872254972112,73.57886431488903,-49.852159473985964,3
1767370242.340953,2,right_wrist,-1.5416,0.3235,-0.5793,-32.13,-9.31,55.3,0.48039601234290513,-0.30644547707288633,0.7624827332242357,0.3064815205546747,153.74241841267963,66.98859826759063,-153.7570602885378,3
1767370242.4082391,1,left_wrist,-1.4655,-0.1069,-0.4329,8.47,-5.88,-73.99,-0.31732485184591236,0.721008821603844,-0.3435970895027732,-0.5112653495550324,-158.93303778591718,72.80757432422001,-35.34620588143382,3
1767370242.4082391,2,right_wrist,-1.2322,0.2518,-0.4548,-20.58,-7.49,50.19,0.4614062460282026,-0.2779482969155752,0.7671143883227848,0.3484028352296415,140.00763463353255,64.36636115965689,-165.96359248787732,3
1767370242.461174,1,left_wrist,-1.282,-0.0298,-0.3821,34.23,-1.12,-76.23,-0.34145669440856846,0.7261630665028885,-0.32979274240706136,-0.4973241133771062,-148.3313817760724,71.35125083716534,-25.832921285773384,3
1767370242.461174,2,right_wrist,-1.12,0.3587,-0.4519,-15.61,-2.24,33.88,0.45214769003597194,-0.26942692148037867,0.7704536082178682,0.3596843587936627,136.94012368613613,62.940544025518825,-168.60209126662107,3
1767370243.361965,1,left_wrist,-1.2459,-0.205,-0.2137,-24.78,-7.21,34.44,-0.3226004469467304,0.7466730315119258,-0.36320088649277343,-0.45441550556008115,-158.18327663176333,65.91445191754218,-37.63455560860265,4
1767370243.361965,2,right_wrist,-1.26,0.2957,-0.2899,26.46,23.66,-54.04,0.4468489060970221,-0.32242815620774534,0.7764946858586029,0.30565035913232314,155.73715720046476,63.0057607096446,-149.90988292307165,4
1767370243.4136078,1,left_wrist,-1.0404,-0.0566,-0.3328,-3.78,0.7,51.03,-0.30990599828195076,0.7369087427621075,-0.38018800845806866,-0.4651675561497441,-164.64149217235035,67.10467703379187,-44.3604686625685,4
1767370243.4136078,2,right_wrist,-1.0058,0.0288,-0.5012,37.17,-16.45,-43.33,0.46461687540609864,-0.33017527106255823,0.7714258666954302,0.28287379104442373,162.38405727852486,64.63950329498046,-144.85521334076756,4
1767370243.490626,1,left_wrist,-1.0165,-0.0712,-0.4992,-12.81,6.65,40.11,-0.2786033937243985,0.7323018353465843,-0.4049662522138744,-0.4712923779578032,-176.23909048238218,66.33479055859817,-55.42706713298947,4
1767370243.490626,2,right_wrist,-0.9858,0.0459,-0.5353,5.6,1.89,-33.39,0.4680856105992823,-0.3426790141195791,0.7683733098633824,0.27031354224589044,167.17861370796254,64.76819150563036,-140.08021465644777,4
1767370243.542048,1,left_wrist,-1.1126,0.1259,-0.4719,-17.29,1.12,29.96,-0.263261663747363,0.7277127243588248,-0.41330744469370945,-0.47990045151883703,178.06573224749692,66.35890424738707,-60.45400315520095,4
1767370243.542048,2,right_wrist,-1.1478,0.1469,-0.4714,41.93,-14.91,-19.81,0.4833769623644044,-0.33729539075079057,0.7658379393814083,0.2570423744009361,170.41728848493614,66.03239070655528,-138.69539494142325,4
1767370243.608161,1,left_wrist,-1.4206,-0.0156,-0.4758,-22.33,-28.49,5.11,-0.2623036058902201,0.7218400149457466,-0.4054816530893834,-0.49571003638015365,176.40264477545767,68.18140913183463,-61.083929533685414,4
1767370243.608161,2,right_wrist,-1.4089,0.2606,-0.5802,22.75,-24.99,19.6,0.4956854437365173,-0.31842497745944415,0.7590326505600654,0.27707563945869723,163.53397341987477,68.26994361863518,-145.68714429097523,4
1767370243.659243,1,left_wrist,-1.4894,-0.0381,-0.5319,-2.17,-44.45,-22.12,-0.27770716155087105,0.7157968946795444,-0.3904193066013901,-0.5080219513203826,-179.8468989055734,70.7563485373673,-57.11030821894119,4
1767370243.659243,2,right_wrist,-1.5172,0.3811,-0.5993,-22.12,-18.06,56.49,0.4893345024601669,-0.2995948138114225,0.7611230104836647,0.3024672794727444,153.68489736363594,67.83827054041988,-154.8959421793966,4
1767370243.7142148,1,left_wrist,-1.6363,-0.0024,-0.5168,13.02,-18.69,-56.63,-0.2989179803710624,0.7176349091443825,-0.37211483517447747,-0.5071279203823137,-170.45562679285968,71.86559923469251,-47.89123570808221,4
1767370243.7142148,2,right_wrist,-1.4142,0.3182,-0.5392,-44.03,-19.6,62.86,0.4785014506987968,-0.2831189045726656,0.7604877885838172,0.3354673918097201,142.95178560223377,66.59837205208422,-163.98533890560927,4
1767370243.7873762,1,left_wrist,-1.2952,0.0434,-0.4319,57.54,10.01,-66.15,-0.35753238605935855,0.722568491200814,-0.3505280828303797,-0.47665021933251983,-147.80944777564005,69.96359957770672,-28.92761009329531,4
1767370243.7873762,2,right_wrist,-1.1546,0.2094,-0.5158,-25.34,-15.96,56.21,0.4712779189417838,-0.26941024286341225,0.7614652994760455,0.35423980839543584,136.86989772983625,65.31193875242576,-169.46001610398406,4
1767370244.661941,1,left_wrist,-0.6593,-0.0415,-0.4856,20.37,79.66,61.88,-0.3347301245813371,0.7435628911768704,-0.3704687892452711,-0.444772803527373,-156.13447821352136,65.42907442792037,-37.50715482753277,5
1767370244.661941,2,right_wrist,-0.8418,0.0571,-0.4665,22.61,-9.59,-43.19,0.43560122530716233,-0.31708673961151895,0.7796514161432352,0.3191414128239759,152.0241694874718,61.839041461872995,-152.70850396526342,5
1767370244.735944,1,left_wrist,-0.6407,-0.0244,-0.5153,-39.55,-70.49,73.15,-0.2904883398399228,0.7123382386822408,-0.38400457501463936,-0.5106184921210306,-175.994300945048,71.90887762610649,-53.75009114743543,5
1767370244.735944,2,right_wrist,-1.3293,0.2601,-0.3997,76.65,27.44,-46.27,0.4458916118039382,-0.32174907388654306,0.786580264081203,0.2809798785215464,160.7634483465567,61.91730862502377,-147.11551817533075,5
1767370244.809111,1,left_wrist,-1.1214,0.2128,-0.5002,-10.85,63.77,58.17,-0.25941968024791173,0.7175331810761216,-0.41014736058649864,-0.4996265667063564,174.14355452687903,68.40332910866526,-63.48736983593997,5
1767370244.809111,2,right_wrist,-1.0692,0.1664,-0.5802,32.48,10.5,-23.24,0.45300408450838797,-0.3330958512000188,0.7795294040379588,0.27598616192171177,163.62351998052347,62.88829206934491,-143.7820078838744,5
1767370244.8608909,1,left_wrist,-1.381,-0.2069,-0.5295,10.99,-12.67,29.05,-0.26246841410317595,0.7095643663055324,-0.4177169878721449,-0.5031314537082872,172.34238305186378,68.95255193050558,-66.23262344250004,5
1767370244.8608909,2,right_wrist,-1.4157,0.4226,-0.5519,40.46,-18.41,-1.05,0.4653536573022668,-0.32092582536686715,0.7800665226915112,0.2682327504686438,164.1880322245124,63.919760643410015,-145.17804302165928,5
1767370244.911197,1,left_wrist,-1.5201,0.0649,-0.5827,31.92,-36.12,2.66,-0.2813305744619701,0.699251563890528,-0.4192929660869056,-0.5060570786577278,174.6375766084812,70.67251073564206,-65.69970731743129,5
1767370244.911197,2,right_wrist,-1.4386,0.2894,-0.5905,-54.67,-37.94,33.39,0.4670805966555524,-0.31386463102677625,0.769379640851879,0.3022907174574706,155.70448673637603,65.29631939197178,-151.3193411011379,5
1767370244.964799,1,left_wrist,-1.5738,0.1527,-0.5534,9.73,-14.28,-37.17,-0.2914835696924813,0.7002167866502051,-0.410829858918768,-0.5059175894484939,178.65168312475663,71.44241775054623,-61.771482158843625,5
1767370244.964799,2,right_wrist,-1.4889,0.4446,-0.4773,-3.22,-61.25,54.67,0.4802223001531554,-0.2856662319644603,0.7625487093727572,0.32603805327719354,145.65517526846435,66.73124033658378,-161.93108231617484,5
1767370245.0402591,1,left_wrist,-1.3479,0.1103,-0.326,39.62,-31.36,-66.36,-0.35224647881542,0.6936655004191961,-0.3760496796357806,-0.5033261667508963,-155.81025949795242,74.40890384548132,-38.44616571924765,5
1767370245.0402591,2,right_wrist,-1.3552,0.4412,-0.4787,-39.06,-13.37,63.63,0.46848583057456084,-0.2677946669106773,0.762307627756484,0.3573431454349516,136.12360399843502,64.91094577914461,-170.0230473691013,5
1767370246.010196,1,left_wrist,-0.9218,-0.1205,-0.3875,0.77,36.75,30.8,-0.3751389872556268,0.722789073379288,-0.40237815605489996,-0.41825651838816785,-150.8404518570147,65.02850779611023,-39.3820818053297,6
1767370246.010196,2,right_wrist,-0.8843,0.2499,-0.4158,11.97,-0.07,-46.69,0.42149623609914577,-0.3078610626034721,0.7876800162784077,0.32729601440066686,149.2498324754229,59.943476491538206,-155.32599950264574,6
1767370246.085736,1,left_wrist,-1.018,0.0083,-0.3289,-44.94,-16.66,50.75,-0.34358533146374454,0.7099561704891723,-0.42707242251476685,-0.4421770029237914,-163.53779750689918,67.12044854162902,-51.09464265790583,6
1767370246.085736,2,right_wrist,-1.1161,0.3206,-0.5109,41.02,4.48,-46.48,0.43484857419676676,-0.31656903655095836,0.7858554915897292,0.30515882578503606,154.8712511911135,61.24251954530246,-151.1475252102031,6
1767370246.162642,1,left_wrist,-1.0736,0.0,-0.446,-46.97,12.74,40.67,-0.3150920071005574,0.7103840275557121,-0.4348530738943121,-0.45494435327821764,-172.35595929457247,66.98578124674079,-57.88243399025713,6
1767370246.162642,2,right_wrist,-1.1444,0.1679,-0.5436,1.05,-39.9,-38.64,0.47466297424892434,-0.3362525484733375,0.7585545363162282,0.2936397451920005,161.47985541608833,66.5762222081965,-144.4068490041028,6
1767370246.2432761,1,left_wrist,-1.6099,-0.042,-0.4046,23.24,-28.7,-46.34,-0.3308663620077394,0.7059224503272621,-0.41926054306573457,-0.46521128709860754,-167.52418447687052,69.10644629220559,-52.804400743286564,6
1767370246.2432761,2,right_wrist,-1.5479,0.5866,-0.5817,7.07,-4.97,15.82,0.4738608523354963,-0.32629134574280066,0.7613156397264,0.2989788404305751,158.57824861785826,66.43738693597572,-147.7229245927965,6
1767370246.316298,1,left_wrist,-1.6099,-0.042,-0.4046,23.24,-28.7,-46.34,-0.35309629748923055,0.7028682218189126,-0.40522162452672866,-0.46593422547869945,-159.43191440364387,70.24478112095514,-45.382852458574135,6
1767370246.316298,2,right_wrist,-1.3649,0.5617,-0.5407,-7.14,-4.06,43.33,0.4562923319715927,-0.30403645257391915,0.75603851640438,0.3574421701523992,141.27962240874635,65.13486551829821,-161.48436154728432,6
1767370246.3875892,1,left_wrist,-1.3522,-0.0864,-0.4348,40.11,3.99,-39.48,-0.3966209384119294,0.7023233529895657,-0.3909454391689298,-0.44339080127100844,-144.239628485378,68.89493742500837,-33.24906044320773,6
1767370246.3875892,2,right_wrist,-1.2415,0.3504,-0.3748,-34.3,-19.53,34.02,0.4552552353862879,-0.29596287761739326,0.749049654257226,0.3795698370299432,134.8254517413837,65.0525088373274,-166.59565664457415,6
1767370247.25337,1,left_wrist,-0.977,-0.1327,-0.4778,-2.94,-3.64,49.07,-0.36669345528226405,0.73719010283383,-0.3834981163887097,-0.4183489654144169,-150.02482983529762,63.903953803278384,-36.00918513553524,7
1767370247.25337,2,right_wrist,-1.1751,0.406,-0.3514,12.95,15.26,-55.72,0.4273073721822617,-0.2881266428757465,0.7807585018154073,0.3532812041232912,141.58992477799913,60.55490612418113,-162.47903040682007,7
1767370247.311258,1,left_wrist,-1.1165,-0.2503,-0.2669,-12.88,-30.59,51.52,-0.3597298458285547,0.7228838352133912,-0.39200564066086546,-0.44086843445341767,-153.66814310425292,66.84225059301085,-39.389695044593275,7
1767370247.311258,2,right_wrist,-1.0307,0.2186,-0.4314,47.39,25.34,-50.05,0.45110532242234375,-0.3138493743647567,0.7808459440643863,0.29712315616808016,156.5252603665281,62.998085772673505,-150.71753783885072,7
1767370247.36206,1,left_wrist,-0.9804,-0.0673,-0.4465,-20.16,32.13,59.71,-0.3324612223704192,0.7217441352000598,-0.41432420138492027,-0.44372333167305095,-163.7568772247796,66.34855392759991,-49.057159372345154,7
1767370247.36206,2,right_wrist,-1.2961,0.265,-0.3113,-15.75,-27.86,-19.04,0.46327984557378943,-0.31907812925914025,0.7688044200870552,0.3041392703486677,155.96792496169468,65.01678624985921,-150.3693414527255,7
1767370247.412182,1,left_wrist,-1.1292,-0.0956,-0.366,-18.83,20.16,25.06,-0.318668339367397,0.7217209147611858,-0.4212317754127451,-0.4473624951465301,-168.16798377972017,66.09352992807312,-52.82652906133215,7
1767370247.412182,2,right_wrist,-0.976,-0.0088,-0.5651,23.24,10.15,-31.64,0.4668344952550847,-0.32869413097560407,0.7700510755846498,0.28468765918642597,161.88060882292316,64.97497793428595,-145.36500409939632,7
1767370247.4635992,1,left_wrist,-1.3659,0.0278,-0.4026,-10.01,15.26,53.55,-0.30173575186553286,0.7138676711461669,-0.43859372192037266,-0.45495497714666727,-175.5102909307654,66.0971940225958,-60.21043485045646,7
1767370247.4635992,2,right_wrist,-1.2449,0.3489,-0.5617,44.73,2.94,-17.57,0.4722250324083237,-0.3232856762989016,0.7746163288044539,0.2691828995616729,164.7279018656315,64.90859094543977,-144.44024626516554,7
1767370247.5368588,1,left_wrist,-1.5665,-0.2172,-0.4372,-11.69,-22.61,-22.82,-0.3075272804307133,0.7082396040511767,-0.42064349718767013,-0.476322037405418,-174.42072095819307,68.97420051275134,-57.58026160976263,7
1767370247.5368588,2,right_wrist,-1.4957,0.3919,-0.6769,-34.58,-33.88,26.53,0.4736029474880986,-0.3148058738435446,0.7679420971748395,0.2947243547976602,157.7545058253774,65.91782933536184,-149.94850363534482,7
1767370247.587102,1,left_wrist,-1.5001,-0.0488,-0.408,-1.82,-16.8,-46.55,-0.3211494832788503,0.7115917569186923,-0.40251415546716,-0.47799846811852376,-167.89071898293994,69.85332189865177,-50.51754199310231,7
1767370247.587102,2,right_wrist,-1.4123,0.1254,-0.7208,-26.39,-18.55,52.15,0.4682855963035624,-0.30243686498916356,0.7687677186882421,0.3134274041832004,151.43894671725118,65.44871285209571,-155.62842005480258,7
1767370247.6435761,1,left_wrist,-1.4025,-0.2367,-0.3748,5.11,-6.02,-67.62,-0.3410118915295952,0.7205508166755422,-0.3792220480940036,-0.4697957520699884,-157.48754942331655,69.33534090566371,-39.84065936576412,7
1767370247.6435761,2,right_wrist,-1.4801,0.5734,-0.5119,-36.54,-36.68,64.68,0.465722174665638,-0.2803420221185876,0.7641729430157347,0.34720443519897765,140.33976772648268,65.02017680770403,-165.5948931722241,7
1767370247.7117481,1,left_wrist,-1.4025,-0.2367,-0.3748,5.11,-6.02,-67.62,-0.3597213580468921,0.7279286034416089,-0.3563772126476969,-0.4622940353951224,-148.24546726088496,68.34568466969054,-30.311984825817497,7
1767370247.7117481,2,right_wrist,-1.1522,0.2913,-0.2621,-28.98,0.77,11.06,0.4490888085994047,-0.27746709239691414,0.7563359637578831,0.38637697208038113,131.63992954243966,63.34676467151235,-170.6757025413839,7
1767370248.585367,1,left_wrist,-1.0258,-0.2123,-0.3836,18.27,34.93,49.42,-0.3817378544057381,0.6914228143322094,-0.42268476804506366,-0.4444640471369096,-154.10855310693137,69.6086688274856,-44.719968545105345,8
1767370248.585367,2,right_wrist,-0.9233,0.243,-0.5026,28.14,4.27,-47.18,0.43135815962372875,-0.2626732905548033,0.8035171131886049,0.3151081232976901,146.90592074902239,59.17633143316944,-162.9455652039308,8
1767370248.637061,1,left_wrist,-1.0653,-0.1381,-0.2713,17.71,14.28,53.2,-0.37485696757563813,0.6790252622421777,-0.44417407009000537,-0.44845996761875817,-160.7373571295508,70.39612853101943,-52.72838087409591,8
1767370248.637061,2,right_wrist,-1.0014,0.3231,-0.4885,25.13,38.01,-47.88,0.4303146101537474,-0.27983152343169476,0.8063357745629356,0.2938473641912002,152.97887870038784,59.13870699382643,-157.24819649746277,8
1767370248.707608,1,left_wrist,-1.2991,-0.041,-0.3143,-69.02,19.6,58.94,-0.33839296786327244,0.6798345007348743,-0.4514224487113932,-0.46854351314542814,-173.62554747254552,70.48952625835553,-62.663293392282135,8
1767370248.707608,2,right_wrist,-1.0243,0.1757,-0.5661,38.78,-27.09,-23.87,0.46384089351828617,-0.288027444977782,0.7912415604093819,0.2753699502862565,158.03901923744343,63.20797801170441,-153.6110500400402,8
1767370248.758393,1,left_wrist,-1.1663,0.0434,-0.4499,10.5,-6.44,34.37,-0.33190475550265247,0.669589010652135,-0.46541233007288524,-0.4742163568506966,-179.46732884501532,70.73544776871411,-69.22603657105999,8
1767370248.758393,2,right_wrist,-1.1854,0.2211,-0.5451,-6.58,-15.61,-10.85,0.47277853608105935,-0.2911073094980994,0.7838166100052499,0.27815195857247915,158.0137577857827,64.5669174572943,-153.24355003795358,8
1767370248.8371892,1,left_wrist,-1.5699,-0.1937,-0.5246,7.77,-16.03,-25.69,-0.36017504224353153,0.673748907789121,-0.4437576292977332,-0.4684180981109638,-167.00900577930796,71.96234239805142,-57.28983932642225,8
1767370248.8371892,2,right_wrist,-1.5455,0.4382,-0.4929,-17.85,-52.01,32.83,0.48514501594656906,-0.27517410673805554,0.7736396498456423,0.30065797290248014,150.37017632050743,66.36548869892195,-160.4662944226706,8
1767370248.890713,1,left_wrist,-1.7744,-0.06,-0.4519,-1.75,-39.34,-67.83,-0.3811903914104027,0.6764615801706227,-0.41695877320160846,-0.4724817430331651,-155.15886638718888,73.15908370921471,-44.73281954357944,8
1767370248.890713,2,right_wrist,-1.5792,0.6095,-0.5949,-45.29,-23.8,63.91,0.4771740632913993,-0.25711944903245426,0.7703858044868535,0.3357085261001966,139.57916557019485,65.20999438177856,-169.58763508168283,8
1767370248.958108,1,left_wrist,-1.5221,-0.0625,-0.4099,21.07,-11.06,-84.84,-0.4036802733625324,0.6840718613568361,-0.3967214869402843,-0.4601086689007657,-143.24594341186364,71.76701130730488,-33.194714037748376,8
1767370248.958108,2,right_wrist,-1.2073,0.4817,-0.406,-31.01,-7.14,41.51,0.4560580404099896,-0.22997686539617246,0.7669917799417102,0.38838809799194174,126.18172443010515,61.42911265530853,179.823372686116,8
1767370249.839091,1,left_wrist,-1.2742,-0.1737,-0.4997,23.59,-56.7,44.87,-0.39489924749992367,0.684141205131047,-0.3865796596413975,-0.4759848343354797,-143.74640247382385,73.05829072204848,-31.67604179872294,9
1767370249.839091,2,right_wrist,-0.9306,-0.1171,-0.5744,50.26,2.03,-60.62,0.4758695596179518,-0.28824339352824324,0.7712081413745767,0.3093572546327458,150.30708241626556,65.82925844783837,-158.4853602877409,9
1767370249.8892858,1,left_wrist,-0.9721,-0.0522,-0.3963,-56.63,44.8,45.57,-0.3575702622649807,0.6959164320419543,-0.3981545744464115,-0.47887029768523526,-157.83848913521703,72.03477385222726,-43.343775496054135,9
1767370249.8892858,2,right_wrist,-1.4045,0.2899,-0.3567,65.8,16.1,-42.14,0.4867763110505511,-0.2903086161938085,0.7757570764236966,0.2774359182626001,158.33774621934992,66.39451664061411,-153.23661772566243,9
1767370249.939637,1,left_wrist,-1.2381,-0.1371,-0.2645,-43.54,17.92,49.49,-0.3320284815984419,0.6955967350643236,-0.4059478081001665,-0.4910281526287029,-167.98896498022782,72.30492812996874,-51.74492022190364,9
1767370249.939637,2,right_wrist,-1.2063,-0.0537,-0.4475,-37.1,-19.74,-13.3,0.49261728635083507,-0.30270397935368537,0.7640118576418735,0.28632916626567506,158.33840676226842,67.83129933425357,-151.43280309469884,9
1767370250.012233,1,left_wrist,-1.0555,0.0556,-0.468,2.31,6.86,47.74,-0.3178563929249825,0.6888250697923896,-0.42419173912542063,-0.49451866007257983,-176.59905131906092,71.97800390935933,-60.78084332520595,9
1767370250.012233,2,right_wrist,-1.4103,0.2806,-0.3162,-72.38,-35.49,21.98,0.49636669466172817,-0.2955853033707971,0.7632988191508501,0.2891787432449041,156.47312468460726,68.23402462969891,-153.72337397490386,9
1767370250.092424,1,left_wrist,-1.5743,0.041,-0.8145,-18.06,-22.4,-20.23,-0.2913280637398041,0.6940926806276164,-0.40903198266163937,-0.5158063077713129,176.63213367268065,72.62289687013458,-63.497385609188186,9
1767370250.092424,2,right_wrist,-1.2712,0.1215,-0.5192,-18.9,-44.24,30.52,0.504415254257906,-0.2864060033753982,0.7557176715596204,0.304019166163861,150.88577483824866,69.47787273708248,-158.9041006231649,9
1767370250.159285,1,left_wrist,-1.5474,-0.0864,-0.3714,41.44,-31.99,-74.83,-0.329418849311221,0.6938063219957912,-0.38884351711974563,-0.5088386074887497,-166.96352675706908,74.20792669284184,-48.65783155619741,9
1767370250.159285,2,right_wrist,-1.4713,0.4992,-0.5246,-52.5,-12.25,66.78,0.4831263151432283,-0.25039656194996857,0.7600738387849585,0.35521582872172003,133.2967570829187,65.82697256106935,-174.75812185012114,9
1767370250.23678,1,left_wrist,-1.2917,-0.0483,-0.3138,54.46,-17.85,-64.47,-0.39464009068263917,0.6870087518795643,-0.3621610372195884,-0.4910372254594485,-137.87217630422447,73.8507181374935,-23.307234246216442,9
1767370250.23678,2,right_wrist,-1.3181,0.3631,-0.5046,3.92,-29.26,56.77,0.48315638425795304,-0.22805468507809912,0.7619872638923917,0.3659595314109151,128.17964397240073,64.5866857926811,179.18797789562376,9
1767370251.121154,1,left_wrist,-1.3259,-0.2948,-0.3245,-27.93,14.35,42.07,-0.38842691754181763,0.6873618030620453,-0.3659944429509801,-0.4926523613556095,-140.83582734671597,74.06734575251788,-26.020030395933208,10
1767370251.121154,2,right_wrist,-0.9575,0.1581,-0.426,-28.14,26.25,-31.57,0.4388989622454742,-0.3016245073424314,0.7863855789563405,0.31303047570449494,151.4796919979672,61.5367463383284,-155.23971764468644,10
1767370251.187701,1,left_wrist,-0.9496,-0.0678,-0.4626,-8.05,-16.8,50.05,-0.3570859107496955,0.6817401756060282,-0.38551344329947934,-0.5090180452047861,-157.39711741587658,75.7798317514437,-41.29539380122669,10
1767370251.187701,2,right_wrist,-1.1883,0.2508,-0.4904,71.75,38.5,-41.51,0.44384579267239344,-0.3079104968255807,0.7954373961326638,0.274720561853907,160.21280563913197,61.07834087722784,-149.42742537277846,10
1767370251.2625751,1,left_wrist,-1.0199,-0.2396,-0.2377,-61.11,-10.43,48.65,-0.33293690842817775,0.6818851483528419,-0.3818730074948423,-0.5275970674756959,-167.01435512334209,76.85570317186325,-48.18094603007597,10
1767370251.2625751,2,right_wrist,-0.8955,0.0386,-0.5651,44.8,-37.1,-27.86,0.47619233760575297,-0.30861831626532793,0.7781158016641272,0.26931652691900504,162.67821404815615,65.13452990235307,-147.84507961727425,10
1767370251.336063,1,left_wrist,-1.4455,0.2274,-0.4939,-59.22,-8.89,25.83,-0.2717305460268137,0.6881975544517703,-0.38598074828282825,-0.5509677834116985,168.17903983040003,75.49250544510632,-67.73696769862178,10
1767370251.336063,2,right_wrist,-1.1161,0.4119,-0.5558,53.62,-43.54,-35.28,0.4994824846480111,-0.30186118029064407,0.7716843554455551,0.25278514775193356,166.64720628974473,67.44289799594875,-146.20676308212157,10
1767370251.386454,1,left_wrist,-1.547,0.0532,-0.5963,-30.24,-58.59,-7.21,-0.2732422244164196,0.6808611993622768,-0.37035613583755317,-0.5697394550550318,166.08021239115644,78.0202015425968,-68.38333292441317,10
1767370251.386454,2,right_wrist,-1.3967,0.2094,-0.509,-25.97,-34.79,-4.76,0.5087604634346845,-0.3028774650262461,0.7597970233420407,0.2685824181616782,163.52861874823103,69.35850782293889,-147.97014950316182,10
1767370251.464727,1,left_wrist,-1.5967,0.081,-0.6022,20.3,-28.84,-53.69,-0.29585093944005697,0.6817843588887446,-0.35705850037893205,-0.5658193500705394,179.79888026147137,79.35970950519756,-55.45001476502583,10
1767370251.464727,2,right_wrist,-1.4206,0.3684,-0.6886,-35.14,-1.19,56.91,0.5001275108109189,-0.2765134629468207,0.7657340367575131,0.29506636997508745,151.70351145871922,68.2963419287526,-159.69487726132184,10
1767370251.515722,1,left_wrist,-1.6475,-0.08,-0.4802,42.91,-28.98,-73.08,-0.3307101024662347,0.6824066271207095,-0.3420304993711007,-0.5549478902459806,-156.54287196565028,79.61735936382509,-33.6080761109875,10
1767370251.515722,2,right_wrist,-1.5294,0.2708,-0.6002,-45.43,-17.36,59.99,0.49040304681981506,-0.26531972370357493,0.7647221008377318,0.3229712129184682,143.01831978623557,67.13535779374207,-166.75567647115423,10
1767370251.5828109,1,left_wrist,-1.3264,-0.12,-0.2645,40.88,-1.05,-50.68,-0.37727071332781575,0.6892395383423322,-0.32467777851334934,-0.526497870641854,-132.08932558224882,76.10778964562985,-12.092306751540548,10
1767370251.5828109,2,right_wrist,-1.2986,0.3499,-0.4524,-6.3,-37.73,56.56,0.4907429168838364,-0.24078349148946493,0.7639880814593109,0.34280739656928044,134.58172234445988,66.19553295845137,-175.5308369290151,10
1767370252.533077,1,left_wrist,-0.9994,-0.1527,-0.4412,6.02,15.54,46.06,-0.34146924727810357,0.717667125488424,-0.4361000350670596,-0.4221011840436096,-163.45093640893228,64.64685840967252,-52.05588020333485,11
1767370252.533077,2,right_wrist,-1.0951,0.3479,-0.3362,39.34,18.97,-19.32,0.48399686622330007,-0.2422066605680895,0.773362790324534,0.33014082086880736,138.62179569059634,65.30367053136123,-172.4283469498378,11
1767370252.587928,1,left_wrist,-1.1229,-0.0805,-0.4192,-24.92,1.75,43.12,-0.3250832024849689,0.7111239229228149,-0.4455653998715687,-0.435999027689595,-169.75588773428808,65.4763930484166,-57.54308423708722,11
1767370252.587928,2,right_wrist,-1.0233,0.3733,-0.4089,-11.48,-15.12,-19.81,0.4873201547704049,-0.24767392898037544,0.7685335471333401,0.3324648531628849,138.42652143057677,66.02594251296041,-171.98453945976976,11
1767370252.660347,1,left_wrist,-1.2503,-0.1196,-0.3675,-32.2,-10.43,26.53,-0.31397494943153914,0.7068866740553196,-0.4449275583280921,-0.4514093807318067,-173.90641527409343,66.57521862825058,-60.371144644390895,11
1767370252.660347,2,right_wrist,-1.3615,0.6017,-0.3806,44.94,-19.81,-12.11,0.5043639259123508,-0.23686148821261574,0.7675296195460353,0.3168784447694477,139.5611223520254,67.56920796567627,-173.3854797136676,11
1767370252.711287,1,left_wrist,-1.4074,-0.2006,-0.4982,-11.41,-19.81,10.5,-0.31574768938682163,0.7022588388296359,-0.44084488898561053,-0.46129351153880266,-174.40241012549083,67.86313973824822,-60.469774169708444,11
1767370252.711287,2,right_wrist,-1.5655,0.469,-0.4968,47.81,-38.08,1.12,0.519523197230579,-0.21780009663147268,0.7665563346465724,0.30830204550059376,137.63120308688704,68.55736197133021,-177.87237559454076,11
1767370252.762114,1,left_wrist,-1.5836,-0.0337,-0.428,-34.58,-36.05,-37.66,-0.32083092480452785,0.704909849038481,-0.41631869834366647,-0.4762860105304927,-170.70142552107754,69.81995485378293,-54.635575674131225,11
1767370252.762114,2,right_wrist,-1.3845,0.2801,-0.4704,23.38,-25.97,34.3,0.5251048115422846,-0.1999106714302397,0.7680348917407821,0.3072833633833394,134.738987659617,68.35018613359436,177.57110346022142,11
1767370252.837028,1,left_wrist,-1.5313,-0.1298,-0.2811,-5.67,-14.0,-52.36,-0.3562415680201397,0.7089370582869654,-0.37887042243645386,-0.47640045718365887,-153.75213764469038,70.9817213880986,-37.364119132268904,11
1767370252.837028,2,right_wrist,-1.4245,0.1679,-0.4504,-68.6,-7.91,61.88,0.5140747735235703,-0.19669793374469863,0.7620326508424518,0.3410913208178742,126.93446929813996,66.5874251958778,172.63845083762857,11
1767370253.814806,1,left_wrist,-1.0448,-0.3587,-0.1806,-12.25,8.75,41.65,-0.3898207418590792,0.724996238407631,-0.4128930008894109,-0.38979432182595913,-148.1814394994957,62.51197813457138,-39.69358304835172,12
1767370253.814806,2,right_wrist,-1.1463,0.3021,-0.3367,36.19,-11.41,-43.12,0.48868495483931207,-0.22816843923492294,0.7837000564244807,0.30812400070598933,141.98112436538196,65.03600692629753,-172.30939393241792,12
1767370253.866953,1,left_wrist,-1.2307,-0.0215,-0.3279,-33.04,-26.46,37.17,-0.37662961670389167,0.717126543354223,-0.4155949016752599,-0.4137155186113214,-152.3044921379019,65.0156863211793,-42.33171175938745,12
1767370253.866953,2,right_wrist,-1.1126,0.3514,-0.3943,-13.3,-39.62,-22.75,0.5035518760486603,-0.23082225063820536,0.7704989064889713,0.315417234528311,139.2098329496378,67.15860979885427,-174.37644326703526,12
1767370253.93601,1,left_wrist,-1.81,-0.2396,-0.5905,13.65,-30.24,-30.03,-0.3792232763471292,0.7038624917359569,-0.4062231336478583,-0.44243650967467985,-151.47753272909793,68.57985417182385,-40.31557574659156,12
1767370253.93601,2,right_wrist,-1.2844,0.2167,-0.5876,44.17,-7.14,-21.84,0.5119934740628402,-0.2293803059815344,0.7740701524831938,0.29336454588025246,144.15980720505843,68.00580929698656,-171.59976826767763,12
1767370253.986451,1,left_wrist,-1.81,-0.2396,-0.5905,13.65,-30.24,-30.03,-0.39230180974495943,0.6989957145517461,-0.3965515716835032,-0.44749428164443267,-146.43777999070244,69.50929144487915,-35.498354125604614,12
1767370253.986451,2,right_wrist,-1.6856,0.5549,-0.6285,-0.63,-10.71,19.81,0.5099260384187285,-0.2192514304627464,0.7752762902280876,0.3014148625943903,140.74125872056936,67.34463102769382,-175.15064095206122,12
1767370254.058176,1,left_wrist,-1.7714,-0.429,-0.468,55.51,-41.16,-63.0,-0.43140861359275345,0.6907065482756631,-0.3785833449530436,-0.4398701208439398,-132.48811241722498,69.11383345324589,-23.726872630434844,12
1767370254.058176,2,right_wrist,-1.5733,0.5378,-0.5056,-68.6,-16.17,69.51,0.4887143558565627,-0.18933103352518615,0.7676510840542591,0.36881411479810666,123.28719629723558,62.87074953107497,171.19393230709196,12
1767370254.111902,1,left_wrist,-1.4845,-0.2772,-0.2323,36.33,17.5,-25.2,-0.44425186987799575,0.6889157950082213,-0.381871225059395,-0.42686024758664476,-130.0939718463478,68.0385279490099,-23.126633000878485,12
1767370254.111902,2,right_wrist,-1.1971,0.3548,-0.4558,-10.92,20.44,40.88,0.4740380999976637,-0.18359600772209203,0.7747405935600093,0.37597526300196804,123.2533617213984,60.75847027979216,171.52717044523467,12
1767370254.9853199,1,left_wrist,-0.917,-0.1547,-0.5065,30.66,25.97,45.99,-0.44618415332647654,0.6748882693903285,-0.45103136449058595,-0.3768504125053103,-140.4649843362414,65.66475161686401,-41.39853905619214,13
1767370254.9853199,2,right_wrist,-1.3357,0.4709,-0.246,52.85,31.43,-37.94,0.4592666092747292,-0.2345504170500231,0.7984145305781519,0.31079659076093935,143.8874175803426,61.541826412600685,-169.2282096746078,13
1767370255.0363781,1,left_wrist,-1.2322,-0.1703,-0.388,1.61,25.34,34.3,-0.43377195645501704,0.6699406042887329,-0.4683803932156483,-0.3790003743660272,-146.08615988090327,66.08615626155212,-47.481184958007695,13
1767370255.0363781,2,right_wrist,-1.1273,0.426,-0.4616,-17.36,-25.69,-34.86,0.470880640446898,-0.24427032980648078,0.7865500982416359,0.316136634043929,143.1530689846534,63.532591587355356,-168.8041396545095,13
1767370255.087372,1,left_wrist,-1.2605,-0.283,-0.3079,-5.25,-8.68,28.0,-0.43109964682097657,0.6618130096871593,-0.4731904986033106,-0.3901889116200042,-148.12647247036602,67.585371385128,-49.49050974821848,13
1767370255.087372,2,right_wrist,-1.1082,0.2172,-0.4836,12.88,-18.83,-21.7,0.48222278181483863,-0.24909968454164083,0.7824053644936284,0.30537252900614037,145.70754864164877,65.05645777293653,-166.94265889844849,13
1767370255.1406562,1,left_wrist,-1.4894,-0.08,-0.4275,4.83,-18.06,5.25,-0.4336800591657931,0.6545364228645044,-0.4737582573696109,-0.39881924602481555,-148.16338889977553,68.90778868108261,-49.651463314685664,13
1767370255.1406562,2,right_wrist,-1.4298,0.4738,-0.4441,6.72,-12.25,-8.05,0.4891081553494818,-0.24683216188507898,0.7786551051792263,0.30584853017154306,144.92483064285673,65.87832383080051,-167.9656337256928,13
1767370255.208089,1,left_wrist,-1.6065,-0.3104,-0.489,23.24,-40.32,-66.99,-0.4612537321674181,0.6543633313806624,-0.45024629002101507,-0.39538829450091345,-136.5983688803863,68.8772891764386,-38.533975874988414,13
1767370255.208089,2,right_wrist,-1.5079,0.5646,-0.5573,-34.02,-1.47,51.66,0.48196770631656066,-0.22295147075209823,0.7722655305914872,0.3487201198922698,132.07260724280908,64.14616346862411,-178.9209947299889,13
1767370255.291164,1,left_wrist,-1.3893,-0.4734,-0.1088,-12.11,-15.96,-28.28,-0.4903118846414263,0.6583494906527043,-0.4146815876600985,-0.3926950277153985,-123.37881895238654,67.47429662460871,-24.838484565533516,13
1767370255.291164,2,right_wrist,-1.3898,0.4929,-0.3636,-44.8,8.26,33.39,0.47200152232766335,-0.22188025635943917,0.7681039834157579,0.3714834927948789,127.62509289495746,62.86598518678583,178.76531221718898,13
1767370256.286787,1,left_wrist,-0.9404,-0.3328,-0.3118,-13.09,4.13,51.66,-0.4504287240780071,0.6374525002370566,-0.4906864350867539,-0.3872920046797207,-146.57802907222228,69.35762168540319,-51.70614398240686,14
1767370256.286787,2,right_wrist,-0.9126,0.2996,-0.4416,8.19,-26.95,-33.53,0.47118334706501935,-0.24207085038889725,0.7770888289189135,0.33988366952537347,137.27308930218618,63.74763554173401,-172.73628794389214,14
1767370256.337582,1,left_wrist,-1.381,0.0498,-0.3079,-38.01,-38.5,31.43,-0.4410754954427666,0.6291500699369325,-0.4867712655189746,-0.415543417567078,-150.46503707835308,72.22901831939205,-53.684937098196215,14
1767370256.337582,2,right_wrist,-1.1531,0.4787,-0.3465,40.67,-44.24,-16.59,0.4931335448825338,-0.23046150858119807,0.7709998767809192,0.3305540651359046,136.25865907998335,65.89124633224759,-175.87856243513744,14
1767370256.410082,1,left_wrist,-1.5455,-0.041,-0.4202,-18.62,-28.77,5.25,-0.43836673822971,0.6244351974482386,-0.4815929026414146,-0.43125811659265173,-151.54321259815734,73.90722463521638,-53.68275812659351,14
1767370256.410082,2,right_wrist,-1.7231,0.3279,-0.4763,41.93,-10.5,31.71,0.4992190422796702,-0.2208173992485816,0.7703578468975129,0.3294978175009504,134.7226627163548,66.15923426752336,-178.4073962680321,14
1767370256.461055,1,left_wrist,-1.7251,-0.3045,-0.4177,18.13,-34.51,-51.52,-0.46336787327083234,0.6259562556609224,-0.4613330086015669,-0.4250186292317672,-138.07684155477486,73.66220244387311,-40.76274688645271,14
1767370256.461055,2,right_wrist,-1.4821,0.6959,-0.5739,-83.65,-35.14,81.97,0.48724963390896653,-0.20385796133997466,0.7591678421465797,0.3803865314445206,121.89415652000372,63.495350738018594,172.12279371870648,14
1767370256.537672,1,left_wrist,-1.5938,-0.2674,-0.3421,49.49,0.56,-64.4,-0.5016351148875654,0.6353079018946522,-0.43621527234075946,-0.39301694299181456,-122.52477510632339,69.55621429675884,-27.255508800891356,14
1767370256.537672,2,right_wrist,-1.4581,0.467,-0.3914,-54.95,-10.92,66.57,0.4765908486419717,-0.1946306370550682,0.7528815373519633,0.41006032339743376,115.86637793759074,61.31280964416322,168.24503171332202,14
1767370257.4611342,1,left_wrist,-1.1839,-0.2113,-0.2962,-5.32,17.5,63.14,-0.4724238839370309,0.6035536791692458,-0.5598134546357764,-0.3148770017893897,-148.50337376080566,65.37148737942886,-65.18135050751565,15
1767370257.4611342,2,right_wrist,-0.9823,0.3245,-0.608,33.6,-11.55,-34.02,0.46030839660435585,-0.19105884138761337,0.809908016103943,0.30929226403795607,139.81465240416318,59.7460717312814,-177.18538241417997,15
1767370257.533531,1,left_wrist,-1.1424,0.0908,-0.4602,-37.52,5.46,43.26,-0.4297435715612455,0.590844081337905,-0.5792608129787818,-0.36149777979527387,-166.44665725178012,67.675121746554,-79.75624189439688,15
1767370257.533531,2,right_wrist,-1.0497,0.5109,-0.5685,23.31,-33.6,-41.09,0.4760007874349827,-0.19465507185194902,0.8046041040121,0.29689204969226557,141.71894340110325,61.832027183210634,-176.2834773905054,15
1767370257.588004,1,left_wrist,-1.5499,-0.0908,-0.51,-6.65,13.58,14.84,-0.4232704974830764,0.5883728811888955,-0.5840558499160668,-0.3654287930920711,-169.23544331529317,67.58466433594582,-82.36219150094553,15
1767370257.588004,2,right_wrist,-1.3703,0.3967,-0.53,30.52,-41.58,-37.24,0.5011272817485889,-0.1976008717635405,0.7945305533963072,0.2802615611983155,144.02094410043216,65.10513304161113,-175.48925256235123,15
1767370257.6462238,1,left_wrist,-1.6138,-0.2972,-0.3972,5.67,-43.05,-68.18,-0.4494174971507609,0.5970575817818338,-0.5569289570879506,-0.3624586790911514,-158.25630861818757,68.97191336473335,-70.98555826795884,15
1767370257.6462238,2,right_wrist,-1.6592,0.5592,-0.4119,-29.26,-51.8,10.78,0.5167609056243552,-0.1924627513185894,0.7785475981150856,0.2996329308377276,136.93470657978855,66.92349156671473,178.53889207683554,15
1767370257.709729,1,left_wrist,-1.6138,-0.2972,-0.3972,5.67,-43.05,-68.18,-0.4746957431862759,0.6043788775000836,-0.5292568342251904,-0.3595515641163275,-146.39827328655457,69.56726308576414,-58.728476217156164,15
1767370257.709729,2,right_wrist,-1.5157,0.5661,-0.4441,-23.17,4.13,55.79,0.5014787633763945,-0.16123158145356012,0.7776503263663087,0.3431958579686526,125.09795141354282,62.95104148813943,168.14176887802918,15
1767370257.761188,1,left_wrist,-1.5372,-0.1435,-0.3728,41.09,-22.82,-69.86,-0.5009527259850385,0.6056098759295518,-0.5131632821467991,-0.344886199145568,-135.82663431476198,68.72885793384978,-49.5361506302621,15
1767370257.761188,2,right_wrist,-1.3215,0.5505,-0.3274,-53.2,2.94,41.72,0.4925963336088101,-0.1586872726234178,0.7707515979593357,0.371630429143833,119.79267128717758,61.316552432911706,165.33524198433116,15
1767370258.74201,1,left_wrist,-1.1858,-0.2474,-0.2928,-24.22,35.0,37.87,-0.47334273748841776,0.6076872128659023,-0.5520622358317182,-0.3192024309975201,-147.37408179620894,65.58559495883449,-63.15162059263248,16
1767370258.74201,2,right_wrist,-1.058,0.5031,-0.388,41.79,13.02,-42.77,0.4919851257825552,-0.16970603920858415,0.8018385847770728,0.29360752753899017,138.5026891257639,62.70275123796712,177.9072116625308,16
1767370258.794859,1,left_wrist,-1.0985,-0.2328,-0.3348,-7.07,-24.5,27.02,-0.47511492776904113,0.5970576287961,-0.5524305847980069,-0.3355718139044596,-148.69957526718258,67.76618946015084,-64.24402501654158,16
1767370258.794859,2,right_wrist,-1.1351,0.1723,-0.4494,25.06,-18.62,-38.08,0.5065520177620013,-0.17806159695929524,0.7978377857982808,0.2741422779179581,142.6245176897459,64.94762741558026,-179.1348211431138,16
1767370258.859663,1,left_wrist,-1.2952,-0.1405,-0.4997,-39.13,-8.05,22.96,-0.46009857706714397,0.5973084647467513,-0.5534723140413117,-0.353836536994732,-154.16240609227995,68.74919320861392,-67.80215583536827,16
1767370258.859663,2,right_wrist,-1.6582,0.5383,-0.548,-28.28,-21.56,19.18,0.5211063338199875,-0.1706920516008328,0.7829913666908391,0.29366125393146847,135.24798749622457,66.39028086886661,174.4468179462571,16
1767370258.9363651,1,left_wrist,-1.6246,-0.1288,-0.6085,14.07,-42.91,-49.77,-0.48720319421140845,0.5977749705013438,-0.5297918218224826,-0.3530138208658881,-142.9436918250502,69.76438234686711,-56.79767910464888,16
1767370258.9363651,2,right_wrist,-1.7231,0.6393,-0.488,-24.36,-35.77,58.24,0.5235875750886947,-0.14900378032626102,0.7748476472138702,0.3213487953429318,125.64018343318624,65.11654706852092,165.46558650636564,16
1767370258.989089,1,left_wrist,-1.3303,-0.3309,-0.3479,48.51,-39.34,-46.97,-0.519056860810711,0.5913957869125214,-0.5138988760290102,-0.34167081186950965,-130.9081756830301,69.6541215254023,-46.725310967374654,16
1767370258.989089,2,right_wrist,-1.3152,0.4758,-0.5148,-30.24,-0.21,58.73,0.5109967272261001,-0.13670995157687413,0.7762482016196469,0.3429744354705284,121.6930803791801,62.51064645658579,162.56831738259717,16
1767370259.885531,1,left_wrist,-1.1375,-0.2196,-0.3001,8.82,13.09,33.95,-0.47447881300760325,0.571570126126469,-0.5941248251079101,-0.308533854086004,-153.93406420070045,66.4191878291382,-74.98419542435532,17
1767370259.885531,2,right_wrist,-0.8808,0.3963,-0.5392,82.95,24.78,-56.14,0.45864690511151796,-0.15430381195033258,0.8220550234008882,0.3000981315346498,138.60498628906092,57.85222775993337,177.67506360539474,17
1767370259.939082,1,left_wrist,-1.32,-0.0903,-0.2035,-29.89,-28.42,26.11,-0.47208631377980936,0.5650369056841869,-0.5899654866902279,-0.3313737045557375,-156.93577089278685,68.67080447179718,-76.60458878135435,17
1767370259.939082,2,right_wrist,-1.0707,0.2962,-0.3567,81.2,-37.87,-44.1,0.4863158551774841,-0.15018879979402386,0.8195255636118792,0.2632832391286133,143.68282737821292,61.185048833787995,178.82180293615454,17
1767370259.9906821,1,left_wrist,-1.1492,-0.1362,-0.3221,-57.61,-16.45,30.24,-0.45898674074045653,0.5644723600370006,-0.584632495836988,-0.3590361700304387,-162.95607427377786,70.39174566317546,-79.94423588053778,17
1767370259.9906821,2,right_wrist,-1.0053,0.1371,-0.5256,-4.97,-65.73,-32.13,0.5129003672118739,-0.15760516298055213,0.8033071390395731,0.2584404501695786,143.3104870863134,64.8901894685195,178.39337796225212,17
1767370260.0601192,1,left_wrist,-1.3996,-0.1405,-0.4524,27.86,-14.42,13.3,-0.4692479022324527,0.5513104055949194,-0.5881744119398282,-0.3604359916440717,-162.6945049928863,71.69962880306801,-81.15638895214742,17
1767370260.0601192,2,right_wrist,-1.7451,0.6354,-0.6905,-45.36,-42.14,21.28,0.533309448771965,-0.1517932777716994,0.786331883189421,0.27243715266762913,136.6864311604983,67.13526058011364,172.32893134727698,17
1767370260.112619,1,left_wrist,-1.832,-0.2499,-0.4026,-0.14,-24.36,-28.14,-0.48266942559726633,0.5538653278884573,-0.5742314421147885,-0.36127783635781896,-156.3162946765468,72.65490541766495,-74.53940887857463,17
1767370260.112619,2,right_wrist,-1.6597,0.7076,-0.5173,-66.99,-14.63,51.66,0.5256511052846106,-0.14484691710545164,0.7781381241127706,0.3117873408597152,127.22584837694295,65.28259527601993,165.83005744590488,17
1767370260.189187,1,left_wrist,-1.5743,-0.2655,-0.2572,22.12,-6.72,-57.96,-0.5216902176113342,0.5687793243388478,-0.5403550618192827,-0.3351802563092905,-134.97105538628554,70.92351001645447,-54.165536594356055,17
1767370260.189187,2,right_wrist,-1.4869,0.5524,-0.4255,-23.45,-14.91,42.63,0.5202250157081493,-0.13278675595570374,0.776216524061597,0.33048678982366025,122.6574369275607,63.55767308345842,161.98536418195798,17
1767370261.13847,1,left_wrist,-0.9736,-0.2206,-0.3016,-42.07,9.94,30.1,-0.4942362796665548,0.5754991742142052,-0.534179213897041,-0.37307340803181116,-143.84958831067001,73.22159588525953,-58.47498507192246,18
1767370261.13847,2,right_wrist,-0.9892,0.1893,-0.3548,32.48,0.21,-26.53,0.5185306590788414,-0.12987211497972448,0.7979509159052508,0.2784484245815139,134.76722928025853,64.13827863437179,169.23087684975337,18
1767370261.195164,1,left_wrist,-1.4874,-0.0634,-0.5822,-32.27,-28.84,37.87,-0.48321080847756254,0.5690058765744811,-0.5346603440918666,-0.3960782037044372,-150.04394635695365,75.34097164345127,-63.09369985710373,18
1767370261.195164,2,right_wrist,-1.1112,0.4748,-0.4416,0.56,-10.85,-23.66,0.5220356984289795,-0.1345467107674543,0.7959166133646463,0.27548621881607593,135.4879551415102,64.84016408490884,170.0512151903332,18
1767370261.262034,1,left_wrist,-1.4874,-0.0634,-0.5822,-32.27,-28.84,37.87,-0.47220729460876054,0.5626273841569672,-0.534595943815761,-0.41794482216041334,-157.57002247593962,77.20653384226055,-69.08240924769656,18
1767370261.262034,2,right_wrist,-1.7719,0.7803,-0.5919,-26.81,-42.49,28.84,0.5424241001256899,-0.12445878897623147,0.7821743433336105,0.2801596010848829,130.01305380715738,66.67548814949579,163.98520353622848,18
1767370261.3147662,1,left_wrist,-1.9998,-0.3294,-0.5876,2.17,-62.58,-27.37,-0.4918174641173109,0.5595897338739738,-0.515205696086344,-0.42371924956539153,-144.08433306723254,78.81093342000534,-55.44959057809331,18
1767370261.3147662,2,right_wrist,-1.7695,0.7037,-0.611,-62.93,14.84,65.94,0.5222708224588458,-0.11698718942698867,0.7829129411335732,0.3171663792455192,124.0758220773029,63.124888632880875,160.87398166685492,18
1767370261.3835049,1,left_wrist,-1.4679,-0.3855,-0.203,15.61,7.84,-55.16,-0.5351170941081635,0.5745548953447864,-0.48997980418261927,-0.37875606836292186,-119.94040863915674,73.66332574826217,-34.09650560937144,18
1767370261.3835049,2,right_wrist,-1.544,0.7042,-0.3167,-26.32,13.02,60.27,0.5095470946730615,-0.10294639165005516,0.7830412506997463,0.3414823545354173,119.93130257469382,60.26186349817481,157.88016554296826,18
1767370262.309916,1,left_wrist,-0.9989,-0.1215,-0.2621,-30.24,-29.82,8.4,-0.4990433681275567,0.5779136223142481,-0.5099576976786506,-0.3961246122747472,-137.42575186891423,75.20229801778628,-49.44589855968405,19
1767370262.309916,2,right_wrist,-0.9643,0.2918,-0.4236,44.87,-0.42,-31.01,0.5041146774628942,-0.13634789536360195,0.8050206103025609,0.2814595181984271,136.55399213529552,62.67265503206739,171.95471100848653,19
1767370262.3603148,1,left_wrist,-1.1375,-0.2747,-0.4104,8.96,21.28,46.62,-0.48690312045847917,0.5714397306174798,-0.5285547064011172,-0.3962472812535713,-146.99374950615,75.36902378900582,-59.75354477452336,19
1767370262.3603148,2,right_wrist,-1.1156,0.3611,-0.426,-24.85,-24.57,-22.19,0.5146278745747035,-0.1492967261987395,0.7955273566471419,0.28285130914152234,136.31621884732158,64.58976479793813,172.82597137438,19
1767370262.411526,1,left_wrist,-1.2634,-0.0337,-0.3587,-46.13,-8.19,20.37,-0.4702895357823143,0.5743201090016027,-0.5265893078338876,-0.4143523449976722,-154.15243309334124,76.22557338652278,-64.62604343359406,19
1767370262.411526,2,right_wrist,-1.5699,0.6388,-0.4602,-42.49,-81.69,-1.96,0.5404919907854675,-0.14705151597771457,0.7699431754810552,0.30566610226776375,126.28618521984018,67.24890291492265,164.40329991925236,19
1767370262.483129,1,left_wrist,-1.7031,-0.1269,-0.408,7.98,-26.04,-32.62,-0.48002966358229393,0.5765743314534357,-0.5041593908841436,-0.427734580053358,-144.78831341975402,77.7590166101803,-53.62890206933721,19
1767370262.483129,2,right_wrist,-1.5177,0.7056,-0.3894,77.35,-27.23,20.72,0.5495682673648946,-0.11507861765180598,0.7751813506846589,0.28952634563301033,125.30450076449293,66.7319382804332,159.27193457378434,19
1767370262.546175,1,left_wrist,-1.5714,-0.3113,-0.446,13.37,-36.19,-63.77,-0.5022078902053798,0.583283301222398,-0.483107342376388,-0.4173429300618207,-128.87559658301382,76.43365723261084,-37.99214836342614,19
1767370262.546175,2,right_wrist,-1.4557,0.5427,-0.3484,-23.73,-0.84,40.11,0.5433764301007336,-0.10436673813020672,0.7728511445861281,0.31072616158758704,120.53246414848601,64.79059424630543,155.53942779093634,19
1767370262.609941,1,left_wrist,-1.7236,-0.3719,-0.2303,22.54,-22.68,-58.38,-0.5262801527221145,0.5864884188257068,-0.4642566175298616,-0.40438388755468724,-116.20121730606574,74.36349223611016,-26.181812122072753,19
1767370262.609941,2,right_wrist,-1.4201,0.4675,-0.3963,-100.52,24.78,61.81,0.5103553622355264,-0.09720107043645383,0.7725712692799976,0.3649972466013209,114.58427515761466,59.263630925862046,154.2092842116669,19
1767370263.53427,1,left_wrist,-1.1287,-0.3963,-0.1767,-5.81,-0.91,43.47,-0.5044659970150924,0.6171822578165664,-0.48140169216234635,-0.36448940900284577,-129.66264121386058,69.32762710956986,-39.907021593496246,20
1767370263.53427,2,right_wrist,-0.8979,0.3421,-0.4392,63.7,-19.32,-47.6,0.501702478320427,-0.10222971804664951,0.8052962557307201,0.29890073352423646,130.002686899199,60.36016785316406,164.12619167748085,20
1767370263.5886762,1,left_wrist,-1.0302,-0.283,-0.5636,17.43,-25.76,63.35,-0.5017387711142113,0.5975696680509665,-0.4968770788617742,-0.3798445285745852,-133.10609998465074,72.28316882767189,-44.33555360174037,20
1767370263.5886762,2,right_wrist,-1.0238,0.5963,-0.3943,21.77,-18.34,-36.33,0.5117325216792048,-0.10493656995232471,0.802762935863884,0.28755836163408766,131.2666113958738,61.8785632751566,164.5167879043215,20
1767370263.660576,1,left_wrist,-1.5514,-0.2899,-0.5041,-17.43,-3.22,38.01,-0.488643253911622,0.5936106906851463,-0.5052120274871192,-0.39193740009511724,-139.45621476334117,73.5471958676193,-49.93713156314611,20
1767370263.660576,2,right_wrist,-1.6729,0.935,-0.3206,-10.85,-12.81,14.77,0.5201224676748198,-0.11175237302489423,0.7922933113988428,0.29875631283006765,128.13861951435373,62.99319004320951,162.87679450393975,20
1767370263.7335029,1,left_wrist,-1.566,-0.1937,-0.3748,25.27,-41.58,-58.38,-0.5281750434630393,0.5797133821315934,-0.48749349042606327,-0.3838145578695256,-121.75928349077385,73.73338387464015,-34.77742260054626,20
1767370263.7335029,2,right_wrist,-1.4455,0.5431,-0.5558,-27.51,19.18,19.67,0.507548199285667,-0.11468245998449875,0.7959147241387533,0.30945518362585733,127.93902488890424,61.510955447545406,163.98807018294033,20
1767370263.7864902,1,left_wrist,-1.3742,-0.3079,-0.3518,20.58,-37.45,-65.45,-0.5493836128635874,0.5837738965598452,-0.46751742528998497,-0.37257635547966594,-112.0546340470091,71.56690441495574,-25.56986416761457,20
1767370263.7864902,2,right_wrist,-1.2522,0.4778,-0.5309,17.08,-4.34,35.63,0.5033096632089032,-0.09923861533575251,0.8008478285379894,0.3089884070200207,127.43689387620813,60.16665356695959,162.19919286513888,20
1767370264.774047,1,left_wrist,-1.3103,-0.2338,-0.2957,-14.42,52.29,65.59,-0.4800518874318847,0.5913510824398098,-0.5513274931944927,-0.34042925537947955,-147.95310701253544,68.74212174902304,-63.76182051698306,21
1767370264.774047,2,right_wrist,-1.1126,0.0634,-0.5402,59.22,-49.49,-31.57,0.5189881274003353,-0.1304838206336185,0.8178737353127729,0.21144230715700962,150.49724579387504,64.70409844579552,179.19093864979055,21
1767370264.834265,1,left_wrist,-1.2586,-0.1752,-0.4885,-16.1,-20.51,26.04,-0.45909753830391054,0.5825766720948183,-0.561608591549716,-0.36664650734973603,-158.31745801012548,70.53851161543368,-72.47382555629629,21
1767370264.834265,2,right_wrist,-1.3449,0.3504,-0.4002,34.72,-49.56,-4.62,0.5413276720796208,-0.11881832942905034,0.8073740811656043,0.2024688842626057,149.14652032130255,67.25309992462155,175.94500347596735,21
1767370264.913151,1,left_wrist,-1.5992,-0.0146,-0.5427,-20.86,-10.71,-2.73,-0.4539235327460215,0.5839145157562252,-0.5577455844922099,-0.37671889743944065,-160.1323709708501,71.13640084073035,-73.09690406720405,21
1767370264.913151,2,right_wrist,-1.6694,0.4699,-0.6954,-42.35,-14.7,54.53,0.5453130825514361,-0.09442824307397416,0.7953424037113409,0.24728002298382196,134.26190192929084,66.08129916870396,162.86025400662473,21
1767370264.988754,1,left_wrist,-1.6138,-0.1523,-0.4446,36.12,-37.59,-77.56,-0.5016745290782344,0.5875544036570981,-0.5221076528667462,-0.36125626421594537,-137.9828441621423,71.50866650143904,-52.33598254312681,21
1767370264.988754,2,right_wrist,-1.4772,0.8774,-0.5461,-23.52,19.18,63.7,0.5283689191969136,-0.07703436675349615,0.8002127171793342,0.2730413866615099,129.4456657583016,62.583422521411926,158.96900749580985,21
1767370265.066504,1,left_wrist,-1.5533,-0.2621,-0.3802,15.96,-35.07,-65.45,-0.5216082165544351,0.591112505709916,-0.5022312121560778,-0.3553514929650398,-128.05257087517575,70.74170448832419,-42.550364081700806,21
1767370265.066504,2,right_wrist,-1.0238,0.2708,-0.4724,30.8,49.56,6.65,0.4929320978190479,-0.05916997724749697,0.8202677826713483,0.28403807041252943,130.8655279241473,57.38227577822497,160.1590819630561,21
1767370265.9626172,1,left_wrist,-1.1234,0.0254,-0.3987,8.47,-13.37,44.31,-0.4526500336418014,0.6001455521838734,-0.537919047207576,-0.38154470496821624,-156.0511884580173,70.89894115871155,-66.56705944764924,22
1767370265.9626172,2,right_wrist,-1.0243,0.283,-0.3328,5.95,-36.4,-29.19,0.5255897343709784,-0.09686551071010753,0.8056179039671577,0.25564095283478705,135.6152182962514,63.68554016737019,165.27847252568398,22
1767370266.037112,1,left_wrist,-1.3386,-0.1318,-0.3489,-10.08,-8.61,18.69,-0.4406684014138287,0.5915180301597663,-0.5423020412020216,-0.4022763678112491,-163.5520772718235,72.52693271149295,-72.92462705731211,22
1767370266.037112,2,right_wrist,-1.119,0.429,-0.5124,24.15,2.17,-35.63,0.5266213480118679,-0.10352831550483503,0.8093341520410524,0.23860023899167676,140.098565711412,64.39953848227994,168.82721619189027,22
1767370266.113118,1,left_wrist,-1.5016,-0.0893,-0.5056,-4.13,-15.75,-20.44,-0.4436028195316624,0.5946368855038418,-0.5357074612416287,-0.403287774265349,-161.2429197763033,72.72727488071376,-70.16414676270763,22
1767370266.113118,2,right_wrist,-1.5318,0.6808,-0.6568,-28.56,-10.15,32.55,0.5199743663755497,-0.09341616022326082,0.8076470907664374,0.2619279597484731,134.65499278204064,62.72886430618918,164.6235044645681,22
1767370266.183566,1,left_wrist,-1.6485,-0.1864,-0.5632,44.59,-27.3,-60.41,-0.48785214572962754,0.6020751129500709,-0.5024102529920301,-0.3835228545492981,-138.6756731081438,72.18006457658107,-48.94618992297136,22
1767370266.183566,2,right_wrist,-1.5645,0.4104,-0.6695,-56.63,-6.16,54.04,0.512795319749139,-0.08873647200872076,0.80293817259928,0.29061501950476115,129.08688495707224,61.05233510892213,161.25348045499564,22
1767370267.136496,1,left_wrist,-1.2576,-0.1444,-0.3123,-45.22,-1.96,60.34,-0.4880960522284158,0.6223563238694512,-0.49739076458702547,-0.3564228910189027,-136.80609203245916,68.30936862030741,-47.19739930046512,23
1767370267.136496,2,right_wrist,-1.2649,0.4763,-0.3045,47.04,8.61,-77.98,0.5072424121834856,-0.06163942358959661,0.8164784891300075,0.2688281858916606,132.16044325911065,59.47931425354523,160.19523521933237,23
1767370267.2125828,1,left_wrist,-1.4904,-0.3465,-0.2303,-9.52,-40.46,34.16,-0.49051112013713455,0.6084347163781714,-0.4955925687160204,-0.378938046072289,-136.30526414731534,71.31701669846179,-46.23157433870777,23
1767370267.2125828,2,right_wrist,-1.4352,0.5568,-0.6393,5.39,-46.76,-13.37,0.5451596428975912,-0.06874778053606177,0.7999591068818176,0.24112265290507473,132.94846817913896,64.872370862182,158.89389267456417,23
1767370267.263264,1,left_wrist,-1.4742,-0.1601,-0.3597,-24.22,-15.05,14.49,-0.48231447507708225,0.6060695502059019,-0.4946349594379329,-0.39419373960803683,-139.00353536647705,72.73781281835548,-47.652417608689724,23
1767370267.263264,2,right_wrist,-1.6226,0.428,-0.5924,-5.95,-17.15,25.34,0.5476259916104248,-0.061866886189666244,0.7972961642413136,0.24616475822501874,130.66640564607383,64.64863957727806,156.46667691584562,23
1767370267.3188422,1,left_wrist,-1.6304,-0.3431,-0.4075,-5.95,5.74,-35.98,-0.4842688224385138,0.6181791394735332,-0.48587705109164464,-0.3837469874230471,-136.3162994357003,70.91577707677543,-44.46979810319814,23
1767370267.3188422,2,right_wrist,-1.5362,0.8257,-0.4987,-32.69,-5.74,57.47,0.5406588575456348,-0.04605425123791808,0.793714506305384,0.2749259685456512,124.3473971431163,62.077349419446136,151.39818175923534,23
1767370267.386197,1,left_wrist,-1.4762,-0.2645,-0.3392,4.97,8.26,-40.11,-0.5161401463560197,0.6207264584112413,-0.4827964253978063,-0.33941954093853316,-127.10585760853397,66.89023457026666,-39.3745171665046,23
1767370267.386197,2,right_wrist,-1.5377,0.5754,-0.3684,-68.04,2.94,60.62,0.5336440705374094,-0.04321752377248169,0.7851120608437524,0.311376465932985,118.11020873596912,59.86611022559482,148.21025757203515,23
1767370268.31315,1,left_wrist,-1.119,-0.3362,-0.3553,20.72,-7.28,29.82,-0.49511553107711725,0.6473479113950653,-0.4810610389808021,-0.3230813663357608,-132.34905288545352,63.46398055694802,-42.68737986368441,24
1767370268.31315,2,right_wrist,-1.0404,0.2967,-0.3514,-33.95,-20.72,-34.58,0.5351514433632514,-0.05523977595142272,0.7969999578013043,0.2745042205208965,126.15532760305022,62.050184711329436,153.96098962439314,24
1767370268.381971,1,left_wrist,-1.0482,-0.3645,-0.2777,-1.47,-25.69,31.36,-0.4795197580365985,0.6361843894923156,-0.49211444780351915,-0.3509324642746084,-137.98100711984043,66.70381449545972,-47.075254545021586,24
1767370268.381971,2,right_wrist,-1.0809,0.3855,-0.4904,64.4,-13.93,-31.5,0.5430503488325863,-0.05061044366292566,0.8023037804108077,0.24257688588069276,131.18757182114132,63.62898035365831,155.77559385562768,24
1767370268.43711,1,left_wrist,-1.22,-0.1259,-0.3426,-12.81,18.55,27.44,-0.46577402374665844,0.633649717244051,-0.503621987353811,-0.35764156426956234,-143.44786205479642,67.27758273417635,-52.168255207912715,24
1767370268.43711,2,right_wrist,-1.2,0.4441,-0.3728,3.15,-6.93,-23.8,0.550885792834783,-0.057752088671111146,0.7982491196409216,0.23661758704587077,131.82121135590953,65.06933149478012,156.43829436451475,24
1767370268.512084,1,left_wrist,-1.6982,-0.4475,-0.4338,5.74,-35.07,-3.08,-0.47805974595425493,0.6261586776593349,-0.49485254401536277,-0.366749436770651,-139.28663918065354,68.81601556723425,-48.121083225376424,24
1767370268.512084,2,right_wrist,-1.8315,0.7218,-0.7261,-36.54,-33.53,45.08,0.5621321673287407,-0.04655552262422337,0.7851799856744068,0.2556020341543015,124.21552707382887,65.03275287158081,149.49632536200062,24
1767370268.571116,1,left_wrist,-1.5557,-0.2264,-0.6515,64.05,-26.25,-34.51,-0.5031025045967801,0.616336312758224,-0.49244445437365497,-0.3528680756326317,-131.91533149154162,68.50833808881012,-43.45163550018567,24
1767370268.571116,2,right_wrist,-1.4996,0.5095,-0.3855,-13.93,1.61,81.9,0.5535806999462453,-0.025151954709546943,0.7850633779318585,0.2767512971090359,119.90621051604212,62.02025953062022,145.32468453961104,24
1767370268.637523,1,left_wrist,-1.4503,-0.3948,-0.2952,44.52,-26.81,-30.73,-0.538425907142087,0.6110104760909278,-0.46711906783925045,-0.34433053464127755,-118.56343379950353,67.48766783119717,-31.496645650114885,24
1767370268.637523,2,right_wrist,-1.1995,0.8281,-0.2801,-20.79,0.63,34.65,0.5480160988255853,-0.015505835300318913,0.7822593063481675,0.29581802198532386,116.71200571529396,60.060765736780546,143.05570828097706,24
1767370269.587376,1,left_wrist,-0.9887,-0.2747,-0.3655,-26.74,7.98,42.84,-0.46894062024175975,0.6335790110477774,-0.5098446300415648,-0.3445733371356147,-143.03724087377893,66.17770668198978,-53.0743014504015,25
1767370269.587376,2,right_wrist,-1.038,0.4216,-0.4255,-8.82,-14.77,-30.94,0.5300554674289951,-0.02076412620721964,0.8112933254083453,0.24579095316823343,130.0961632122994,60.48982038421067,152.5751424320687,25
1767370269.637391,1,left_wrist,-1.0936,-0.2054,-0.3636,-25.83,-0.07,38.29,-0.45411880792474596,0.6280035739481398,-0.5182705075130342,-0.36163973846848313,-149.04520327643675,67.65853547949531,-58.03751797057004,25
1767370269.637391,2,right_wrist,-0.9906,0.3836,-0.3733,31.99,-32.62,-34.44,0.5455017115399813,-0.02462563877811228,0.8075491163325684,0.22290330937922212,132.51997037971387,63.12782235356558,153.25422591205154,25
1767370269.693884,1,left_wrist,-1.3449,-0.2762,-0.3738,-22.33,-4.76,21.07,-0.4477919278585701,0.6251397197490894,-0.5183473989256614,-0.3741639936762172,-151.6686864156003,68.75399058672177,-59.73528103592662,25
1767370269.693884,2,right_wrist,-1.2278,0.7247,-0.4055,18.34,-28.77,-24.29,0.5573029433219312,-0.023201374792747503,0.8017252326588373,0.21473652900839216,131.98623898331832,64.63164087821126,151.84756349677818,25
1767370269.760973,1,left_wrist,-1.7656,-0.3094,-0.5026,42.84,-25.48,-12.11,-0.4690446614006569,0.6133084832614843,-0.5158446622409517,-0.37115238704413445,-145.92587814126566,69.91266354048624,-55.950808768188836,25
1767370269.760973,2,right_wrist,-1.5694,0.7081,-0.5451,15.26,14.07,39.06,0.551492994681034,-0.009885982842970266,0.7997845093357705,0.23685962675710348,127.21996502784603,62.47810163268945,147.9165607277233,25
1767370269.812036,1,left_wrist,-1.7495,-0.2982,-0.5339,31.85,-13.16,-42.14,-0.48442045344997364,0.6124061641355503,-0.5094357550410178,-0.3616223525916109,-140.1190519535445,69.46885996447898,-51.273595815006296,25
1767370269.812036,2,right_wrist,-1.3654,0.527,-0.466,-25.2,3.5,41.65,0.5444774519148524,-0.0035292640853089577,0.7998507992000728,0.2525283106313634,124.93997602143567,60.78377945844457,146.50816464426163,25
1767370270.788364,1,left_wrist,-1.1522,-0.3431,-0.1893,14.49,-10.57,45.64,-0.4945576535008704,0.6427525287409243,-0.4870232213645204,-0.32417633475098967,-133.2143553140232,63.955387265376864,-44.07602161634732,26
1767370270.788364,2,right_wrist,-1.0873,0.2933,-0.4016,30.31,-9.73,-52.92,0.5392937805771743,-0.007735637147084451,0.8157234258663623,0.20903987811313074,134.847631858093,62.01411889212316,153.02593973606236,26
1767370270.8448582,1,left_wrist,-1.1326,-0.2089,-0.2191,-32.9,38.99,51.66,-0.4695703399332167,0.6417070573618626,-0.5057593902462766,-0.33454923040517853,-141.74676013460848,64.73513195493206,-51.692355322557816,26
1767370270.8448582,2,right_wrist,-1.0702,0.3733,-0.3494,39.27,-10.01,-50.19,0.5504356770645722,-0.016617436506521036,0.8145068927842872,0.18254574173423846,139.55530353311224,64.51982479162419,156.15855812271167,26
1767370270.911972,1,left_wrist,-1.1463,-0.3143,-0.3231,-37.8,-1.89,32.55,-0.4564760139813969,0.6399790976231388,-0.5079356152785666,-0.3522184180259637,-145.95250957874376,66.14129269959635,-54.32529954861464,26
1767370270.911972,2,right_wrist,-1.425,0.3582,-0.3758,-17.64,-18.69,-8.33,0.5686080374912121,-0.02992136236670602,0.8050034590957433,0.16661045170817002,141.8201134658505,67.73378349526931,158.10497477281228,26
1767370270.9900632,1,left_wrist,-1.6494,-0.283,-0.4006,-25.41,-9.17,-16.24,-0.4573051199301763,0.6343521677530906,-0.5025209299684696,-0.3687032268589825,-145.9213215242996,68.03096480609605,-53.39803243234601,26
1767370270.9900632,2,right_wrist,-1.5406,0.7042,-0.4724,4.27,-7.84,35.77,0.5681626232031497,-0.012850919998311642,0.8033473454652168,0.177930126690514,137.0152918849677,66.55421927923217,152.85367901789488,26
1767370271.067693,1,left_wrist,-1.6226,-0.2704,-0.4626,19.95,-28.7,-48.58,-0.47668193919695867,0.6337866022012308,-0.48702853838982535,-0.36591265967101516,-138.26204210602793,68.146167800915,-46.161844145191125,26
1767370271.067693,2,right_wrist,-1.5514,0.571,-0.347,-13.02,-2.1,43.61,0.5630992490047514,0.0037767182645284617,0.7944082808928308,0.2276410670734359,125.62225998761924,63.24529004431223,144.35080786434352,26
1767370272.113863,1,left_wrist,-1.0658,-0.2552,-0.3279,-14.63,15.12,38.22,-0.4658523104806722,0.6172017702688138,-0.5292666969176477,-0.34917096547500126,-147.47142382464017,67.53874512564279,-59.150678552501105,27
1767370272.113863,2,right_wrist,-1.2825,0.1771,-0.3318,20.3,-25.27,-12.6,0.5629266668917224,-0.035749863415218276,0.8067636644796976,0.17597700032464225,141.31017678683267,67.05505356126193,158.88465128825845,27
1767370272.1879628,1,left_wrist,-1.3064,-0.3196,-0.1557,-37.66,0.84,22.33,-0.45777370661842043,0.611895887557878,-0.5211599386553645,-0.3800249658368854,-150.6668679125563,70.42745070532615,-59.91176250707919,27
1767370272.1879628,2,right_wrist,-1.3562,0.4641,-0.366,9.66,-25.55,-12.46,0.5743110098357239,-0.0338628102390741,0.799438533561471,0.17296879811477076,139.72600034976796,68.42969051902018,156.85027557480865,27
1767370272.26544,1,left_wrist,-1.3991,-0.2152,-0.4333,4.9,-14.42,4.13,-0.45897356858996285,0.6057224425161423,-0.5225092309386135,-0.38655877890951107,-151.48036270339273,71.42914028060073,-60.85344092276407,27
1767370272.26544,2,right_wrist,-1.4035,0.5934,-0.5183,-40.67,-37.17,41.65,0.5865794447240854,-0.015947954926706285,0.7835219402154168,0.20436141260499283,127.13306953549488,67.77627092042317,145.4027578942562,27
1767370272.3380108,1,left_wrist,-1.5948,-0.3372,-0.4085,45.71,-23.73,-47.81,-0.49450665219400325,0.6074573504299035,-0.494557207287972,-0.37665887360326794,-134.86888474740428,71.21472668833486,-45.15621588160162,27
1767370272.3380108,2,right_wrist,-1.3591,0.468,-0.4348,-29.05,-3.08,53.55,0.5795716663431556,-0.004319324812562802,0.782479450325326,0.22760478207620566,122.5991954802783,65.36367880097264,141.92598200495976,27
1767370272.389368,1,left_wrist,-1.3283,-0.3684,-0.2123,52.5,-15.54,-34.51,-0.5200594077394908,0.599682100952018,-0.4884176617298261,-0.36244693119102683,-126.05556076906413,70.51318359444069,-38.75022148943975,27
1767370272.389368,2,right_wrist,-1.3557,0.6227,-0.2577,-41.3,-12.11,50.19,0.5794629914697598,0.005500075471719665,0.7732761687208279,0.2573642507714697,115.8547845765429,63.295844520900886,136.94885341325843,27
1767370273.3681731,1,left_wrist,-1.1439,-0.3845,-0.1523,-11.76,4.48,15.33,-0.503130163844525,0.6213415868096103,-0.49372974665923824,-0.3420900583099446,-132.09503267230215,67.20991779032218,-44.04893886245478,28
1767370273.3681731,2,right_wrist,-1.1692,0.3797,-0.2987,54.39,31.78,-31.5,0.5480107390590436,-0.02784464057776744,0.8087905987764652,0.2115813630683541,134.82517297903672,63.926985540659544,154.84035229454614,28
1767370273.439297,1,left_wrist,-1.4572,-0.3436,-0.3479,-31.85,-9.24,22.12,-0.4754678857929487,0.6176253798626169,-0.5055186195377183,-0.3700271679617879,-142.1140916668796,69.68401048421609,-51.72607270463154,28
1767370273.439297,2,right_wrist,-1.3064,0.6037,-0.3523,-3.36,-21.91,-26.04,0.5590275162852925,-0.0338290581026208,0.8013947227869394,0.2100245917816086,133.8214254265067,65.53484067083835,154.1459493177439,28
1767370273.510924,1,left_wrist,-1.7075,-0.4797,-0.3621,-4.2,-63.35,0.77,-0.4910135038387406,0.6070866792125503,-0.48944979301391367,-0.38831739993118786,-135.02371170850313,72.2015303191123,-44.15722900510075,28
1767370273.510924,2,right_wrist,-1.5489,0.6471,-0.5431,3.29,10.71,26.18,0.5623262444415732,-0.030843834833652804,0.7935857631046419,0.2303464548514116,128.31299200235551,65.05563659046474,150.11973874469558,28
1767370273.561072,1,left_wrist,-1.6719,-0.3304,-0.4407,53.2,-33.18,-30.45,-0.5139692001467941,0.5969662237141562,-0.4855627084613731,-0.3790723482352415,-126.89100278398277,72.12255619692094,-38.253652816579056,28
1767370273.561072,2,right_wrist,-1.5538,0.4856,-0.4748,-38.71,-13.93,44.52,0.5619450504314237,-0.026199437985783773,0.7877305648114293,0.251021726164729,123.51544755727744,63.95844087969086,146.72950475674864,28
1767370273.613302,1,left_wrist,-1.8046,-0.4255,-0.3177,24.43,-5.32,-42.98,-0.5285472095464152,0.5969512240744754,-0.4777536686283306,-0.3688339944593701,-121.27011111974409,70.97607501492794,-33.62401421405616,28
1767370273.613302,2,right_wrist,-1.3684,0.5251,-0.5685,-36.47,-4.34,49.77,0.5549223286250923,-0.018005357435055564,0.7852624122208051,0.2740437195961688,119.6820009357963,61.8102290741295,144.26906714244873,28
1767370274.562568,1,left_wrist,-1.2971,-0.3177,-0.2084,13.09,20.58,22.82,-0.49554713642248566,0.6066907102811323,-0.5129752128846691,-0.3510211512259314,-137.4193343132427,69.12006370282796,-50.379895904157856,29
1767370274.562568,2,right_wrist,-1.0873,0.1952,-0.1737,2.1,3.57,-15.96,0.5958895289599806,-0.0060107849901538234,0.7704764304824185,0.22637493193974773,118.73630583353483,67.06669460571062,138.0408329866729,29
1767370274.6355588,1,left_wrist,-1.1561,-0.245,-0.307,-21.21,-26.53,29.19,-0.48078125719483644,0.5944430131122728,-0.5156690790591487,-0.3867457663561999,-144.0930635272534,72.87112224394242,-54.97735574023919,29
1767370274.6355588,2,right_wrist,-1.1653,0.4851,-0.2621,31.85,-25.06,-8.82,0.6026612671464843,0.004508393541138475,0.768184546203059,0.2160360489452454,118.11719112679957,67.51237924372093,135.6608184902843,29
1767370274.689845,1,left_wrist,-1.9749,-0.3645,-0.2591,-1.05,-19.53,9.03,-0.4855374945616216,0.5876968896160293,-0.5122314568957965,-0.3955813972836411,-142.4913647952676,74.23393073437511,-53.32954684219052,29
1767370274.689845,2,right_wrist,-1.627,0.5427,-0.2728,-46.83,-33.32,-3.22,0.6168098440642013,-0.007830626103364302,0.7529743846263683,0.2291590575492639,111.78473484036262,68.82364264585023,131.41615945813805,29
1767370274.7403011,1,left_wrist,-1.8149,-0.2508,-0.2577,14.28,-24.71,-41.44,-0.5031287628365021,0.5873582724968163,-0.4979461801292133,-0.3923280635270584,-132.8591584523542,74.14084359432866,-44.0964900715869,29
1767370274.7403011,2,right_wrist,-1.6494,0.8218,-0.3211,50.54,-22.75,16.87,0.6202468938484177,0.016566451838581294,0.7527579930668196,0.21994259982750816,110.8353392893564,67.89629141620867,127.6866653034213,29
1767370274.812929,1,left_wrist,-1.5792,-0.3572,-0.3758,21.7,-26.81,-67.48,-0.5242691404172941,0.5945871620897131,-0.47902763275247096,-0.37701525452397355,-122.33397349887782,71.9184401700285,-34.17284911794833,29
1767370274.812929,2,right_wrist,-1.3601,0.49,-0.3855,20.44,24.15,44.38,0.6009861484156186,0.041869607119345176,0.7606842963089461,0.24170640612361763,111.03734585148368,63.39064876896555,127.73543777761913,29
1767370275.763229,1,left_wrist,-1.3069,-0.223,-0.3455,-11.2,16.8,52.36,-0.4764725330846415,0.5989300375179037,-0.5349755693406189,-0.3578517508457775,-147.0494767095507,69.79429799182749,-60.23136523706353,30
1767370275.763229,2,right_wrist,-1.5148,0.3113,-0.3928,25.2,-3.64,-42.49,0.6001137970595873,-0.015089386594411926,0.7803603501602415,0.1751384163703491,130.55080165134007,70.37235485638223,146.2425678781843,30
1767370275.816103,1,left_wrist,-1.5065,0.0268,-0.2972,9.45,16.73,38.36,-0.4681176855743709,0.5880700927414669,-0.5509486037954406,-0.36262244063404486,-153.18561895294422,70.44359122269981,-67.16169493052232,30
1767370275.816103,2,right_wrist,-1.4674,0.2586,-0.3245,-14.14,-29.12,-1.47,0.6112735454362035,-0.02016674762131791,0.7713193849613542,0.17608055350625743,127.67057377347443,71.81911769050278,143.82793780196857,30
1767370275.887054,1,left_wrist,-1.5582,-0.364,-0.388,11.55,-17.57,-11.41,-0.48209843603975944,0.5836884694610178,-0.535950287880061,-0.37369259760871937,-147.62405977782493,72.364230117992,-61.14218884652572,30
1767370275.887054,2,right_wrist,-1.4372,0.2694,-0.4821,-1.89,-5.11,34.86,0.6080503505761259,-0.009782837744648162,0.7722350738825932,0.18393492848140175,125.32349833152456,70.51252265493461,141.30162234188538,30
1767370275.9438841,1,left_wrist,-1.6631,-0.2411,-0.3211,2.87,-34.37,-36.61,-0.49831304433059614,0.5838593531103928,-0.5187838328279312,-0.3763717582814207,-138.98727478207937,73.04416611054849,-52.28189316891497,30
1767370275.9438841,2,right_wrist,-1.6148,0.771,-0.3582,-46.83,-22.54,73.78,0.6076879040792935,0.007626403946375134,0.762236677025018,0.2228284034776994,114.91913942102,67.3694616379931,132.77445321802,30
1767370276.008776,1,left_wrist,-1.9701,-0.2347,-0.2352,-21.98,-36.54,-52.08,-0.51015644690757,0.5918290055366301,-0.49348197162506613,-0.382039751289319,-129.59309555850703,72.88391525462364,-41.31804215930719,30
1767370276.008776,2,right_wrist,-1.3054,0.5988,-0.5685,40.18,54.67,38.57,0.5875722952081952,0.045186163041988754,0.7654893378512736,0.2583468254291798,111.4240983134698,61.188890266699524,129.3296331654686,30
1767370277.014265,1,left_wrist,-1.2937,-0.2518,-0.2499,24.57,13.51,31.99,-0.4662112790304534,0.5717864183235418,-0.5728365313188274,-0.3571633289016924,-158.21626446377348,70.48738708749438,-74.62032290864663,31
1767370277.014265,2,right_wrist,-1.2039,0.4089,-0.3836,21.91,-32.55,-22.12,0.5691545791432949,0.015986158263468272,0.7982591518264306,0.19644295433927317,129.64502101995947,64.47335317837144,144.68071738435296,31
1767370277.082709,1,left_wrist,-1.4386,-0.1132,-0.5666,2.1,-8.47,-0.63,-0.4596571876359879,0.5724935314118396,-0.5632522827275837,-0.3790953604943502,-161.1073688257925,72.15055011410337,-75.2447157307444,31
1767370277.082709,2,right_wrist,-1.4215,0.7042,-0.3733,3.85,-32.83,-0.7,0.580865713636363,0.02200493878690327,0.7891708395875859,0.19829319538332166,126.06499516448478,65.24104198383348,140.72938526282744,31
1767370277.1397738,1,left_wrist,-1.7875,-0.0361,-0.4641,1.26,-58.45,-46.27,-0.48093419574735824,0.5711129159905115,-0.5407548493639557,-0.38744874427338427,-151.21489322733186,74.29941032721771,-64.86666139911262,31
1767370277.1397738,2,right_wrist,-1.6363,0.5871,-0.4455,-10.92,-3.08,28.49,0.5802558315352527,0.026314579502082682,0.7876723189233688,0.20538507948934337,124.37678698378076,64.59444055683673,139.29273492022205,31
1767370277.189951,1,left_wrist,-1.5728,-0.2733,-0.3192,46.06,-22.54,-59.64,-0.5106596517692626,0.5710741826832122,-0.5260874548534477,-0.36923297221865004,-136.57827122113451,73.54087506044915,-52.1635765214044,31
1767370277.189951,2,right_wrist,-1.628,0.6359,-0.4895,-17.85,-16.17,53.13,0.5784448598137035,0.041423118812471245,0.7833840772415765,0.223595744385524,120.09554298803427,62.59371756960171,135.33405473469347,31
1767370278.239816,1,left_wrist,-1.2551,-0.3323,-0.2996,-14.42,-20.3,35.63,-0.501203137267952,0.5916510212826827,-0.5250797640006265,-0.35076448743418653,-138.22130703694853,70.28862197192747,-53.100006506691265,32
1767370278.239816,2,right_wrist,-1.2542,0.4011,-0.4202,10.36,-16.59,-32.62,0.569849409075549,0.03147963054569389,0.7965027059157656,0.19966001929734856,127.42144257001375,63.53448367643322,141.45560057417842,32
1767370278.2906508,1,left_wrist,-1.7012,-0.2791,-0.4187,-4.62,-24.15,0.21,-0.5040017309110064,0.5864609038129083,-0.5208374837653384,-0.3616271270834741,-137.0545591104825,71.6527709307572,-51.51017454455063,32
1767370278.2906508,2,right_wrist,-1.6128,0.5104,-0.5685,6.02,-7.28,4.2,0.5708325688959924,0.03301144812399785,0.796848858598994,0.19517253682277919,127.96476731624833,63.746886490553315,141.48834245621848,32
1767370278.358913,1,left_wrist,-1.7885,-0.4704,-0.3553,5.88,-25.62,-36.47,-0.5200617322036173,0.5888587506217905,-0.5042094594584731,-0.3585442615718615,-128.8299925922551,71.2097242694606,-43.29522616914579,32
1767370278.358913,2,right_wrist,-1.5035,0.8169,-0.4494,-71.89,-34.37,64.61,0.5772849418659244,0.06382496122051463,0.7726893356352239,0.25616334791623163,113.30210921093935,59.25203882432961,129.51946376823366,32
1767370278.413381,1,left_wrist,-1.6304,-0.4182,-0.3933,39.97,-30.45,-42.77,-0.540759626100833,0.5855081529585722,-0.4943806315034786,-0.3469106812892193,-121.01136179552564,70.20667662259811,-36.98847886980848,32
1767370278.413381,2,right_wrist,-1.4547,0.6407,-0.3406,-21.07,-1.68,44.59,0.5745928495596808,0.07062396653854196,0.7691280359233256,0.2707348831273441,111.20774862783887,57.73951926632656,128.14855904020285,32
1767370279.339051,1,left_wrist,-0.9257,-0.183,-0.4333,-14.42,7.14,36.75,-0.49243376662571725,0.5965546884303379,-0.5494520917738964,-0.3158067257736614,-142.68837638592288,66.6252404917885,-60.272233305941654,33
1767370279.339051,2,right_wrist,-0.9677,0.4973,-0.4724,91.56,-17.85,-44.73,0.5605822123537916,0.08056974039654316,0.8071456740059952,0.16664921559482287,131.32271627122873,61.41272251197058,138.52516394594716,33
1767370279.389736,1,left_wrist,-1.181,-0.1893,-0.3577,-16.31,2.94,37.8,-0.481121261497806,0.5888501174239054,-0.5589353105438465,-0.3307101292247739,-148.25630279172358,68.01910599358891,-65.29364732361404,33
1767370279.389736,2,right_wrist,-1.1375,0.2943,-0.306,-25.83,-34.79,-34.58,0.5785159277336345,0.06209741596026539,0.7967332627477822,0.1633381165583324,129.85757819127977,64.36388802499722,138.27819057539125,33
1767370279.461807,1,left_wrist,-1.4401,-0.3499,-0.3777,-25.55,-18.69,18.97,-0.47917900458391255,0.5858751579088697,-0.5541866199395146,-0.34643176989306823,-149.45050915508935,69.56037893892677,-65.3366811399363,33
1767370279.461807,2,right_wrist,-1.6802,0.6759,-0.4846,-46.34,-10.43,32.41,0.5859272895741842,0.065322454947271,0.7909163877804389,0.16393125312842055,127.70525549965011,64.88020739701616,135.8982517398385,33
1767370279.534562,1,left_wrist,-1.6724,-0.264,-0.509,42.7,-41.51,-49.28,-0.5213115793781243,0.5797020544749646,-0.5274152095246463,-0.3376580548511527,-132.62191212584085,70.2841825064669,-50.2671340703633,33
1767370279.534562,2,right_wrist,-1.4557,0.6803,-0.528,-35.42,-9.1,48.16,0.5836280790699607,0.07581712610674057,0.7857603407776629,0.19029113371619197,122.44128644977438,62.66400793258968,131.99834574374051,33
1767370279.594074,1,left_wrist,-1.4889,-0.4216,-0.4846,2.24,-24.92,-37.8,-0.5310430410598096,0.5861132424888823,-0.5135887678164377,-0.33270276989215347,-127.39339028718781,69.30558480520195,-44.72627856645267,33
1767370279.594074,2,right_wrist,-1.2995,0.732,-0.5056,19.25,6.44,31.22,0.5751658261062884,0.09307162162281168,0.7893109249773389,0.19367552617558287,122.53584321276195,60.68228837681478,130.96950533587574,33
1767370280.5396428,1,left_wrist,-1.1297,0.0171,-0.4431,-10.5,-41.58,14.91,-0.46809337458848926,0.5768854544284475,-0.5667812596206565,-0.35616115576809587,-156.12779384867991,70.31206124182167,-72.05193067447439,34
1767370280.5396428,2,right_wrist,-1.0658,0.1845,-0.6315,52.85,-15.12,-37.8,0.5351869022601123,0.05580251649107945,0.8274114464603383,0.1607835721362675,139.04988122006387,60.19191098678078,147.86115303755446,34
1767370280.6214058,1,left_wrist,-1.1122,0.0156,-0.4817,-7.35,2.87,3.85,-0.46139732517766646,0.5773879055829503,-0.5698374315247573,-0.3591949560318133,-158.67319879907757,70.15806275673835,-74.18080022957328,34
1767370280.6214058,2,right_wrist,-1.2649,0.3362,-0.3884,-7.0,-34.16,-6.16,0.5665761376388668,0.05011509750654667,0.8086806235231009,0.1500520123104713,136.26048928857725,64.33192914884377,144.57299724513788,34
1767370280.689882,1,left_wrist,-1.7383,-0.429,-0.4197,5.46,-41.44,-16.17,-0.4857694512742774,0.571437771171732,-0.5496686369212723,-0.3679012142845973,-149.64339283539385,72.6478552690743,-65.21539678990929,34
1767370280.689882,2,right_wrist,-1.4494,0.6974,-0.5212,-13.23,-17.15,20.58,0.5705373842982615,0.05813070054415478,0.802764086572571,0.16333320569207369,131.9783408745943,63.769665829702575,140.73957806191456,34
1767370280.760894,1,left_wrist,-1.8661,-0.1942,-0.4304,14.7,-24.29,-38.36,-0.5011560938311989,0.5709331133479412,-0.5377489845675889,-0.36565554733274397,-142.14254727021086,73.0426409118624,-58.072270404632334,34
1767370280.760894,2,right_wrist,-1.7222,0.7413,-0.5915,-72.1,-2.73,64.12,0.5686804293204111,0.059713119192148056,0.7824855768767803,0.24648171267684268,117.05525660160588,59.37637782071506,132.79524455135157,34
1767370280.813709,1,left_wrist,-1.8422,-0.2816,-0.3089,50.33,-0.63,-71.26,-0.5262892328069309,0.5739860765972328,-0.5268031734038982,-0.3406435729550615,-131.10109554096474,71.00570918780316,-49.15129379275059,34
1767370280.813709,2,right_wrist,-1.0648,0.6017,-0.082,-44.66,-12.67,13.72,0.5747994494954611,0.05485203982763805,0.7718105666895358,0.266280483199275,112.60559279294169,59.099510951347476,130.4516831269452,34
1767370281.740833,1,left_wrist,-1.2229,-0.2406,-0.2054,-18.69,-7.91,30.24,-0.49816853708032055,0.6050583229368588,-0.5128921073323597,-0.3502487983480605,-136.68292076023477,69.20478388925693,-49.931128961048294,35
1767370281.740833,2,right_wrist,-1.1297,0.2699,-0.4665,58.73,15.4,-43.19,0.5335117727163406,0.07640550022725343,0.8213406585739758,0.18688742729610944,132.8872365934954,57.976574511414206,142.21101625222096,35
1767370281.813157,1,left_wrist,-1.1863,-0.2416,-0.2001,-29.33,-7.14,23.31,-0.48963685382795336,0.6028174857039464,-0.5124754712321287,-0.3663819341731297,-139.56088018815794,70.66115027973977,-51.473916388878976,35
1767370281.813157,2,right_wrist,-1.1561,0.4441,-0.4821,-1.33,-31.15,-5.18,0.5606561512448014,0.0690286726266092,0.8061885890997224,0.17595363375666304,130.5912584677687,61.60589351628115,139.5372603939257,35
1767370281.888915,1,left_wrist,-1.688,-0.4153,-0.3938,-29.47,-43.05,11.13,-0.49103851728755116,0.5961481607789746,-0.49948948796281956,-0.3924268038176413,-137.31889694919377,73.4207930690788,-47.4319794436957,35
1767370281.888915,2,right_wrist,-1.605,0.7037,-0.5358,-30.45,-25.76,15.26,0.5705674309392054,0.07074875768631858,0.795144619546727,0.19285345224591782,125.32042004090478,61.651889940575394,135.5385785238417,35
1767370281.9683368,1,left_wrist,-1.8012,-0.2542,-0.4451,26.39,-57.4,-52.85,-0.5158758267700684,0.5912365858896447,-0.480596729813065,-0.39158423634365475,-124.58394816364142,73.51505402928642,-35.374305335040944,35
1767370281.9683368,2,right_wrist,-1.442,0.7139,-0.4099,-29.19,-14.7,64.82,0.5759684377800522,0.09909574370421356,0.7747116097072357,0.24137587709988406,114.26001102556151,57.626988535747046,126.28668963944331,35
1767370282.93428,1,left_wrist,-1.1063,-0.3611,-0.225,10.99,-17.15,41.02,-0.5125755756337711,0.5935618160384487,-0.516765601171185,-0.3433714654001273,-133.26874507567234,69.61730606063215,-48.650180558286685,36
1767370282.93428,2,right_wrist,-1.0321,0.4519,-0.5168,34.02,-21.77,-54.18,0.56711704717467,0.031271198760669056,0.8011436765637666,0.18859792266577222,130.22730406982987,63.752120018935116,143.34577432907912,36
1767370283.012796,1,left_wrist,-1.1263,-0.2977,-0.1454,-58.66,-50.89,38.99,-0.5047787497860425,0.5881075522407448,-0.5049345599968305,-0.37995922265770415,-133.83657785017135,73.07255938892659,-46.24920007400097,36
1767370283.012796,2,right_wrist,-1.5684,0.4202,-0.3787,63.07,-2.73,-24.29,0.5820323517321873,0.02235617748614487,0.8010498993954501,0.13804927215978585,138.9998754832297,67.86542119464049,148.56305218669473,36
1767370283.065181,1,left_wrist,-1.5587,-0.0532,-0.2718,2.24,-0.49,45.57,-0.49596648978240654,0.5749819475495139,-0.5187456799052401,-0.3928306512795764,-140.77303547828905,75.0835052179628,-53.483363654971576,36
1767370283.065181,2,right_wrist,-1.6163,0.3655,-0.6217,-18.41,-10.01,24.15,0.5818380461512683,0.02571492822551864,0.7992266878854876,0.14845851908470725,136.21914633503914,67.28036524250582,146.3769033878566,36
1767370283.1377048,1,left_wrist,-1.6831,-0.2777,-0.4182,19.39,-25.41,-41.02,-0.525326094909166,0.578162887593502,-0.49753472246667413,-0.3771198342132633,-125.17294521777606,73.49790116733747,-39.08614400047175,36
1767370283.1377048,2,right_wrist,-1.6441,0.5314,-0.5963,-28.35,-18.62,62.09,0.581324843031578,0.042549097278399894,0.793581019495473,0.17458570013500593,128.86357427457395,65.20304857346287,139.83452428654672,36
1767370283.217213,1,left_wrist,-1.6441,-0.2269,-0.2596,15.82,-25.83,-49.35,-0.5409967435876036,0.5785820284537188,-0.48388923228802305,-0.3720437751847172,-117.39120504108904,72.56943798604168,-31.696714266552227,36
1767370283.217213,2,right_wrist,-1.199,0.4548,-0.3045,-15.26,-16.52,56.77,0.5902843836008212,0.07442385986946416,0.7702282250985104,0.22972574261655462,114.09770629485642,61.05837957372715,127.12190584916144,36
1767370284.135247,1,left_wrist,-1.1946,-0.3831,-0.0586,-34.58,-18.2,44.87,-0.508727391217126,0.6150084703483891,-0.48680579389855266,-0.3549382225852151,-129.43603659900006,68.73025461077746,-40.927697975712874,37
1767370284.135247,2,right_wrist,-1.1932,0.5553,-0.1781,24.43,-3.78,-38.99,0.5696915860727966,0.06193391949340288,0.7934747797061635,0.2049718525659107,123.98748993104564,61.48382724496978,135.96781552851903,37
1767370284.2074041,1,left_wrist,-1.6216,-0.2528,-0.326,-24.5,-17.85,19.11,-0.5015679436920664,0.6111564937566287,-0.48587115437725226,-0.37262120087795914,-131.1286625495299,70.53659887373895,-41.34150846625231,37
1767370284.2074041,2,right_wrist,-1.5123,0.5788,-0.4524,52.99,-25.97,1.68,0.5928165232087529,0.06483518573726031,0.7822794773099141,0.18001052158368042,122.94509475691054,64.70963046643777,132.52070777088727,37
1767370284.263453,1,left_wrist,-1.6216,-0.2528,-0.326,-24.5,-17.85,19.11,-0.4940978915234559,0.6070946155527036,-0.48485957217642894,-0.39014689109088196,-133.0917305499614,72.33524764661946,-42.03154519591105,37
1767370284.263453,2,right_wrist,-1.5284,0.7471,-0.4568,-15.61,-21.91,39.62,0.5951426103496649,0.07884918747049946,0.7748818027936857,0.19785416518394683,118.04224429725215,63.01547089396968,127.97113471109579,37
1767370284.314455,1,left_wrist,-1.7544,-0.3216,-0.426,2.59,-20.72,-21.84,-0.4995744734073924,0.6071442682352491,-0.47787824892095293,-0.391705964056018,-129.869601206503,72.38578310847133,-38.62896235797574,37
1767370284.314455,2,right_wrist,-1.3313,0.7091,-0.3416,-39.27,-31.92,51.59,0.600785730145739,0.09191269264325733,0.7610381701897587,0.22678065812264833,111.03934228698097,60.78023177022082,122.35101009945075,37
1767370284.3673651,1,left_wrist,-1.4455,-0.4363,-0.3157,52.22,-46.9,-40.25,-0.5313446521910591,0.5981235212337482,-0.4635946368592477,-0.380790134602049,-117.22084184617228,71.47338062587953,-28.151185694952193,37
1767370284.3673651,2,right_wrist,-1.2571,0.63,-0.2952,-69.51,3.99,36.89,0.5963670387685993,0.08465465983660572,0.7556379217696519,0.2572766503629162,107.69993145991683,59.06106847139171,122.25207739954318,37
1767370285.365112,1,left_wrist,-1.0272,-0.3231,-0.1762,-24.43,29.47,37.59,-0.4907858271004603,0.616911635225916,-0.5156750619594082,-0.3356017531440564,-138.4786985962171,66.96196601972441,-51.63359769179847,38
1767370285.365112,2,right_wrist,-1.1424,0.3806,-0.3758,46.55,-32.62,-40.25,0.5602064113205405,0.09743716563658975,0.8084896702498336,0.15172089034600456,132.62802803816837,61.196314098005935,137.17045220095903,38
1767370285.437472,1,left_wrist,-1.4962,-0.141,-0.3601,-21.28,-39.69,15.54,-0.47135985416033066,0.6146386584108291,-0.5140736779222768,-0.3684663636485032,-144.77572363878932,69.64817314141877,-54.91126960956479,38
1767370285.437472,2,right_wrist,-1.2229,0.3963,-0.5915,3.22,-34.93,-20.16,0.5714012592908873,0.09238805622912771,0.8030454689820373,0.14171458179880908,132.6422043323417,63.067014795942356,136.75293377564637,38
1767370285.494773,1,left_wrist,-1.4816,-0.1742,-0.5022,-28.91,-2.1,-12.04,-0.4626326861234681,0.6220475509307237,-0.5084535105213567,-0.37483712429504906,-146.2517476437145,69.51886672447978,-54.749632650922955,38
1767370285.494773,2,right_wrist,-1.4572,0.7154,-0.508,-4.27,-21.35,3.99,0.578106042066248,0.09690277947835929,0.7966864645649997,0.14728860320740209,129.73340073752334,63.20093390656905,133.93127570332808,38
1767370285.559278,1,left_wrist,-1.6041,-0.3353,-0.4509,59.22,-11.13,-35.07,-0.48908347374762146,0.6141333361007518,-0.5046669621831515,-0.3590944979772735,-137.8987855018149,69.18172203764112,-49.09434096246947,38
1767370285.559278,2,right_wrist,-1.1522,0.6051,-0.4968,-88.62,-29.19,42.49,0.5887421229718067,0.10407700826797106,0.7733981389395148,0.21072733015329018,115.91786943836273,60.088925784942376,124.87167929936156,38
1767370285.61285,1,left_wrist,-1.4645,-0.4397,-0.2796,-8.61,-19.46,-52.29,-0.5019768125622825,0.6233051872325635,-0.48288361339875463,-0.3554340151557699,-130.74438232993003,68.1067954625389,-41.1016029517224,38
1767370285.61285,2,right_wrist,-1.4557,0.5148,-0.1386,29.96,-18.9,14.7,0.5950759136717566,0.11648600223178703,0.7690786595388409,0.20207346113163863,115.05408981668121,60.25509221209924,122.23418667015451,38
1767370286.615919,1,left_wrist,-1.1644,-0.2191,-0.3416,10.29,5.11,27.51,-0.4870785131371048,0.5891863789219796,-0.5225836444584977,-0.37751856573872916,-143.27698682010532,72.54180885835645,-55.767292913708374,39
1767370286.615919,2,right_wrist,-1.2376,0.5651,-0.4446,32.97,-11.06,3.43,0.5722911287896353,0.13374687549435285,0.8001369605702872,0.11989779619962174,132.51110435109774,62.098166728420104,131.35480790319295,39
1767370286.686644,1,left_wrist,-2.0486,-0.1347,-0.408,26.46,-44.03,-6.72,-0.49420483571606,0.572667330613762,-0.521669188710771,-0.39455667064747035,-142.36055136692403,75.3575847824609,-55.1711860130919,39
1767370286.686644,2,right_wrist,-1.9613,0.693,-0.5841,-47.25,-49.49,30.38,0.593354824978518,0.1335390591784296,0.7813547372628139,0.1399362208486827,124.23986051301091,62.8565771250374,124.77310437624548,39
1767370286.7376618,1,left_wrist,-2.1335,-0.1889,-0.3201,-40.81,-28.77,-86.8,-0.5050122320943881,0.5931939033073075,-0.4867047942705443,-0.3952240905463025,-129.62108930384238,73.83682318207873,-39.81200604694613,39
1767370286.7376618,2,right_wrist,-1.6973,0.7252,-0.63,32.55,11.97,79.38,0.5792772370954449,0.1685166518306352,0.783405175251133,0.14938658583889616,123.509105669133,59.01135067435404,121.90051362022864,39
1767370286.81036,1,left_wrist,-1.4884,-0.3919,-0.3865,111.02,-27.93,-86.03,-0.5521018215203705,0.5835067231893682,-0.47699457682907476,-0.3566225684702906,-114.09671023515357,70.54140680203807,-29.27029276403871,39
1767370286.81036,2,right_wrist,-0.8716,0.5114,-0.2904,13.23,11.55,26.74,0.5739842459012497,0.1794734586536006,0.7720350096110012,0.20565336620398267,116.10015489611558,54.33631520406558,118.32866551934322,39
1767370287.737717,1,left_wrist,-1.1278,-0.286,-0.185,2.1,-0.28,15.82,-0.5095922408033803,0.6071548833709144,-0.5101903969273214,-0.33374309670011637,-132.8213926843651,67.70542415586945,-47.4293043841955,40
1767370287.737717,2,right_wrist,-1.178,0.3977,-0.307,5.67,-26.81,-12.25,0.5777198702681724,0.12844892943435982,0.7930395231953861,0.14432234294982793,127.62333090076267,61.55001232455568,128.95024349499548,40
1767370287.788675,1,left_wrist,-1.3254,-0.181,-0.3777,-2.38,-21.98,12.74,-0.5094079317255629,0.5999101001635412,-0.5108219919370666,-0.34593687772526027,-133.15235714090437,69.30836105388777,-47.485653781146944,40
1767370287.788675,2,right_wrist,-1.2244,0.5636,-0.4826,20.16,-9.87,-2.24,0.5770896692963561,0.1346992654605645,0.7937729095333015,0.13692402844951687,128.48758321785195,61.55432787498034,128.67355286899516,40
1767370287.858876,1,left_wrist,-1.8241,-0.5314,-0.306,11.34,-50.4,-24.99,-0.5297628267964942,0.5937001716749654,-0.4928636492528424,-0.35207510099817574,-124.08146686673754,70.09455508462888,-38.55312956680248,40
1767370287.858876,2,right_wrist,-1.7514,0.7876,-0.5607,-39.55,-0.63,65.8,0.5805664053736579,0.15222240443006907,0.7795274723282114,0.1791867975790278,119.84268017259004,58.27507479895518,122.11420508118394,40
1767370287.9136472,1,left_wrist,-1.9339,-0.4285,-0.2406,18.13,-19.81,-52.85,-0.5472887397932689,0.5951173906976274,-0.4774620869718418,-0.3440062239106097,-116.96372884501514,68.75941610014546,-31.95689173514629,40
1767370287.9136472,2,right_wrist,-1.2268,0.5876,-0.5085,-24.92,-4.13,59.64,0.5764825837438793,0.16586657094820398,0.7746173264665926,0.2003100317498194,116.9570870883033,55.75687952526574,119.87772615720137,40
1767370288.888584,1,left_wrist,-1.1448,-0.2562,-0.4294,-38.85,-13.65,34.79,-0.49790554479892896,0.5996987914665342,-0.5122421443154432,-0.3606375099170589,-136.98388246290216,70.50045906335414,-49.87999795770163,41
1767370288.888584,2,right_wrist,-1.0292,0.4255,-0.2874,-3.29,-7.91,-35.84,0.5870563103322326,0.14718179574766763,0.7737508887375796,0.1871148569125476,117.50116907100914,58.582418474135,120.86290826453855,41
1767370288.961758,1,left_wrist,-1.6436,-0.2552,-0.4246,-11.83,-15.47,-17.36,-0.4984989732371192,0.6018145185497782,-0.5048917549780508,-0.36660929434402056,-135.54095181346295,70.84557006693785,-47.57283326859932,41
1767370288.961758,2,right_wrist,-1.4752,0.7017,-0.4734,-16.45,-17.01,2.73,0.589441175386259,0.13783880259636944,0.775744164487118,0.17827101986090677,118.8170511240294,59.92449841043782,122.20987752411722,41
1767370289.012664,1,left_wrist,-1.6436,-0.2552,-0.4246,-11.83,-15.47,-17.36,-0.49873579560789816,0.6041707413140371,-0.49771830742667844,-0.37217846253071396,-134.16482688130574,71.11649047332175,-45.33259255872317,41
1767370289.012664,2,right_wrist,-1.3791,0.6725,-0.5529,-17.22,-30.52,28.14,0.595860500288754,0.1453339247817625,0.7670793509644531,0.1881955999143393,115.37265503357935,59.25400638046839,118.97513828896592,41
1767370289.063952,1,left_wrist,-1.6011,-0.3821,-0.4031,33.81,-28.77,-47.04,-0.518405790668276,0.6031509578486011,-0.4865669691203656,-0.3615479813371055,-126.32136841410257,70.15497578618253,-38.66409228258308,41
1767370289.063952,2,right_wrist,-1.5035,0.6852,-0.4041,-31.78,-27.58,48.16,0.6030125811395318,0.1527185246026088,0.7554638515199331,0.2057358701765701,110.80518109251828,58.02389864482098,115.2750846408045,41
1767370290.041611,1,left_wrist,-1.2029,-0.2484,-0.3758,-31.92,-1.68,36.75,-0.4771602763644091,0.6198690461846593,-0.5297749864223581,-0.3277482265446323,-143.47192106976573,65.76885007220973,-56.94855068974537,42
1767370290.041611,2,right_wrist,-1.1131,0.6173,-0.3187,16.87,-6.79,-17.78,0.5904454283004776,0.14243935751619152,0.7742446444909915,0.17784953220758912,118.36320874311808,59.72696220673255,121.33589604419922,42
1767370290.108913,1,left_wrist,-1.2137,-0.3411,-0.3255,3.22,-10.22,29.68,-0.4786954852552994,0.6094118665522678,-0.5345496075000421,-0.3372306724232323,-144.65031163699368,67.33857780218328,-58.54296060915628,42
1767370290.108913,2,right_wrist,-1.3522,0.7437,-0.1732,-0.56,-3.29,-6.23,0.5976647977784973,0.13753676154013947,0.7722187476875771,0.16600793487441676,118.71049220214209,61.32928918609118,121.09177965370284,42
1767370290.1649752,1,left_wrist,-1.4913,-0.1337,-0.3709,5.04,-13.3,14.42,-0.4804875573124867,0.6005714030585457,-0.5372537813029472,-0.3461272476587975,-145.5055059439586,68.75441072323596,-59.64782952790242,42
1767370290.1649752,2,right_wrist,-1.3513,0.6681,-0.3353,-4.06,-20.3,10.43,0.6057108113517072,0.14272022717116312,0.7637672296405494,0.17147877039175552,115.50146652435697,61.19886761514039,117.90749415874345,42
1767370290.241521,1,left_wrist,-1.4835,-0.4216,-0.1898,27.51,-29.75,-10.36,-0.5078271668941423,0.5883447812396422,-0.5222425236521984,-0.35103380669350015,-135.83958685418315,70.64369533749064,-51.1126872100933,42
1767370290.241521,2,right_wrist,-1.3293,0.7515,-0.2391,-33.67,-3.36,27.93,0.6082155752370404,0.14478068458119306,0.7563148564487137,0.19261413584220374,111.69137281908722,59.79504967330033,115.70672202221779,42
1767370290.313765,1,left_wrist,-1.259,-0.3104,-0.3099,19.04,-7.28,-13.65,-0.5191940075434824,0.5848746500378126,-0.5180585989935789,-0.3463733740963569,-131.64481546876567,70.58158506349002,-47.80966437637801,42
1767370290.313765,2,right_wrist,-0.9379,0.5427,-0.3845,17.43,31.71,3.29,0.5802385702616984,0.1389559387737554,0.7740350932440779,0.21185873379871764,115.83572104895252,57.073860843097215,121.99842625672812,42
1767370291.3609228,1,left_wrist,-1.1351,-0.0088,-0.3138,-24.85,-11.27,57.89,-0.49388667167538436,0.5969045449777188,-0.5412131575330051,-0.32690860777824166,-141.69063735053882,67.64761487205008,-58.193642394207316,43
1767370291.3609228,2,right_wrist,-1.0297,0.5807,-0.3904,23.38,-52.5,-31.99,0.5935628051218853,0.1747939374065937,0.7695120617040164,0.1580552520917068,118.56518857787204,59.121022927637696,117.15806437350335,43
1767370291.411919,1,left_wrist,-1.261,-0.2606,-0.3616,-49.35,-46.41,41.16,-0.48573330304463763,0.5882432132772647,-0.5351323507318795,-0.36285871568250555,-145.33627178588864,71.2199764973179,-59.38857029765215,43
1767370291.411919,2,right_wrist,-1.2576,0.6656,-0.3787,1.75,-30.87,-21.07,0.6022781781998755,0.17131635584876545,0.7651937696260133,0.14963354305926835,117.82096461068745,60.51093645177483,116.00413821955304,43
1767370291.484768,1,left_wrist,-1.6729,-0.3328,-0.3221,8.89,-34.51,-18.27,-0.5017561015187977,0.5771408992153904,-0.5232884169591251,-0.3759234359785533,-139.02400616399152,73.54608979716696,-53.191968772289385,43
1767370291.484768,2,right_wrist,-1.4006,0.6988,-0.3377,-15.19,-18.06,-1.61,0.6122673437943041,0.16734677147634178,0.7573445849337616,0.15346966303156168,114.91359263353452,61.16704098127464,113.7525739211331,43
1767370291.538309,1,left_wrist,-1.771,-0.242,-0.2098,2.03,-10.64,-41.72,-0.5126505147327048,0.5821483904486615,-0.5101408739816591,-0.3715494448058759,-132.31514228108702,72.87055657913093,-46.319371137079855,43
1767370291.538309,2,right_wrist,-1.6729,0.7798,-0.2904,-22.75,-3.43,27.23,0.6159749342380562,0.1689302352040171,0.751030391955287,0.16730453186876287,111.95199246749024,60.308638471217975,111.81571516973068,43
1767370291.591409,1,left_wrist,-1.4245,-0.3592,-0.4192,35.07,7.98,-31.64,-0.5229618789760437,0.5846202960601168,-0.510466096976278,-0.35235542625342425,-129.11805232517443,71.06669041202309,-44.72289303984717,43
1767370291.591409,2,right_wrist,-1.2512,0.6881,-0.5666,-89.88,28.91,31.29,0.6074476981389326,0.1535400787825402,0.7515411240081196,0.2064429150098787,109.58587089341057,58.17354891597648,114.044449906084,43
1767370292.565378,1,left_wrist,-1.1707,-0.3558,-0.1493,-12.81,-38.57,37.45,-0.5087060625611561,0.6097961532206698,-0.5122185187246168,-0.3271069893878118,-133.2544947839884,66.93697565329546,-48.16924962527964,44
1767370292.565378,2,right_wrist,-1.1375,0.4695,-0.3201,22.54,-26.11,-39.2,0.5926552627450558,0.17150939127522005,0.7763342617591935,0.12903248530428513,123.20877989739712,61.15601714056184,119.6543818095887,44
1767370292.6350331,1,left_wrist,-1.6358,-0.2884,-0.3845,-18.27,-6.09,32.2,-0.4811842826135705,0.5972127771515356,-0.526983368982815,-0.36617907338914907,-144.9116781973304,70.82606340620353,-57.51370312656934,44
1767370292.6350331,2,right_wrist,-1.3571,0.5724,-0.3816,9.03,-11.13,-22.82,0.599120925040244,0.1639477136795141,0.7750289490616137,0.11621270358542223,124.11355413973195,62.944520513409756,120.13448994853542,44
1767370292.689297,1,left_wrist,-1.7163,-0.3162,-0.4455,18.83,-21.0,-7.42,-0.4931032853896186,0.5892034011751472,-0.5232548705736048,-0.3686364637452497,-141.0862685642531,71.88624276800017,-54.48194581704959,44
1767370292.689297,2,right_wrist,-1.5279,0.7427,-0.4231,2.24,-18.13,7.35,0.6049472266036172,0.17055640386871243,0.7684907839312652,0.11988027834749838,121.49676079065499,62.7353500215001,117.27056122799405,44
1767370292.7597818,1,left_wrist,-1.7329,-0.3377,-0.3382,35.35,-37.52,-38.43,-0.5186993433306893,0.5821765201178737,-0.5095709648108322,-0.36381165796811976,-130.21967647187432,72.21951538350115,-44.992802166535895,44
1767370292.7597818,2,right_wrist,-1.486,0.7574,-0.3806,-2.66,-5.18,39.34,0.6090494619939596,0.18079029185394124,0.7545661020947607,0.16432778458238304,113.55406321839922,59.28498187939285,112.17070211516872,44
1767370292.81327,1,left_wrist,-1.6099,-0.2162,-0.3172,27.65,-3.08,-53.2,-0.5326660975995279,0.5849481173803475,-0.501906955638287,-0.3495596319988681,-124.64594818203385,70.67318014609315,-40.46428919081985,44
1767370292.81327,2,right_wrist,-1.5123,0.6895,-0.2562,-40.25,-0.21,30.45,0.612555233916098,0.17764104140539835,0.7479946400060209,0.18364031238446293,110.29768931602031,58.335000835521406,110.80297131429575,44
1767370293.664861,1,left_wrist,-1.3352,-0.2913,-0.1596,-40.46,6.09,35.35,-0.5116508305368379,0.6202009133634327,-0.4949023913491659,-0.32959957177005667,-130.03982667899126,66.24414955150931,-43.363132263981875,45
1767370293.664861,2,right_wrist,-1.1663,0.4597,-0.346,43.33,-4.69,-57.12,0.5849469861225794,0.1701628023381823,0.7813529269104731,0.13553319790724508,124.17213019732017,60.22412837162629,121.26836732805604,45
1767370293.735539,1,left_wrist,-1.3781,-0.2396,-0.3821,-25.55,-15.33,24.36,-0.4949112965638605,0.603644491655015,-0.5089644931633458,-0.3628102547158988,-137.25149933244015,70.35630870462305,-49.42759118397198,45
1767370293.735539,2,right_wrist,-1.1746,0.4109,-0.4163,14.91,-16.52,-39.76,0.5910095045143285,0.15900134800347568,0.782389626762517,0.11529444410384478,126.72679558066217,62.6398776276284,123.08127667260888,45
1767370293.7863529,1,left_wrist,-1.5411,-0.3533,-0.4319,49.21,-28.7,-19.39,-0.5140139633029928,0.5932875048526567,-0.5076479396044202,-0.3550959750977831,-131.3388397038312,70.60027788061589,-45.59925896786147,45
1767370293.7863529,2,right_wrist,-1.343,0.4997,-0.4792,-5.11,-10.92,-5.46,0.5932372232307879,0.1552778979912769,0.7818690045500711,0.11242433496674911,126.95475902532725,63.22132451029938,123.38480369619153,45
1767370293.8382971,1,left_wrist,-1.5411,-0.3533,-0.4319,49.21,-28.7,-19.39,-0.5328141203589619,0.5825933372301937,-0.5060888514990293,-0.34722930600611007,-125.35056777477597,70.71536173381499,-41.69320762874954,45
1767370293.8382971,2,right_wrist,-1.5001,0.6827,-0.446,-10.64,-1.4,23.52,0.5933592354511118,0.1632786313030027,0.7780810409863825,0.1259158446035986,124.12879124577371,61.91430182507282,121.00769200430773,45
1767370293.895107,1,left_wrist,-1.5948,-0.3606,-0.3109,27.37,-24.08,-35.0,-0.5484521406486276,0.5779598966527579,-0.4978738471564637,-0.34246786651698224,-119.21563829897117,70.3876867063933,-36.54101724613319,45
1767370293.895107,2,right_wrist,-1.5675,0.6925,-0.4182,-29.47,-24.57,52.78,0.6034273543988777,0.17443451817568298,0.7638154572878922,0.1484384520266784,117.50528633965114,60.46197497745381,115.32676265171425,45
1767370294.864049,1,left_wrist,-1.3923,-0.1513,-0.3528,23.73,-17.71,52.22,-0.4732725683567236,0.6208401381392025,-0.4778313000691703,-0.40280000942221056,-138.30139445572237,72.25788019147558,-44.09410988824284,46
1767370294.864049,2,right_wrist,-1.466,0.5734,-0.508,-5.74,-8.33,-40.81,0.5900891574888587,0.17346786622899718,0.7812261605160322,0.10672099945852515,127.08730740225859,62.246703333731254,121.51412097202609,46
1767370294.9146528,1,left_wrist,-1.505,-0.0527,-0.4172,-27.58,-20.58,32.2,-0.4611221366053317,0.6148322839550837,-0.48014883517207196,-0.42285308775272246,-143.44922875946887,74.31911552598022,-47.87075938516201,46
1767370294.9146528,2,right_wrist,-1.4777,0.4646,-0.5529,12.18,-39.9,-7.7,0.601531255006119,0.17394737494805212,0.7739610334397837,0.09426971261368615,126.05115549545262,63.9390965942813,119.4206597775175,46
1767370294.9901671,1,left_wrist,-1.5933,-0.4909,-0.304,19.46,-31.92,-40.32,-0.49262729566670477,0.6097051662655872,-0.4540672921166215,-0.4235573774862626,-125.80035633901768,74.54974860469058,-30.793357430574698,46
1767370294.9901671,2,right_wrist,-1.3425,0.6476,-0.6183,-13.72,-27.44,34.51,0.6072953866276621,0.18460458396680307,0.7653153266612223,0.10679846317540499,121.71409777397437,62.887570871677184,115.22544551047453,46
1767370295.063892,1,left_wrist,-1.5416,-0.3777,-0.1957,35.28,-31.29,-50.75,-0.5201983259844917,0.6050752929695119,-0.43781439085647406,-0.41424165729651846,-113.4256791843561,73.09641850674244,-19.874072056199598,46
1767370295.063892,2,right_wrist,-1.2883,0.7554,-0.242,-54.81,-9.31,55.58,0.6264940274667247,0.19504327758293483,0.7355906137310024,0.1684333767668283,107.82619097670333,58.86846458432272,105.58779690997956,46
1767370296.057906,1,left_wrist,-1.4142,-0.2908,-0.2694,-47.88,-43.12,32.2,-0.4945428936913044,0.5964887972810908,-0.4895577700948794,-0.3999520355709147,-133.90400170684535,74.01804314002145,-43.19002478904358,47
1767370296.057906,2,right_wrist,-1.4191,0.5368,-0.4412,4.69,-24.15,-28.77,0.6093526857009,0.18496181530544475,0.7648434110116629,0.09743196569945319,122.48246287068362,63.64702473139501,115.1933646001107,47
1767370296.1174788,1,left_wrist,-1.5352,-0.2869,-0.3528,25.97,-26.32,17.5,-0.5008236874994038,0.5833322785099544,-0.4952041395858383,-0.4045638973325897,-132.96467065396388,75.46860186693256,-43.4343526447425,47
1767370296.1174788,2,right_wrist,-1.4967,0.6339,-0.386,8.47,-27.93,10.57,0.6197784204026642,0.19266616189273048,0.754533694121217,0.09712550695101863,118.91551774895892,63.87841901070319,110.96203583688255,47
1767370296.1902468,1,left_wrist,-1.5567,-0.4514,-0.3558,30.66,-4.97,-19.39,-0.510623836281741,0.587471789050501,-0.4862942012389386,-0.3970618903044006,-127.3603825634631,74.39777848623044,-38.076586959880146,47
1767370296.1902468,2,right_wrist,-1.3259,0.6427,-0.4738,-15.4,-23.45,31.29,0.6244616890736262,0.2012488730617829,0.7467074405435744,0.10942800467677417,115.3098574805971,62.689835684318176,107.64762937526818,47
1767370296.263146,1,left_wrist,-1.4386,-0.2962,-0.1986,-5.39,-8.61,-24.57,-0.5165043104167111,0.590010191114269,-0.4765642689100315,-0.39748933231032596,-123.11866552231172,74.01639139997461,-33.44087868699234,47
1767370296.263146,2,right_wrist,-1.1971,0.651,-0.307,29.61,20.58,21.77,0.6114121469398841,0.2298089976279714,0.7470935681956599,0.12334590201650636,115.49766308611554,58.96718347729536,106.53569216017247,47
1767370297.25868,1,left_wrist,-1.2302,-0.266,-0.2367,-28.35,-28.77,33.11,-0.5148463969488319,0.5861831051981083,-0.5060671806765088,-0.3677207682076703,-130.75530629320178,72.21270072752799,-44.64214729508407,48
1767370297.25868,2,right_wrist,-1.3888,0.5358,-0.2884,24.29,-21.77,-4.97,0.5877185934250932,0.1898070683875907,0.7806896104866841,0.09530930600255175,128.0411143958953,61.820302096263894,120.14034205921611,48
1767370297.3087418,1,left_wrist,-1.463,-0.2752,-0.3294,-30.03,-31.57,33.11,-0.5056327080373798,0.5792040082099461,-0.5052653788623921,-0.39187393171702817,-133.7366684345848,74.77615780642088,-46.03863316312509,48
1767370297.3087418,2,right_wrist,-1.5889,0.8452,-0.3953,-34.79,-30.52,17.71,0.6018638098447219,0.1895040426852248,0.7676692692569701,0.11194670715846261,122.05312142487963,61.8403466292372,115.57066862327812,48
1767370297.365993,1,left_wrist,-1.8129,-0.3728,-0.3845,-14.28,-22.26,-6.3,-0.506496052555868,0.5821231024650599,-0.49714449598176014,-0.3967893552463553,-131.39681881433177,74.92009805534515,-42.82602829308847,48
1767370297.365993,2,right_wrist,-1.7588,0.7022,-0.5022,-13.65,-22.61,36.82,0.6088578381772557,0.19650672697404756,0.7590702876557636,0.12037249495737094,118.54828074497809,61.28540156529501,112.17707706534452,48
1767370297.4320772,1,left_wrist,-1.7851,-0.4109,-0.1937,-16.38,-11.06,-59.78,-0.5269230628266642,0.6072017017405329,-0.4527311923223715,-0.3856068551817148,-116.87110697255876,70.97761214297455,-26.106910257379862,48
1767370297.4320772,2,right_wrist,-1.607,0.8725,-0.4978,9.8,-19.25,59.36,0.608461585498766,0.22216151067744105,0.7500648433575244,0.13349716440770412,115.44378056638489,58.58951333096894,107.97554415022432,48
1767370298.339515,1,left_wrist,-1.1165,-0.3504,-0.3748,-33.25,-26.18,31.85,-0.4758921446435413,0.6145334119774484,-0.525630219979182,-0.34581530341291056,-144.28413260334864,67.71615948867048,-56.688704535763556,48
1767370298.339515,2,right_wrist,-0.9248,0.4392,-0.3953,15.54,-11.06,-44.03,0.5757608051073998,0.23067215457874604,0.7787147357950615,0.09430383162791078,127.7347474965719,58.56147793593083,116.23643866543331,48
1767370298.409653,1,left_wrist,-1.2151,-0.3079,-0.4724,-31.01,-4.62,33.88,-0.46156907420503196,0.6143656118618311,-0.5299150203941696,-0.35874636703358304,-149.4334568577426,68.43288732738196,-60.50503998968997,48
1767370298.409653,2,right_wrist,-1.5953,0.589,-0.4041,30.66,-13.16,-20.02,0.5851546254540773,0.21634833750302598,0.7796942504023099,0.053519501669535494,132.59003229539715,62.78863454054183,118.98337163932628,48
1767370298.49151,1,left_wrist,-1.8295,-0.3933,-0.4089,20.86,-43.89,-27.93,-0.48759630671705345,0.6010410330379921,-0.513740042338677,-0.37023058649761315,-140.58912573635521,71.09251641285005,-52.3354927585008,48
1767370298.49151,2,right_wrist,-1.6041,0.6627,-0.589,-49.91,0.77,21.07,0.5870484909765016,0.21341370090497402,0.7768897554333992,0.07918945264925012,128.59589646713857,61.443204536613926,117.3552111603958,48
