timestamp,node_id,node_name,ax,ay,az,gx,gy,gz,qw,qx,qy,qz,roll,pitch,yaw,rep_number
1767649848.3570418,1,left_wrist,-0.3187,-0.8584,-0.3436,5.53,2.66,-2.38,-0.36748863017999533,0.668863433687398,0.4345248527687482,-0.47829067113067575,-106.71100190033233,18.690527978948424,79.97777598146672,1
1767649848.3570418,2,right_wrist,-0.4104,0.8647,-0.3021,2.03,-1.05,-1.33,0.4744921941837995,0.3800886442915069,0.7119310723349981,0.3514881625079681,109.36216895414208,24.105504431841997,106.60030541119984,1
1767649848.407905,1,left_wrist,-0.3211,-0.8564,-0.3479,9.8,3.43,-1.12,-0.3689696147148172,0.6698912768830461,0.43308486778660604,-0.4770163496856886,-106.7211823401719,18.633165540003315,79.6781365607636,1
1767649848.407905,2,right_wrist,-0.4094,0.8423,-0.3026,-0.07,-2.17,0.21,0.47560891373160563,0.3790184434656744,0.7136832996634748,0.34755910069131335,109.6574278654074,24.544865363874074,106.62694080222687,1
1767649848.466134,1,left_wrist,-0.3382,-0.8384,-0.3558,7.91,3.92,-1.68,-0.3699893213854486,0.6728334525069685,0.43066419615753776,-0.47426933001857724,-106.95626253609208,18.634275958686427,79.09930223798007,1
1767649848.466134,2,right_wrist,-0.4138,0.8662,-0.2948,2.8,-3.29,0.21,0.4776825216499343,0.379983268906926,0.7111781731722788,0.34879468153099313,109.26786973717161,24.479175208415217,106.26236260469068,1
1767649848.516983,1,left_wrist,-0.3289,-0.8335,-0.3484,4.69,2.1,-0.7,-0.3692894164132685,0.674628713368182,0.4300360887233191,-0.47283230475496146,-107.1991488145728,18.68451285224309,78.86167900580745,1
1767649848.516983,2,right_wrist,-0.4172,0.8691,-0.2913,-0.07,-2.03,-1.12,0.4805747090033477,0.379209726665618,0.7088956447387798,0.350306861392872,108.7708025491091,24.561837818061765,105.98689728942195,1
1767649848.603863,1,left_wrist,-0.3216,-0.8355,-0.3645,6.44,3.71,-1.26,-0.3697609967421863,0.6762613221500134,0.42921039457353,-0.47087776188961744,-107.38296398928242,18.63041073870809,78.55032720751832,1
1767649848.603863,2,right_wrist,-0.4202,0.8784,-0.2957,0.14,-2.31,-2.31,0.481147024224214,0.3798021867639152,0.7085514761264232,0.3495749500301735,108.77180839032243,24.600971404464303,105.86095229312467,1
1767649848.670037,1,left_wrist,-0.3489,-0.8438,-0.3699,9.45,2.87,5.25,-0.36834954408627596,0.6806579362250187,0.42385715336047874,-0.47049814109142124,-107.6180402348975,19.162070889369723,77.90317515474887,1
1767649848.670037,2,right_wrist,-0.427,0.8823,-0.3006,0.35,0.91,-3.99,0.47994555023222596,0.37862369118139705,0.7116833463479799,0.34612596524878225,109.29377739324508,24.899982059665643,106.16944709592663,1
1767649848.7530859,1,left_wrist,-0.3558,-0.8784,-0.3704,5.74,0.84,9.31,-0.36564211571030597,0.6838668996269183,0.42019300844614826,-0.47124276383466407,-107.8438855492128,19.709669134073266,77.56376626101799,1
1767649848.7530859,2,right_wrist,-0.4397,0.9243,-0.3152,-0.49,-0.56,-11.97,0.48088330821384184,0.374312770800159,0.714890232168684,0.3428894128535088,109.57564997345477,25.522263766496184,106.56502720971375,1
1767649848.817307,1,left_wrist,-0.3767,-0.7559,-0.3597,-5.67,-1.33,11.48,-0.3538318111976277,0.6927988480959081,0.4126815679431222,-0.4738425149156576,-108.82987983149683,21.377760410169007,76.94565185739927,1
1767649848.817307,2,right_wrist,-0.4548,0.8486,-0.3006,11.2,0.91,-18.27,0.4843539130198762,0.36800887628339246,0.7204849767419254,0.3329747020543097,110.28201771554295,26.927593462942866,106.95087546393773,1
1767649848.869629,1,left_wrist,-0.3694,-0.3001,-0.2489,-27.86,7.84,-21.91,-0.3473650228326252,0.6971537810295448,0.4221933469858038,-0.4637530854556378,-110.56011698872508,20.689538093260417,76.81588280682386,1
1767649848.869629,2,right_wrist,-0.4485,0.5451,-0.2606,23.8,10.92,-2.66,0.47884832702803476,0.36837751723092715,0.7285219189835049,0.3228902260239873,112.0163965135589,27.374977170335534,107.70123670739476,1
1767649848.955483,1,left_wrist,-0.2874,0.4665,0.1132,-23.31,68.81,-142.24,-0.37987825848224105,0.6872816004941081,0.45799834934822165,-0.41662215777495676,-111.94993218831823,12.985605573167689,76.1458859594885,1
1767649848.955483,2,right_wrist,0.141,-0.2601,-0.0503,2.1,97.72,256.41,0.37040538443206106,0.46832668343698586,0.6979873575680653,0.39532722830561506,114.68036370536757,8.44106209788013,106.86288249088031,1
1767649849.015551,1,left_wrist,0.4885,-0.6764,-0.2801,-111.51,154.35,-274.47,-0.518672372483196,0.638259604486294,0.5336871346176564,-0.19693067218503016,-113.781690740356,-17.591697145683565,68.27817480818265,1
1767649849.015551,2,right_wrist,0.6129,0.3592,-0.0429,-12.46,127.61,335.86,0.2704373014184346,0.541349530174511,0.6382609023768258,0.4758438532527989,114.00348352597486,-9.786457413004232,105.75714228285813,1
1767649849.75711,1,left_wrist,0.0464,0.205,0.0834,-95.97,-49.28,190.05,-0.2581573910445178,0.7072233622181896,0.41300952235553595,-0.512457814678964,-113.41779707911743,30.770554236100566,81.0534563769243,2
1767649849.75711,2,right_wrist,-0.1069,-0.4743,-0.0683,0.28,-10.92,-112.91,0.5472569828136219,0.2984909211567812,0.7425067265838526,0.24514633533144903,112.12437875117426,41.784906921165245,107.38757529838595,2
1767649849.813925,1,left_wrist,-0.3362,0.3201,0.1244,-18.97,32.83,-62.23,-0.26536818506957316,0.7045022754392192,0.41042320821357914,-0.514596016709726,-112.4815258461416,30.480268521993967,81.08940471266654,2
1767649849.813925,2,right_wrist,-0.2333,-0.2752,-0.1142,0.91,20.93,40.74,0.5361623546309028,0.30802821009568254,0.7435699815902748,0.25446460213502087,112.63714686089503,39.83537417289092,107.84367822116145,2
1767649849.8676631,1,left_wrist,-0.1259,0.1181,0.0229,35.28,68.04,-181.86,-0.3265949302160027,0.6812889558436802,0.44781602113956603,-0.4781651612292139,-110.66589011137644,21.04053888386393,81.27130545658088,2
1767649849.8676631,2,right_wrist,-0.1498,-0.3006,-0.0224,6.58,19.74,189.35,0.5066075487868692,0.3665709393930248,0.7218565754137545,0.2964753319192035,111.2510528861658,30.933141733464456,104.71959255603309,2
1767649849.958196,1,left_wrist,0.2821,0.5246,0.2045,101.15,122.64,-297.92,-0.438694503828041,0.6271027326583553,0.49275386251601105,-0.41410496975892974,-105.85269148229793,4.993106969174137,80.09154887330122,2
1767649849.958196,2,right_wrist,0.6461,-0.2313,0.0732,-51.59,130.13,412.58,0.3433367959925376,0.511467277065054,0.5938972778543858,0.5175008138799284,103.3167083724107,-6.981905761653177,104.05439264845022,2
1767649850.713242,1,left_wrist,-0.2806,0.1118,-0.164,-2.87,-15.12,69.93,-0.2630657687387549,0.6939692991629386,0.43560766013920643,-0.5093613447889753,-112.96065055553733,28.540206682785914,83.35904511518895,3
1767649850.713242,2,right_wrist,-0.3836,-0.3514,-0.1815,13.3,-12.95,-79.03,0.5365187660200933,0.3130332380106497,0.7554418052454854,0.2084837751391855,117.39821969156839,42.85088798994449,108.14527739124088,3
1767649850.764533,1,left_wrist,-0.3958,-0.0088,-0.1835,0.28,5.04,-3.5,-0.2611531201015063,0.6963891434234086,0.4342734430074284,-0.5081808590273085,-113.32212037695356,28.748089655792565,83.03492668875006,3
1767649850.764533,2,right_wrist,-0.425,0.4094,-0.06,47.32,-7.21,-14.84,0.5362155354395989,0.3191169381420638,0.7581460947891426,0.18934565825503083,119.305284332906,43.805512718584296,107.85472421517663,3
1767649850.817079,1,left_wrist,-0.3533,0.1108,0.0351,5.6,38.15,-84.98,-0.28680782017764533,0.6882469354402561,0.45262606023808183,-0.4890675615243724,-113.09284613178589,24.428987300101923,82.94127290477651,3
1767649850.817079,2,right_wrist,-0.4285,-0.3343,-0.0654,19.74,11.2,78.89,0.5237121153599982,0.347060345568854,0.751834551676992,0.20004885319201424,119.20870787365187,40.43851558047778,106.0596217510965,3
1767649850.9018822,1,left_wrist,0.0425,0.3109,0.3133,81.55,119.35,-203.63,-0.3765644347363575,0.6590354052657804,0.4783383595424191,-0.44166047467271,-109.5489306860803,12.820027995316611,81.01653664125928,3
1767649850.9018822,2,right_wrist,0.6207,-0.203,-0.1,-22.47,92.61,396.76,0.40567158456546776,0.5177303513249091,0.6532563933829857,0.3750225770502127,113.1754449260791,8.145880938060444,97.82485424210414,3
1767649850.954061,1,left_wrist,0.4329,0.2211,0.3416,-2.31,224.77,-293.16,-0.47462725059736505,0.6323976967923235,0.5198361420700547,-0.3233767330527542,-109.97030121276482,-4.844478710114152,75.44593380311936,3
1767649850.954061,2,right_wrist,1.1868,0.9111,0.2796,-53.62,180.88,472.78,0.2804400433036963,0.5995068067519956,0.5539347947171901,0.505075453740796,110.36380013329556,-17.151621936823393,97.44971683955428,3
1767649851.6641622,1,left_wrist,-0.0756,0.2699,-0.2816,-68.32,-64.89,178.92,-0.280130864372842,0.6540348941615445,0.4683340355246646,-0.5238590337237721,-108.94435709887937,25.014938094947464,89.21154666398357,4
1767649851.6641622,2,right_wrist,-0.0142,0.0342,-0.1674,15.89,4.2,-241.71,0.577151181264147,0.2796411813570045,0.7590757146037438,0.1118095843542695,122.08530883130831,54.456042549170526,107.76745742886294,4
1767649851.717796,1,left_wrist,-0.3509,0.2674,-0.1552,-42.07,-37.45,88.62,-0.2370029888953005,0.66970560344625,0.4555309566192691,-0.5364844224475876,-111.1578527233566,30.175401869848045,89.38016455901095,4
1767649851.717796,2,right_wrist,-0.3206,0.0059,-0.1025,27.86,-7.35,-109.48,0.5811373969939027,0.24776259084994898,0.7719990156744178,0.07007527515609319,128.46581395614635,59.60421951626454,113.50381380306493,4
1767649851.769618,1,left_wrist,-0.4724,0.672,-0.0146,31.22,-9.31,-50.12,-0.25409777818741863,0.6550590877858133,0.4626767508164194,-0.5406127402155783,-108.9671475194624,28.23807444109594,90.82362924642727,4
1767649851.769618,2,right_wrist,-0.429,-0.5549,-0.0776,6.86,9.52,29.89,0.5764678253521426,0.25733802993650384,0.7720483808619124,0.07350702205007402,128.3524142464578,58.461600755194254,112.8268846400478,4
1767649851.8198159,1,left_wrist,-0.2235,0.5739,0.2786,85.33,59.78,-187.67,-0.3329004895743895,0.619256661691331,0.48673845381099634,-0.5184439493076572,-104.71269422651942,18.543756843003607,90.68877034207502,4
1767649851.8198159,2,right_wrist,-0.2172,-0.8506,-0.0005,-44.94,24.36,197.26,0.5649640588170154,0.30930275991088513,0.7522991357744541,0.1385403380590748,120.08611287346635,49.848500316996756,105.31350624479634,4
1767649851.9088562,1,left_wrist,0.2479,0.2142,0.4763,32.76,155.33,-334.04,-0.44586716240694246,0.5702319026680324,0.5400086436359558,-0.4294516450838581,-103.50648534476768,0.4715389390221501,87.2530176208515,4
1767649851.9088562,2,right_wrist,1.1761,1.057,-0.1225,-14.21,131.32,450.94,0.45859421329824823,0.4790009075997449,0.6710487645023221,0.33157658799723544,112.12238261735195,17.3271455972654,97.25162881919971,4
1767649852.613987,1,left_wrist,0.1161,-0.5607,-0.1371,27.86,-25.9,205.31,-0.38581890865277174,0.5464895202329083,0.49367551727438214,-0.5556774762804958,-94.99055448944253,13.08551898893261,96.18763303501021,5
1767649852.613987,2,right_wrist,0.1093,0.0351,-0.0049,69.09,-5.25,-256.13,0.6137412849147202,0.1797313315632579,0.7640265838686242,0.08533265956107512,123.47179024051523,65.11516331088005,115.6327254192636,5
1767649852.666229,1,left_wrist,-0.1845,0.1967,-0.1059,-23.59,-17.5,120.12,-0.34442598260376056,0.5731433460100762,0.4721643060004447,-0.5744025727405183,-96.26334083710468,19.461824536031358,96.44004712647242,5
1767649852.666229,2,right_wrist,-0.3689,-0.6637,-0.0098,-13.79,-8.82,-118.37,0.6216608344500785,0.13448719782286284,0.7697117103885137,0.05472552807762681,131.32260282523941,70.43795841843934,124.76072141641522,5
1767649852.7180228,1,left_wrist,-0.3831,0.1069,-0.0859,-38.99,9.59,13.93,-0.3303130695557886,0.5862231112935817,0.47528544454054816,-0.5668681381713028,-98.54221164495192,20.52624628338238,95.78961229720105,5
1767649852.7180228,2,right_wrist,-0.3753,0.1069,-0.1152,-5.53,-5.39,-1.75,0.620978366620009,0.13346979310222543,0.7703303133996268,0.05623958371847699,131.3893671671591,70.33977794394859,125.03502081283152,5
1767649852.8078651,1,left_wrist,-0.3089,0.3733,0.0439,3.64,42.07,-97.86,-0.3625214870472775,0.5760925312651175,0.4917790175824247,-0.5429999675094331,-98.80691300076674,15.609262914748655,94.37026167417255,5
1767649852.8078651,2,right_wrist,0.002,-0.5514,-0.0532,4.55,49.84,312.62,0.5808176202754524,0.27324137699355716,0.7488228764338256,0.1650888900126132,115.62124164872225,51.22770014527106,106.32087959500005,5
1767649852.871129,1,left_wrist,0.51,-0.0634,0.1196,-0.98,173.11,-340.55,-0.5444720344265129,0.49280897979244054,0.5694252725084402,-0.36938377359066066,-97.98062558028126,-14.832906712956921,85.33491201370306,5
1767649852.871129,2,right_wrist,0.5046,-0.2157,0.3089,26.81,120.4,426.09,0.4981304439363182,0.4037907842231049,0.7165874057544519,0.27444772419242397,113.93141800815786,29.4898311394944,101.77552091379056,5
1767649853.653007,1,left_wrist,-0.1806,-0.0322,-0.0693,49.63,-39.83,164.5,-0.3659124073411701,0.5281834511154212,0.5110828675041049,-0.5708981123329928,-94.73584145978457,13.241427067801938,100.31269547035437,6
1767649853.653007,2,right_wrist,-0.3196,0.1137,-0.3006,36.54,-4.97,-125.3,0.6508138216188009,0.18161801001571415,0.7335350851106647,0.07336584313938885,112.44524706651063,68.14677247416526,103.50270908092426,6
1767649853.706101,1,left_wrist,-0.3035,0.0161,-0.182,-48.37,-15.12,76.65,-0.3284721669058924,0.5517800608672137,0.506529784006106,-0.5753888927605825,-97.35722283584354,17.590651674273523,100.59631980801457,6
1767649853.706101,2,right_wrist,-0.4807,-0.081,-0.1923,37.8,4.27,-9.38,0.6452381923807223,0.18676658532927945,0.7387212066462414,0.055469780500918366,116.52187938280187,68.84102119210554,105.68297090691318,6
1767649853.7683682,1,left_wrist,-0.3284,0.2601,0.0142,27.16,32.13,-115.29,-0.365914203320589,0.5332571347549796,0.5303305297983696,-0.5481725578729281,-97.69138696175996,11.333701415783107,99.5982587789344,6
1767649853.7683682,2,right_wrist,-0.448,-0.3719,0.0083,15.96,13.51,107.87,0.6369211546941957,0.22305837721596694,0.7337308879075083,0.0788377269284922,113.78619614777517,64.09066728446842,101.77302247159868,6
1767649853.8540769,1,left_wrist,-0.0639,-0.0298,0.0649,22.96,74.69,-207.41,-0.43627691566430143,0.49686646406650703,0.556990528149847,-0.502541263276803,-96.55977412235426,0.7670748446599084,97.21445883739771,6
1767649853.8540769,2,right_wrist,0.5129,-0.1581,-0.1118,-30.24,97.93,384.86,0.5439361297511314,0.39264594718198587,0.687570406971809,0.27786612310525083,107.41566973477481,31.99077783743328,96.76618407074776,6
1767649853.9067678,1,left_wrist,0.4163,0.0312,0.0298,108.5,120.26,-272.72,-0.5456415332722931,0.43015038349860996,0.5650984001704782,-0.44487050123493876,-90.5145428913305,-13.530319294435717,92.03308242458576,6
1767649853.9067678,2,right_wrist,1.159,0.9179,-0.063,-48.93,97.51,418.53,0.46229456360201393,0.48796422816823143,0.6204690193774979,0.4039713411678261,104.49189954581466,10.336664454072022,95.62048988993897,6
1767649854.6681468,1,left_wrist,-0.1635,-0.0961,-0.019,-5.32,-34.93,154.28,-0.3552337506255172,0.546612421882431,0.4924734376302145,-0.5766227153772475,-94.93849233449139,16.2895653365965,98.99353728088892,7
1767649854.6681468,2,right_wrist,-0.1332,-0.1723,-0.0708,48.79,-21.7,-229.25,0.6272146455686388,0.19426875648578537,0.7441437989627903,0.12292861791665777,113.21343735464727,62.339440632043775,107.25758007596956,7
1767649854.755221,1,left_wrist,-0.327,0.1137,-0.0639,-3.36,-7.49,59.64,-0.33508966920544847,0.559825965789608,0.47849374264961403,-0.5876678822810387,-95.16343717968408,19.712878092392373,99.08338441541667,7
1767649854.755221,2,right_wrist,-0.3865,-0.1347,-0.1493,6.02,-12.74,27.3,0.6323509039588529,0.18276903333844927,0.748951828672193,0.07615098846061306,118.6574519533453,66.83337365515817,109.83002333222854,7
1767649854.8052921,1,left_wrist,-0.3621,0.1513,-0.0468,-5.46,14.7,-36.47,-0.34377825406282936,0.5584764650341932,0.4850181805745736,-0.5785135387772308,-95.6962399687869,18.2217181242522,98.46607854265726,7
1767649854.8052921,2,right_wrist,-0.4314,0.0878,-0.0429,64.19,0.7,127.33,0.6236431210349535,0.23916966751536728,0.7390504451477332,0.0875874834283327,115.8000324346075,61.63161888316656,103.10537933592038,7
1767649854.870137,1,left_wrist,0.1606,-0.0488,-0.1986,77.77,94.29,-236.32,-0.4931538873044231,0.49411816248207047,0.5170143937798256,-0.49532070577188486,-91.31322379993641,-1.1712876547462787,91.44963794781845,7
1767649854.870137,2,right_wrist,-0.2396,-0.7657,0.0303,-50.82,95.34,247.73,0.5850216926163335,0.29811304142208594,0.7328611510220827,0.17830526359303492,112.43430848663075,48.6917500769808,102.04542940567093,7
1767649854.9574568,1,left_wrist,0.3148,-0.2699,-0.0332,2.31,113.82,-297.99,-0.5800847185967207,0.44418270885216316,0.5531099580625334,-0.40034087313111105,-90.38614339068201,-16.6217587882447,85.95495425966676,7
1767649854.9574568,2,right_wrist,1.0326,1.1605,-0.4182,-4.48,111.79,405.3,0.4290686178535288,0.4989203660753679,0.639341232802837,0.39777050861851515,108.60557435021744,8.727248239708574,97.78905577545268,7
1767649855.707232,1,left_wrist,0.2362,-0.2289,-0.1362,45.22,-100.1,241.43,-0.4219877480124107,0.5076054876305777,0.5419321745723016,-0.5201658654872251,-95.90995072664461,4.054229480086973,97.40305382852866,8
1767649855.707232,2,right_wrist,-0.0049,0.2294,-0.0732,42.98,-15.68,-245.84,0.6000139220365353,0.21299638540863786,0.7597597292730439,0.131836971067074,118.27187309294273,58.822899585541904,111.4404687269411,8
1767649855.7583559,1,left_wrist,-0.0576,-0.2079,-0.1196,1.47,-56.77,178.78,-0.36445439923486134,0.5373472879089434,0.5118617910563004,-0.562519679577431,-95.98807811462007,13.381646620741913,99.27884307680583,8
1767649855.7583559,2,right_wrist,-0.2938,-0.405,-0.2508,48.37,-8.75,-120.68,0.6035301951346316,0.1837149691323798,0.771773771883002,0.0797831981743425,126.87986075412893,64.45711686264391,118.23660087339731,8
1767649855.81695,1,left_wrist,-0.3318,0.3367,0.0913,36.61,11.83,-21.7,-0.3528686341938678,0.5423275064067357,0.47805942221486325,-0.593989723504033,-92.72932273539386,17.871881767733775,99.84479244500058,8
1767649855.81695,2,right_wrist,-0.3528,-0.5363,-0.121,-10.22,-0.91,26.46,0.6037211917270694,0.1878021988423666,0.7698453152971533,0.08711628598974001,125.33560474033528,63.74350551271264,116.95074903327513,8
1767649855.868062,1,left_wrist,-0.1401,0.7398,0.0673,1.54,69.02,-166.88,-0.4092433667425614,0.5239574114114619,0.5044712894600152,-0.5509058140143043,-93.3735745285847,9.462340989145675,96.75227107209157,8
1767649855.868062,2,right_wrist,-0.2484,-0.489,0.0293,65.31,18.97,187.39,0.5832527295647795,0.26470059395667717,0.7595378521705243,0.11336710340483834,121.42880727204464,55.688825345896355,108.56851884450721,8
1767649855.952161,1,left_wrist,0.3479,0.2128,-0.0669,108.92,107.24,-292.46,-0.5240150075069753,0.4599922691516846,0.5218874236570885,-0.49137450204168653,-88.15322669608148,-5.445376603193581,91.59050752791951,8
1767649855.952161,2,right_wrist,0.8179,0.4148,0.1308,-50.96,156.24,458.29,0.43747998753148,0.4729340281113474,0.6738046407570104,0.36184523163660415,111.51529979647877,14.317457162275952,100.098163285955,8
1767649856.721053,1,left_wrist,0.1244,-0.1937,0.0068,-81.76,-67.55,178.99,-0.3530382617493539,0.42580498161523717,0.6163777642134566,-0.560475293974554,-97.04053534286716,2.412663326410913,112.85824677734976,9
1767649856.721053,2,right_wrist,0.162,-0.0405,-0.0693,54.04,-25.2,-256.69,0.5901723719756826,0.23048792226331938,0.7544095373782986,0.17157546141565833,114.72810858643196,54.23011743630087,109.71052229397367,9
1767649856.805301,1,left_wrist,-0.304,0.4846,0.0346,-13.72,-21.0,81.97,-0.32351009939872993,0.4453628828653439,0.606777213326416,-0.5734235184754135,-97.7003440590374,6.786268412415926,113.37616281803014,9
1767649856.805301,2,right_wrist,-0.3831,-0.3367,0.0171,-10.85,-4.34,-3.08,0.5952442595900982,0.2002728786350503,0.7694347478223635,0.11638390933373019,122.33249314630349,60.38738463068956,115.29722202753868,9
1767649856.856122,1,left_wrist,-0.3382,0.1742,-0.0498,12.04,4.76,-15.96,-0.32905295299222515,0.4423280198986678,0.6053498572356454,-0.5741268390211383,-97.17825675125873,6.287672908887257,113.23562531009955,9
1767649856.856122,2,right_wrist,-0.3372,-0.7823,0.0747,52.22,7.84,174.86,0.5779760154618796,0.2699007441207999,0.7568443057524649,0.1424219460754461,118.90686644120898,52.93917105162895,107.99616668609984,9
1767649856.917831,1,left_wrist,-0.0268,0.429,0.264,30.52,136.78,-260.47,-0.4893032274662882,0.3704834881786897,0.6131133252046063,-0.4974096772626919,-91.5510008644322,-13.381424454870043,104.68660590448606,9
1767649856.917831,2,right_wrist,0.1728,-0.4895,-0.0381,-25.06,78.89,350.14,0.5262145253908993,0.3696373068080177,0.7257179335327834,0.24454041717526467,113.7015832504633,35.66070417166686,102.28912937497182,9
1767649857.00254,1,left_wrist,0.5988,-0.2991,0.2723,-163.87,237.93,-350.28,-0.5934719037289534,0.3538447316753033,0.6419246918496159,-0.3324420180177895,-95.03098513188682,-31.78025138051382,93.0459343341858,9
1767649857.00254,2,right_wrist,1.5148,1.2029,-0.1488,116.34,233.73,432.11,0.22593979398106528,0.6303947642631493,0.6317755571708423,0.39040145497535506,127.31308005464749,-11.93064912680749,96.04927613880501,9
1767649857.704236,1,left_wrist,0.2484,0.04,-0.0595,58.45,-123.41,243.6,-0.36603105377481265,0.3292058098490051,0.6560386915292964,-0.5720647145653099,-94.47050806636904,-5.946916489484724,121.20339803569091,10
1767649857.704236,2,right_wrist,-0.0229,0.2933,-0.0478,67.9,-23.52,-229.04,0.5848647391985138,0.29187687148657526,0.749839867565011,0.10237822885531166,120.7874891967334,54.820006115012205,104.62602816242423,10
1767649857.7656682,1,left_wrist,-0.4763,-0.3113,-0.101,30.31,-10.99,67.41,-0.2953094923835564,0.37462668035653435,0.6125221553762281,-0.6302886348701435,-91.79069110314713,6.342909197330189,123.2470674420597,10
1767649857.7656682,2,right_wrist,-0.3187,-0.0791,-0.1513,10.01,-10.99,-145.88,0.5917576050864461,0.2443258010506493,0.7661247429827673,0.05639785415156001,127.98579286677563,61.54136661777017,112.22667936204076,10
1767649857.854901,1,left_wrist,-0.4538,0.1152,0.0278,-34.44,15.47,-24.99,-0.29866811981038494,0.37838924183613926,0.6227826480523477,-0.6162472792284822,-93.57479357094445,5.414026719776563,122.52287763735298,10
1767649857.854901,2,right_wrist,-0.3128,-0.8677,0.0132,29.19,-2.45,172.41,0.590291520946662,0.29902249027662403,0.7466351275310744,0.06839193624908392,122.83855964488056,57.199652272748374,103.26326109637796,10
1767649857.905778,1,left_wrist,-0.3567,0.8086,0.3065,-83.58,101.64,-161.21,-0.35420824620940966,0.3716449489940321,0.6554311865494273,-0.5539192268759835,-97.79376244646338,-3.0149025489015178,118.26097943817115,10
1767649857.905778,2,right_wrist,0.2747,-0.3963,0.1186,-15.89,93.45,334.25,0.545571327748814,0.39653331050720814,0.7185484542789127,0.1697096899118488,117.15942772264268,40.49997964400845,96.81452483949755,10
1767649857.9678988,1,left_wrist,0.8706,-0.793,0.0112,57.89,214.83,-331.94,-0.6151748809542847,0.2515294185291985,0.6297006328539809,-0.4022063281955431,-84.37150043489069,-34.91905319969317,98.17426016282117,10
1767649857.9678988,2,right_wrist,0.9311,0.1049,-0.0932,-51.24,144.34,436.17,0.46581634285427415,0.5017285412385458,0.6595938186716792,0.3101928432550016,113.08213608229022,17.651945931366516,93.76467324486812,10
1767649858.702635,1,left_wrist,-0.0913,0.002,0.1083,0.7,-81.55,223.23,-0.3526212340986462,0.3425475769909374,0.6316560852056037,-0.5994414173070767,-91.87254700511834,-1.9940828964844775,121.12801204879477,11
1767649858.702635,2,right_wrist,-0.2757,-0.5846,0.0517,39.9,0.77,-143.5,0.6543346917695719,0.17831848956848326,0.7314752803674704,0.07065791984034349,111.65685944300444,68.75825477538069,102.77233507604112,11
1767649858.754281,1,left_wrist,-0.0913,0.002,0.1083,0.7,-81.55,223.23,-0.26971797521542273,0.3810276495698961,0.6055761618367977,-0.644474713486841,-91.38312633325867,9.46562330652093,124.8847384555193,11
1767649858.754281,2,right_wrist,-0.2733,0.002,-0.1166,55.02,5.74,-16.24,0.6464630933850967,0.18685247616642162,0.738272043639307,0.046108682719090535,117.31276240345254,69.60299600635209,105.70559321661361,11
1767649858.806066,1,left_wrist,-0.265,0.9008,-0.0776,45.43,7.84,-0.14,-0.27853445730745047,0.3785438489476984,0.5914498690062399,-0.6552176454956078,-89.19906372682485,9.588967243454002,124.48263829001314,11
1767649858.806066,2,right_wrist,-0.2137,-0.7554,-0.0956,3.71,14.35,153.58,0.6369600891829089,0.23470814431069706,0.7291537538899461,0.08676828320607614,112.18255718711676,62.64209277365621,99.82132359711763,11
1767649858.86637,1,left_wrist,0.2328,0.2147,0.2499,28.0,120.4,-288.33,-0.4469843666737231,0.29963610406362057,0.6224407015979264,-0.5683227552061828,-87.32492512634018,-12.466132790988665,115.53154117890584,11
1767649858.86637,2,right_wrist,0.2528,-0.4875,-0.0903,70.91,43.61,338.59,0.5956079968022402,0.35619855673323503,0.7019734440180555,0.16002183044763937,110.23989729599057,46.23665700729626,93.04542430242343,11
1767649859.618161,1,left_wrist,-0.063,-0.0956,-0.022,-1.68,-80.5,229.53,-0.2826539320906072,0.28021441900671423,0.6391293964501883,-0.6581035242632167,-88.51084556700197,0.43060013405150244,133.09362763725468,12
1767649859.618161,2,right_wrist,0.0112,0.1747,0.0166,-38.71,-2.31,-266.91,0.6433119959069462,0.27445799040493984,0.7125495648383859,0.05563816202688598,111.01384635517164,62.404837116712095,92.67823969539958,12
1767649859.702924,1,left_wrist,-0.1708,-0.1952,-0.1581,-0.84,-34.37,146.65,-0.22719542807101198,0.31383001092580415,0.62540805281549,-0.677316564967576,-88.79897991401644,8.102523130671438,134.9785498290626,12
1767649859.702924,2,right_wrist,-0.387,-0.4133,-0.1571,41.93,-9.24,-73.36,0.6410297875675434,0.19043795593818552,0.7428558677358642,-0.03129466663174599,131.71552552160443,74.6452572106298,113.50986989205035,12
1767649859.754,1,left_wrist,-0.4231,0.4943,-0.0088,3.29,-12.67,35.21,-0.2122888225839308,0.3206826490643947,0.6200692720416113,-0.6838202923756773,-88.52433897451712,10.096760049658116,135.66528998349563,12
1767649859.754,2,right_wrist,-0.3831,-0.4455,0.001,70.42,2.17,85.4,0.635107031256903,0.23525571854802874,0.7349853980966377,-0.033019241711778315,127.36214478085465,71.64519834846915,105.20455001777033,12
1767649859.815045,1,left_wrist,-0.1576,0.5368,0.2054,37.94,115.01,-217.0,-0.3365098787234681,0.28136297385097203,0.6400327409720729,-0.6308360079696067,-88.71357488825012,-4.34528722797271,128.09486810864863,12
1767649859.815045,2,right_wrist,0.0161,-0.873,-0.0151,-49.98,40.6,265.3,0.6264928820713731,0.3036539914400074,0.7154531202036951,0.05854703226683096,114.15026985379313,59.417390736257005,93.44827819523795,12
1767649859.866303,1,left_wrist,0.4397,0.121,0.1474,-12.53,168.07,-311.64,-0.46443965604578497,0.23734600363431171,0.6493092442748702,-0.5534981352724607,-87.31004819132775,-19.900562612793856,119.00461582849367,12
1767649859.866303,2,right_wrist,0.4743,-0.385,0.0161,25.69,96.25,426.44,0.5712407427951691,0.43398056218414227,0.6738387279673914,0.17687920767701024,111.20146827905853,38.04818723738458,87.86697650434856,12
1767649859.918553,1,left_wrist,1.2644,-0.5714,0.1142,170.38,189.91,-371.7,-0.6162171096225634,0.1372837179809783,0.5970424350568045,-0.49494442650379894,-71.8376640860698,-36.86416149201238,104.68798485694157,12
1767649859.918553,2,right_wrist,1.3327,0.1986,-0.0054,-62.09,148.89,524.44,0.4835739008598202,0.5471147530936404,0.5889476647611153,0.3463558538944168,107.32841968948426,10.988189376807762,86.12408994736847,12
1767649860.657152,1,left_wrist,0.1205,-0.1947,-0.1186,-100.52,-48.79,182.84,-0.27516172557260177,0.22455264985265191,0.6859226446859815,-0.6351159403849419,-92.40751143132955,-5.29279551330904,138.67065323710102,13
1767649860.657152,2,right_wrist,-0.1967,-0.2269,0.0151,24.99,-37.24,-168.14,0.6266376021009676,0.303318387283593,0.7108804758372248,-0.09986100661554773,129.2671509083317,72.0839433526788,95.71749692673943,13
1767649860.717272,1,left_wrist,-0.4826,0.1806,-0.2059,-34.51,-20.51,32.06,-0.2128024048715312,0.2589532516671043,0.6955878007367117,-0.6354651535672047,-95.84594477202457,1.8948889175123627,140.87225336179404,13
1767649860.717272,2,right_wrist,-0.1967,-0.2269,0.0151,24.99,-37.24,-168.14,0.6255487417956987,0.2531189230240531,0.7201897415675591,-0.16107860995741777,152.90570248333145,79.28731350007055,118.69058727053626,13
1767649860.770106,1,left_wrist,-0.4758,0.5305,0.1396,4.83,21.63,-82.25,-0.24164661681900595,0.2402317417027579,0.7005632099494183,-0.6269823057501345,-95.57035067906423,-2.1396556356126313,140.20388534542056,13
1767649860.770106,2,right_wrist,-0.4338,-0.5095,-0.0088,22.4,12.39,88.41,0.6245095216528083,0.28522332017647645,0.7123538146435358,-0.14555946467094125,140.02934109709886,76.60037319001675,104.30793302768407,13
1767649860.857616,1,left_wrist,-0.0615,0.4821,0.2865,47.39,115.64,-230.16,-0.343299357657111,0.19493242040001943,0.6943968309256513,-0.6016310694350963,-92.38478212675929,-14.017436614090267,135.1876500391212,13
1767649860.857616,2,right_wrist,0.5827,-0.3406,0.0278,-30.73,87.15,428.96,0.6041849547571071,0.465307803509128,0.6401416031529072,0.09310164526735885,110.33736813491112,43.384112015895454,77.03114600413852,13
1767649860.9153411,1,left_wrist,1.137,-1.0141,-0.2352,-6.65,222.46,-344.4,-0.6199439159997756,0.08332330592437137,0.637703162028635,-0.44951245237854914,-75.67496613218933,-45.70639350845263,108.14292071019763,13
1767649860.9153411,2,right_wrist,1.5435,0.9706,0.0283,-141.75,177.52,494.41,0.5470239628261216,0.5449982515032216,0.5634771025486319,0.293658381211631,103.87681230793297,17.240567430158947,78.37100763261148,13
1767649861.653743,1,left_wrist,-0.0791,0.1279,-0.0517,-11.41,-66.99,192.01,-0.2526220139086326,0.1959700418439126,0.6969667041116568,-0.6418841594463722,-92.78452097447335,-5.771311191394561,143.0927608745755,14
1767649861.653743,2,right_wrist,-0.1879,-0.1884,-0.1601,69.44,-3.5,-152.18,0.6270084156881662,0.2607552087843349,0.7260762602813744,-0.10807604731792966,138.2256012195453,75.2114989769535,107.73048613438688,14
1767649861.704722,1,left_wrist,-0.2743,-0.1571,-0.1015,-61.04,-27.02,109.34,-0.20471683499551255,0.23124982758521412,0.7065586238156747,-0.636702007082535,-96.0504755129878,0.29711251007678,144.02173878991846,14
1767649861.704722,2,right_wrist,-0.3592,-0.2713,-0.1308,15.96,-9.38,-39.06,0.6247784549364858,0.24962993710075262,0.7286104185436273,-0.12831069612441576,146.16146569859808,77.03328073214111,114.9561504881464,14
1767649861.769546,1,left_wrist,-0.3704,0.7823,0.1205,-15.82,71.26,-112.42,-0.2611119926291134,0.22253299129034831,0.7042551799999346,-0.6215498664917268,-95.24259603739195,-5.2296681987463804,140.15631627137103,14
1767649861.769546,2,right_wrist,-0.425,-0.5919,-0.1288,30.94,-7.84,104.72,0.6281890896642425,0.28824463043825094,0.7137362288233224,-0.11346407499904283,132.74485030733226,74.18221812978497,99.41444504372834,14
1767649861.854368,1,left_wrist,0.0181,0.0795,0.0556,36.05,105.14,-212.45,-0.35364308355901425,0.1799309117743298,0.6987062348883737,-0.5952907136576576,-92.45555393696647,-16.257987675986577,135.53361998395647,14
1767649861.854368,2,right_wrist,0.5885,-0.182,-0.0712,21.42,99.96,408.52,0.5863230273348423,0.48843137622371335,0.6408786817805149,0.08327432723465564,113.72149636131375,42.08067080070022,77.18051917991289,14
1767649861.905164,1,left_wrist,0.3167,0.2869,0.0913,35.91,191.73,-304.5,-0.4899693340387614,0.1278674498653013,0.6750453257382607,-0.5365573363262149,-86.23422528718318,-31.620228630812797,124.89620647226103,14
1767649861.905164,2,right_wrist,1.3781,0.7715,-0.1015,-123.83,160.65,484.68,0.5350701371928266,0.572952716610474,0.5581623357110601,0.2718086455701909,106.96669523779661,16.609364392557083,76.16497286571837,14
1767649862.668245,1,left_wrist,-0.2572,0.1547,-0.0849,-59.57,-19.88,135.94,-0.18424156790622043,0.16965009640215178,0.6402796773375302,-0.7261651494217733,-82.96196196908657,0.5990790796687421,150.99714949375362,15
1767649862.668245,2,right_wrist,-0.3353,-0.2728,0.0342,-45.71,-7.35,-148.12,0.644527736380743,0.2291298483359801,0.7227156383568657,-0.09882112988563818,134.45292634317286,77.66259459454506,107.47631373120028,15
1767649862.753673,1,left_wrist,-0.426,0.388,0.0127,-109.13,-2.38,7.63,-0.17149207644320769,0.1811506501205633,0.6732351360948563,-0.6960814328837069,-88.4021515044195,1.2194737603007288,151.13364527150563,15
1767649862.753673,2,right_wrist,-0.3494,-0.4402,-0.1352,1.68,20.93,160.37,0.6403331757628627,0.2852137238783836,0.7090506188440686,-0.07664056136090903,123.24662278733715,72.13372425091207,93.22380598950127,15
1767649862.807301,1,left_wrist,-0.3675,0.8135,0.1157,-22.47,40.39,-145.67,-0.22495263553489306,0.15249307300068093,0.6866773434168889,-0.6742524753314878,-89.39859340177419,-5.929351643685416,148.96678373279835,15
1767649862.807301,2,right_wrist,-0.0142,-0.2718,-0.0127,28.14,63.35,287.49,0.6213589041827275,0.3797727895692764,0.6853355883280587,0.0009337379952920553,115.70728772059178,58.31727721947253,83.37124932972723,15
1767649862.867284,1,left_wrist,0.6407,-0.1035,0.0068,-22.4,199.43,-329.98,-0.4840642143283635,0.059548753162829204,0.6780596226913851,-0.549882651553068,-84.78111813800976,-36.22510158191196,130.5337139895094,15
1767649862.867284,2,right_wrist,0.5475,0.2098,-0.0688,71.33,113.68,400.33,0.5648238252699256,0.5118323610439093,0.6383671479798674,0.10718705600824936,115.36364645580915,37.6912601860189,78.1870199204313,15
1767649863.6556501,1,left_wrist,-0.0712,-0.344,-0.1484,58.73,-67.76,205.94,-0.21879732091314685,0.1406539077085951,0.6597024937086813,-0.7050793078810914,-84.81408402282385,-5.18304978084096,150.2545829667729,16
1767649863.6556501,2,right_wrist,-0.1791,-0.6505,-0.1952,81.76,-20.93,-154.63,0.6345464645726177,0.25177693996947675,0.726393208214719,-0.07944849814518941,131.73520065665159,74.12632563978944,104.3777958366783,16
1767649863.706868,1,left_wrist,-0.303,0.2059,-0.1308,-21.14,-53.06,121.8,-0.16237963666568545,0.1631844949446317,0.6628860251526106,-0.7124505539778588,-86.10570360533013,0.9880220835448523,153.39821509141248,16
1767649863.706868,2,right_wrist,-0.4338,-0.3645,-0.246,7.7,-12.18,-21.7,0.6349143438577501,0.24420351967727152,0.727107553900726,-0.0925365981729277,135.18107599307368,75.58029081402148,107.40693993550035,16
1767649863.7640011,1,left_wrist,-0.385,0.3811,0.0293,30.52,36.75,-104.02,-0.19918831415870294,0.14478137370623645,0.6614956903466112,-0.7083684217857324,-85.23521201760236,-3.34839836015689,151.66981054814602,16
1767649863.7640011,2,right_wrist,-0.4582,-0.3567,0.0088,48.02,7.98,115.01,0.6311724498505604,0.2914870775527746,0.7145393392962426,-0.07803944366455814,126.68898294796979,71.35006533883565,95.9795687844057,16
1767649863.819962,1,left_wrist,-0.0791,0.1928,0.1313,19.32,101.01,-217.42,-0.2954558182255489,0.1110233655543591,0.6558317870534424,-0.6857582218741112,-83.19783104881049,-13.607436483264445,145.47565191697961,16
1767649863.819962,2,right_wrist,-0.0425,-0.5514,-0.0839,-87.22,52.15,233.94,0.629522555149879,0.3386683432141256,0.699053873132041,0.01813252109495808,114.59138661180728,60.210733538234905,87.4631543488773,16
1767649863.902554,1,left_wrist,0.4377,0.0786,0.0517,82.18,141.47,-294.91,-0.42613254582982235,0.05482809906598656,0.620339761289314,-0.6561886264641604,-75.39309132064649,-27.176865896988275,135.1611783146323,16
1767649863.902554,2,right_wrist,1.0185,0.6856,-0.0073,-25.2,143.43,455.21,0.5226936819197544,0.5540300640997494,0.5875808688899958,0.27311302691244105,108.68427376470669,18.157125140789105,80.28675840882632,16
1767649864.704631,1,left_wrist,-0.1796,-0.0952,-0.1205,20.23,-40.88,119.07,-0.1559639472084958,0.10860903368197997,0.6661599960890353,-0.7211866503093833,-84.89470706523107,-2.9313340541671526,158.2754683022708,17
1767649864.704631,2,right_wrist,-0.3494,-0.4807,-0.0776,58.45,-18.55,-5.81,0.6507080450160341,0.26968904908109476,0.7019131741580295,-0.1056633943262559,122.84652911155926,76.04219377035213,91.82785573305915,17
1767649864.7630022,1,left_wrist,-0.2225,0.9096,0.0747,10.92,50.54,-169.26,-0.21699890370173452,0.08006079069570556,0.6794553847941818,-0.6963060574629624,-86.27526902092353,-10.567194095965398,155.28649423725352,17
1767649864.7630022,2,right_wrist,-0.4021,-0.5534,0.0073,4.41,29.61,134.96,0.6460294586462032,0.3108169177280947,0.6938503827319068,-0.06790013695190121,116.91985897460137,69.83513604545715,85.35396795141789,17
1767649864.8135612,1,left_wrist,0.2928,0.3357,0.1542,13.16,108.5,-292.95,-0.3373487353811125,0.0230324656296576,0.6684840868808225,-0.6624155507314843,-83.34176487429947,-24.866815103755677,148.22799003375897,17
1767649864.8135612,2,right_wrist,0.0625,-0.6344,0.122,4.48,83.65,311.78,0.6233042122163475,0.4040581020003445,0.6688967314510683,0.02839140530715601,112.22850173460193,54.18481359200308,79.80825331676853,17
1767649864.865185,1,left_wrist,0.6354,-0.833,0.2542,-63.77,194.25,-340.69,-0.4874909528559122,-0.01336796773106033,0.6500373165405661,-0.582773845867431,-78.27469378769364,-40.49303640688141,133.5898563715453,17
1767649864.865185,2,right_wrist,0.853,-0.1293,-0.0102,-24.08,175.7,479.36,0.5557309097250879,0.5234644490947784,0.6162012867810329,0.19350478205828855,110.54567450991777,28.835625642517112,79.09634842266945,17
1767649865.616761,1,left_wrist,-0.2333,-0.0205,0.0059,9.66,-39.62,164.71,-0.13226740865722605,0.08244679373712498,0.6588261436291061,-0.7359728060739545,-83.19634494409208,-3.0338113230311654,162.31688170810116,18
1767649865.616761,2,right_wrist,-0.0542,-0.2006,-0.0913,37.1,-6.58,-211.68,0.6388373026413023,0.24530544232402024,0.7272798613421482,-0.052689126073103235,126.96822266416862,72.76100188935726,102.35758443804454,18
1767649865.671829,1,left_wrist,-0.3958,0.3841,-0.0244,-35.35,-20.58,66.22,-0.10233095435393696,0.09838471349994606,0.6683262028522872,-0.7301978570987384,-84.99037167454291,0.39532669037798546,163.68269777900335,18
1767649865.671829,2,right_wrist,-0.2928,-0.1083,-0.2967,90.44,-5.6,-87.15,0.6247722199929225,0.24144805175062406,0.7346577786627688,-0.10789096199974005,143.85794548766825,75.95080897318564,115.03448233057912,18
1767649865.7520409,1,left_wrist,-0.407,0.7242,0.0337,18.97,16.17,-81.9,-0.13316464796058655,0.07958994208499084,0.6642532414431168,-0.7312320075630943,-83.96945307599445,-3.4692401721156223,162.48016593417793,18
1767649865.7520409,2,right_wrist,-0.2001,-0.5436,-0.0874,35.56,32.9,236.39,0.6174041926742234,0.3424308936075535,0.7071232555441476,-0.03911326424717169,122.54742513191265,64.15135190254496,90.40821287093357,18
1767649865.807411,1,left_wrist,-0.0381,0.6393,0.1801,63.84,72.8,-240.31,-0.23225643391285447,0.028943271452740425,0.6431204654754674,-0.7291195394654534,-79.80253240822096,-14.864354006941037,157.11215059854985,18
1767649865.807411,2,right_wrist,0.4324,-0.3026,-0.1166,-46.62,105.77,398.86,0.5879185747922141,0.4479408147634221,0.666519787712155,0.09722216039318053,113.82437410039105,44.156385755508026,82.58428026983391,18
1767649865.8662982,1,left_wrist,1.3103,-1.1854,-0.184,-9.45,169.47,-397.46,-0.539654268453501,-0.07664118124666115,0.5639112299544677,-0.6204059353425566,-60.27641982568792,-44.72715411006193,124.83204186357284,18
1767649865.8662982,2,right_wrist,0.9545,0.6139,0.2225,122.15,110.46,485.31,0.49827291253249906,0.6022753307142802,0.5890375633184005,0.2049958039797558,116.48624815529926,19.88144922157268,76.34384664210413,18
1767649866.5682292,1,left_wrist,-0.082,-0.2796,-0.061,29.19,-77.42,212.87,-0.1536270590726973,-0.003663387352346635,0.6522415166231025,-0.7422710490831333,-81.23403603979013,-11.878813547213934,166.81044971314097,19
1767649866.5682292,2,right_wrist,0.1913,0.082,-0.1025,12.74,-18.83,-288.47,0.6671041844935853,0.32286679909333854,0.6706084809072504,-0.03183241130734607,105.54030072545554,66.24647582104302,75.83941040648898,19
1767649866.6573381,1,left_wrist,-0.2694,0.2001,0.041,-8.12,-40.81,138.25,-0.09571899040560788,0.024450593892859876,0.6560020171343826,-0.7482655924534009,-82.02868686570487,-5.10565622273144,169.86173744495812,19
1767649866.6573381,2,right_wrist,-0.2874,-0.4919,-0.1327,59.29,-1.4,-26.46,0.6496179355001124,0.28572245300467847,0.6920467193407482,-0.13202483090414746,122.72711469098475,77.05277141671536,88.13760402207367,19
1767649866.71554,1,left_wrist,-0.2791,0.9618,0.3133,53.76,62.72,-136.99,-0.15144705847342257,0.015226993157736861,0.6583234150134845,-0.7371853283972121,-82.24800666316959,-10.192275854207045,165.6857956145411,19
1767649866.71554,2,right_wrist,-0.2406,-0.6334,-0.0088,-32.2,23.73,157.85,0.6535635099038962,0.3227910384841561,0.6802553489871085,-0.07689827157255948,112.87649941882546,69.85503994731815,79.51398306316116,19
1767649866.7678132,1,left_wrist,0.2098,0.8486,0.3997,27.58,145.95,-292.53,-0.2860437074856431,-0.024288020759135272,0.6341575668922032,-0.7179368146354054,-77.76090727299051,-23.432480337691594,155.53948484850994,19
1767649866.7678132,2,right_wrist,0.1566,-0.7828,0.1118,7.84,61.18,344.82,0.638504948717651,0.4237378800021537,0.6419255097491824,0.02625413201008272,107.68141789303117,52.89160033649445,73.18961950701669,19
1767649866.853986,1,left_wrist,1.0302,-0.0312,0.266,66.29,239.96,-406.0,-0.4715969292241495,-0.0714150485566264,0.5657282328718227,-0.6726423966103623,-63.246995259017424,-39.02540922120893,134.54958420364682,19
1767649866.853986,2,right_wrist,1.8725,0.8252,-0.1054,-51.94,170.8,511.84,0.4802237215831325,0.6434787925587393,0.4728765939438237,0.36291589611930913,105.98450104463483,-0.7382335549832545,73.17894460606237,19
1767649867.555841,1,left_wrist,-0.0825,-0.2899,-0.0063,-97.86,-37.38,190.19,-0.12159881559236395,0.004743757541067267,0.6824253520909751,-0.7207543712211771,-86.01869696707618,-9.156173335625143,169.3909790768806,20
1767649867.555841,2,right_wrist,-0.2801,-0.5563,-0.1962,52.5,-8.82,-80.99,0.6719279259909091,0.27154351384562936,0.6687625665582405,-0.16593255235895918,106.35509432870592,81.43067799163981,70.21140868859447,20
1767649867.615207,1,left_wrist,-0.2967,0.5695,-0.0332,-11.27,11.55,-26.18,-0.09386676659359379,0.029207673974014907,0.6806490626691214,-0.7259840186932065,-85.87168521588627,-4.897419207180076,169.82257228480753,20
1767649867.615207,2,right_wrist,-0.4475,-0.2338,0.0278,2.38,-0.7,60.9,0.6758065813343547,0.28690345261020483,0.6617129126533853,-0.15201281108278203,102.20286091832862,78.99360587517845,65.86764674060095,20
1767649867.703766,1,left_wrist,-0.1767,0.8823,0.1972,45.57,64.82,-194.81,-0.1749562859638397,-0.009966460143064085,0.6626617210073896,-0.7281280184043739,-82.7945871299225,-14.263838689602832,165.56647467054546,20
1767649867.703766,2,right_wrist,0.1327,-0.0654,-0.0996,-28.28,91.14,318.64,0.6567243921844766,0.4223949458841225,0.6243534279777396,0.021871885467978622,103.19419003820066,53.28116128928311,68.47096433948334,20
1767649867.756182,1,left_wrist,0.2406,0.0898,0.2523,-52.78,141.4,-324.87,-0.31745855093345127,-0.05585168596384858,0.6575859482340569,-0.6809415380921808,-81.47519424759784,-29.575895929376152,155.62829356898027,20
1767649867.756182,2,right_wrist,0.5861,-0.1259,0.3865,-21.56,167.16,410.2,0.6003492294071073,0.517204607604009,0.5846102723834813,0.17410062046755348,104.84409835110607,31.456385321659585,72.54744444274657,20
1767649868.513025,1,left_wrist,0.0844,0.181,0.0137,48.3,-55.16,222.04,-0.11238797474663684,0.011805521536984945,0.6864384385326475,-0.718353563990915,-86.68220059684141,-7.893592517156407,169.66659898316456,21
1767649868.513025,2,right_wrist,0.1035,-0.0517,0.042,63.91,-13.09,-257.67,0.6378640118390494,0.30100214413496706,0.7008035381726001,-0.10677833353031123,124.89687490449023,73.39862685668977,91.01365326804995,21
1767649868.5644548,1,left_wrist,-0.3587,0.426,-0.0015,-44.03,-27.86,100.94,-0.07093100717277594,0.03657429128757589,0.7001376805275603,-0.7095338904828683,-89.02832142040727,-2.7180736742616536,171.25477377539008,21
1767649868.5644548,2,right_wrist,-0.3162,-0.6246,-0.0395,25.69,-7.42,-122.85,0.6294031430187188,0.2674781187326636,0.7134827018061421,-0.1524781091855519,143.53738459940033,78.43720861084962,108.80567254471454,21
1767649868.617067,1,left_wrist,-0.4343,0.1444,-0.0439,40.95,15.33,-6.09,-0.07606094603590492,0.04033342332908571,0.6870012337163549,-0.7215381156410839,-86.96983312001001,-2.6539568427881512,170.48200702351724,21
1767649868.617067,2,right_wrist,-0.4451,-0.4621,-0.0952,22.61,4.83,36.33,0.6265915860939008,0.28268436700820376,0.710146290099932,-0.15219980138884623,140.65451514284527,77.41987918539313,104.61174189353487,21
1767649868.705708,1,left_wrist,-0.4255,0.5793,0.061,33.74,45.15,-127.54,-0.1294166922539322,0.016068220709646697,0.6755635782477738,-0.7256769141941481,-84.96729215511753,-8.71605100082114,167.76113401555764,21
1767649868.705708,2,right_wrist,-0.0137,-0.3109,-0.1474,3.22,43.12,287.42,0.6275423947755563,0.40553154648041484,0.6643038480057832,-0.02085917288082972,113.72507641133998,58.28524505910323,77.19278051848117,21
1767649868.766413,1,left_wrist,0.8067,-0.0063,0.1298,45.15,192.01,-363.65,-0.41329636077191434,-0.07861516696719686,0.5993113064328863,-0.6810519302352196,-70.281615895553,-37.04688809605965,144.03671654745594,21
1767649868.766413,2,right_wrist,0.6466,0.202,-0.1737,-0.98,111.02,414.26,0.5878427976777792,0.5190297830773867,0.6102067226457436,0.11267956840058924,110.76327955668063,36.9016425322185,73.29182457132636,21
1767649868.818122,1,left_wrist,1.4191,-0.995,-0.3611,29.82,227.57,-389.27,-0.5759398317784095,-0.11791248519166853,0.5286990445108024,-0.6122640576910804,-51.076253888418556,-48.88443928466568,118.00640059967039,21
1767649868.818122,2,right_wrist,1.1546,0.612,0.4494,-93.73,173.6,478.8,0.5256271054506249,0.5995899962286945,0.5265973592012817,0.2947934933479847,106.21680456968417,11.541475395449693,73.90750770532888,21
1767649869.556936,1,left_wrist,-0.1259,0.2225,-0.0864,-17.92,-51.1,194.32,-0.08800130575777051,-0.017226269113234362,0.6595681437605863,-0.7462766843293314,-82.49189023873274,-8.1518350988739,173.70015622690846,22
1767649869.556936,2,right_wrist,-0.1708,-0.4582,-0.0512,58.8,13.3,-102.2,0.6534637468033454,0.2604485095175175,0.6988013180938927,-0.12972441302266566,125.22209564732235,78.7707047031701,93.03291682573891,22
1767649869.6141179,1,left_wrist,-0.3826,0.5134,0.2103,-0.14,20.93,-47.32,-0.06953723302319156,-0.006994070305062576,0.6745128366446475,-0.7349476780054736,-84.81002125737386,-5.974628583111609,174.64743915817988,22
1767649869.6141179,2,right_wrist,-0.2596,-0.754,-0.1186,14.07,1.89,53.48,0.653241413746478,0.2785661264842794,0.6935211770176595,-0.12126395000199887,120.8981198673178,76.81372258058822,87.8276674939883,22
1767649869.664594,1,left_wrist,-0.1742,0.9301,0.2967,47.95,90.93,-213.29,-0.16407443239874467,-0.04187292657847302,0.6514717780583378,-0.7395341513725323,-81.1634321700448,-16.004487517229066,168.71410527559172,22
1767649869.664594,2,right_wrist,-0.0766,-0.5236,-0.1049,14.14,0.7,220.08,0.6591226471784678,0.3459641281595735,0.6645839485584039,-0.06476367285566648,108.35101517572876,67.05749477578499,73.87423148087053,22
1767649869.755861,1,left_wrist,0.5461,0.2079,0.3289,-58.31,175.63,-372.82,-0.33232103421096,-0.08760515405921136,0.6388697572996499,-0.688283008951337,-78.41545137591805,-33.0392885141026,155.65844298300732,22
1767649869.755861,2,right_wrist,1.0106,0.3567,0.2767,6.86,129.78,528.85,0.5879208669349663,0.5528210829522942,0.5330119386245628,0.25423646030728164,101.02345550375786,20.221059838112843,71.19219485954154,22
1767649870.5156422,1,left_wrist,-0.0176,-0.2562,-0.0244,-32.69,-49.14,197.26,-0.07594403638242822,-0.11265009594477599,0.6232313566837886,-0.7701461778569451,-78.15261131671402,-15.555726755099508,-178.60589588393444,23
1767649870.5156422,2,right_wrist,-0.0142,0.019,-0.0815,63.35,-15.61,-244.02,0.6454083017343267,0.33575177100232767,0.6718089794752243,-0.13925360827522823,117.48214979103267,73.88189484342803,77.82224663515731,23
1767649870.566835,1,left_wrist,-0.2796,0.2128,-0.0488,-20.79,-34.58,99.61,-0.032673280794589636,-0.09486253373261122,0.6357725157332853,-0.7653279458206897,-79.82255540297123,-10.763029270530001,-175.87831993312048,23
1767649870.566835,2,right_wrist,-0.2743,-0.3733,-0.1098,63.56,-11.62,-121.87,0.6294424113883703,0.31424010168262206,0.6829222551280845,-0.1966535092258983,135.7272166272439,79.51837464788082,93.18604487714812,23
1767649870.652687,1,left_wrist,-0.4494,0.5358,0.0478,-42.98,3.5,-13.93,-0.03926138989521013,-0.09585696311646183,0.6491416854723858,-0.7535814873440401,-81.86051305294004,-11.27068976551488,-176.18358237287552,23
1767649870.652687,2,right_wrist,-0.4153,-0.4246,-0.1215,4.76,18.2,137.06,0.6275112744676189,0.36287565257862137,0.6695159352763969,-0.1621705077769562,123.8590251166434,73.32605132604148,79.78209577976568,23
1767649870.70726,1,left_wrist,-0.3314,0.4485,0.0468,23.87,54.95,-133.7,-0.09716075859235335,-0.1150335648279255,0.633128186021233,-0.7592600121290471,-79.6306135000266,-17.320184312054522,179.88725323261926,23
1767649870.70726,2,right_wrist,-0.0303,-0.3099,-0.0625,-4.2,62.65,284.9,0.6240279492474122,0.44459662860757587,0.6382662981853499,-0.07442505619491471,114.55390578152982,59.62906697140573,69.85159370342147,23
1767649870.764195,1,left_wrist,0.4597,-0.3504,0.1674,-16.73,183.68,-327.6,-0.36999271348351126,-0.16566796996428165,0.5774635394964658,-0.7086574463372524,-68.21011514025915,-41.46162602602132,153.61259406982393,23
1767649870.764195,2,right_wrist,0.5534,-0.2704,0.0268,-61.25,128.59,431.83,0.60192281852345,0.5423799612260339,0.5799924981276507,0.08438957469308042,109.17734347458016,37.349759189121855,66.81479609561438,23
1767649870.8142111,1,left_wrist,1.4723,-1.5645,-0.0644,79.31,277.06,-358.19,-0.5328372795100199,-0.1802878996135934,0.4763273368712894,-0.6757906295343142,-43.18569467938837,-48.70169611136696,123.80185454230975,23
1767649870.8142111,2,right_wrist,1.2127,0.0976,0.2845,-90.51,255.15,478.17,0.5255713048491061,0.6135704480949742,0.5145248582861236,0.2873504462314007,106.71123947433253,10.848895517875208,71.88379132970694,23
1767649871.6047401,1,left_wrist,-0.2699,0.0937,-0.0215,-34.51,-43.75,119.56,-0.022220905182713156,-0.18138732596244136,0.6225056348486456,-0.7609806856515746,-80.38289459991857,-17.68176079019113,-168.37352317086152,24
1767649871.6047401,2,right_wrist,-0.4285,-0.2806,-0.0761,48.51,-12.11,-61.11,0.6331170139881006,0.360830453037118,0.6538237913327298,-0.2036631548589836,121.18928716092319,77.12786918640515,73.82168512963,24
1767649871.667775,1,left_wrist,-0.5144,0.3045,-0.0722,-19.25,1.68,-39.13,-0.014141007741046662,-0.18179766583882598,0.6284213898074839,-0.756198517208314,-81.33411675197304,-17.02106501836368,-167.4910812331093,24
1767649871.667775,2,right_wrist,-0.4514,-0.0307,-0.1786,8.47,6.44,34.93,0.6299926377388763,0.3729439579161808,0.6521454083665139,-0.19679544454864747,121.12676134243911,75.57647172514342,73.20922669674181,24
1767649871.755718,1,left_wrist,-0.2494,0.3626,0.1664,10.92,49.63,-136.01,-0.07147836854600531,-0.20176250158299014,0.6117413745158748,-0.7615479147699135,-79.32913508691561,-23.25076822569152,-171.36256218430822,24
1767649871.755718,2,right_wrist,-0.1806,-0.2098,0.0142,-35.91,52.36,242.69,0.6465028050384529,0.4461715200635672,0.6164008094383588,-0.054910289430252876,107.24224494301515,57.7801519084517,63.95889502204202,24
1767649871.814514,1,left_wrist,0.5407,-0.2835,-0.0952,42.49,148.96,-333.06,-0.3168459235594233,-0.25936447567201815,0.4785627136023187,-0.7767344839987086,-54.871216834974604,-44.92462607948906,159.84463370293244,24
1767649871.814514,2,right_wrist,0.611,-0.0966,-0.0547,-54.18,118.3,363.3,0.6245124898171001,0.5250105176596496,0.5718903938566955,0.08537847400619929,105.24910914643675,38.65695744507854,64.89623204737111,24
1767649871.865655,1,left_wrist,1.2566,-0.9833,-0.2411,-43.68,208.74,-382.62,-0.48515198296924655,-0.25957330281028324,0.41684713442999516,-0.723524512650864,-34.16143797289758,-51.268241599122,129.08823994759757,24
1767649871.865655,2,right_wrist,1.1136,0.9819,0.0146,-103.6,129.64,448.63,0.5856812507589988,0.5924263165271095,0.48799223777554535,0.2605227588260023,100.64422554255958,15.244270254937982,66.2884393753918,24
1767649872.617892,1,left_wrist,-0.1005,-0.163,0.0859,-15.54,-50.54,186.48,-0.00250825452956732,-0.2305148487372563,0.6509083083583496,-0.7233083625127852,-87.17772748467927,-19.67788974894086,-161.64845663260186,25
1767649872.617892,2,right_wrist,0.0185,-0.1205,-0.0664,74.06,-11.27,-215.67,0.6327456182625606,0.3447261957182005,0.682840427466402,-0.12052295703594645,122.07083446004492,71.30234837142237,83.11916086590921,25
1767649872.704719,1,left_wrist,-0.4055,0.4285,0.1044,-13.3,8.89,94.22,0.024132660414003245,-0.19982482404710414,0.663906701505937,-0.7202190958947096,-87.71191180751505,-14.820498491349444,-161.91553401010847,25
1767649872.704719,2,right_wrist,-0.406,-0.673,-0.2113,-21.14,-7.14,77.63,0.6365371935701829,0.3268229681475537,0.6903858612565091,-0.10665135381291131,121.83436292540358,71.55445173853006,85.65238610590022,25
1767649872.766735,1,left_wrist,-0.1566,0.368,0.1054,54.74,49.0,-187.32,-0.06911698846664156,-0.24327389543383332,0.6175414406074791,-0.7447705840312101,-82.35724576598938,-26.598244513518527,-167.238814831544,25
1767649872.766735,2,right_wrist,-0.1454,0.0244,-0.0595,55.51,10.01,224.91,0.630015627879444,0.4081828899145777,0.6579126632736155,-0.060149517977051155,114.56571837174855,61.413354782592755,74.59991022688723,25
1767649872.857281,1,left_wrist,0.1806,0.2025,0.2455,55.72,124.95,-304.57,-0.19551225489114699,-0.28421835650395116,0.5553215756959188,-0.7567118550546003,-73.0930010605134,-40.337375244589744,-178.51360923393085,25
1767649872.857281,2,right_wrist,1.526,0.7042,-0.0366,-164.78,140.0,424.69,0.5839983632668202,0.5508183396717582,0.5389314235759219,0.25514307567589045,101.55107699978993,20.389187792034885,72.04797322416908,25
1767649872.914934,1,left_wrist,1.6548,-1.4586,-0.3953,59.43,183.05,-339.08,-0.4777671342452969,-0.333217869429584,0.36976059093027647,-0.7238656797519397,-23.266168026414757,-56.69181007691088,125.82365311319396,25
1767649872.914934,2,right_wrist,1.526,0.7042,-0.0366,-164.78,140.0,424.69,0.5304071855348111,0.5818655160042587,0.4425214415606159,0.42927323766716735,93.94602200542683,-1.726324228025294,76.11892428231145,25
1767649873.608237,1,left_wrist,0.2035,-0.345,-0.0737,22.4,-119.98,261.87,-0.06895907199529991,-0.292531791437153,0.6070111951131961,-0.7356678641855755,-83.84751937154411,-30.939342990185622,-162.79679491362032,26
1767649873.608237,2,right_wrist,0.0976,0.1196,-0.1469,21.14,-19.32,-282.73,0.6733258109561966,0.3201794588658472,0.6612460995354578,-0.08289187095063565,103.89125300004189,70.6563156310845,70.28021187455741,26
1767649873.6681652,1,left_wrist,-0.3109,0.6959,-0.2113,-33.46,-36.75,107.8,0.054392514855764636,-0.23037749830388857,0.6571682010693395,-0.7156099622742793,-88.21383016019129,-14.965110140850308,-156.7960960675455,26
1767649873.6681652,2,right_wrist,-0.2391,-0.4924,-0.1596,20.23,-20.58,-149.8,0.6681582300170862,0.2792401670909403,0.6756320352531443,-0.1382420402162537,110.29292408491806,78.54000564358022,75.77548447864486,26
1767649873.753667,1,left_wrist,-0.3943,0.0986,-0.1103,-18.69,-3.64,-9.31,0.052583658972211914,-0.23288873274793565,0.6632258818615887,-0.7093160273087539,-89.30036906280277,-15.10766900616711,-156.59411745526918,26
1767649873.753667,2,right_wrist,-0.3465,-0.2972,0.0249,1.75,14.7,125.3,0.6679603702175043,0.32467976080932065,0.6584606940755052,-0.12182574070080923,105.92327243634597,73.48795421328633,68.71430995517414,26
1767649873.804924,1,left_wrist,-0.4475,0.183,0.0805,20.09,37.59,-87.64,0.01790152931639395,-0.24453147319250074,0.6485361946944123,-0.720614111739238,-87.62010798101379,-19.220594950811126,-158.70180429839903,26
1767649873.804924,2,right_wrist,0.0034,-0.3919,-0.0259,37.66,66.43,283.78,0.6528367638183326,0.41607965162809474,0.6316000688487277,-0.04199090780791119,106.3786880573045,59.27244224825457,67.12302284910982,26
1767649873.8556511,1,left_wrist,-0.246,0.4534,0.1386,25.41,92.82,-191.66,-0.06578454573054714,-0.2679144406585762,0.6175985275856549,-0.736523118953953,-83.89154482739303,-28.418436524918153,-164.5683706929419,26
1767649873.8556511,2,right_wrist,0.6285,-0.1435,-0.0078,-15.75,142.52,460.88,0.610860052201748,0.5305098767242434,0.5757041886915437,0.11821148186668497,106.0589613800072,35.30470656971765,67.73709859266758,26
1767649873.91813,1,left_wrist,0.9716,-0.568,-0.0639,147.21,188.44,-327.32,-0.3249509779421195,-0.3275186561826065,0.42765744585242194,-0.7773335839868123,-47.123973762438254,-51.916985752684184,158.5997905142367,26
1767649873.91813,2,right_wrist,1.24,0.4197,0.0293,-97.58,195.51,470.82,0.5451079858487199,0.5986605354530863,0.49943985028929283,0.30825749463392604,102.65417328287079,10.102757533587218,71.58040337132765,26
1767649874.61837,1,left_wrist,-0.0283,-0.3201,-0.0112,-15.47,-86.87,230.51,0.02682074812663761,-0.29424459929265423,0.6042283915250922,-0.7400059554706521,-83.93734158701123,-23.77047752606825,-154.41068471244523,27
1767649874.61837,2,right_wrist,0.2333,0.204,-0.0654,30.66,-4.9,-316.96,0.6586826973198472,0.33477934940549303,0.6733167480409629,-0.02654144439603886,107.89510723070248,64.79302845556717,77.5412145585238,27
1767649874.70359,1,left_wrist,-0.2513,-0.0498,0.039,-84.49,-40.81,152.46,0.07795627808508107,-0.26505079605991533,0.6493038346691707,-0.7085728081849011,-89.02844831192004,-15.925126418935223,-151.7825816295527,27
1767649874.70359,2,right_wrist,-0.365,-0.8291,-0.1513,35.98,5.53,-42.07,0.6461312666466458,0.24862192225113056,0.7169581540766051,-0.08168556384589074,126.61178688674234,75.26573074285812,99.36878924909016,27
1767649874.763005,1,left_wrist,-0.4187,0.649,0.183,21.91,58.31,-86.45,0.043624965638382175,-0.2613298948369823,0.6468523832760148,-0.7151122588011489,-88.39402967587898,-18.501083924941387,-155.01993977980592,27
1767649874.763005,2,right_wrist,-0.2181,-0.5817,0.0356,66.01,3.15,138.39,0.6414612061559378,0.30807886990839395,0.6995307020964631,-0.06535845574495955,119.01616372386526,69.67125062082323,87.89341737559197,27
1767649874.816355,1,left_wrist,-0.0176,0.408,0.1401,61.53,109.9,-185.64,-0.038889916223498515,-0.27716577886969057,0.6047457397586982,-0.7456200746247327,-82.56177602358758,-27.410195494529635,-161.80235894321532,27
1767649874.816355,2,right_wrist,-0.0337,-0.0224,-0.1728,61.95,19.6,288.05,0.6264281467355695,0.41116885283185683,0.6622130225712994,-0.0013653480722403098,112.74201382950548,56.179000996154414,77.2390366743975,27
1767649874.907758,1,left_wrist,0.3553,-0.0981,0.1157,63.49,176.33,-283.85,-0.17114084978561409,-0.2947042117262688,0.5383081722716978,-0.7707688037219466,-71.29919822629194,-39.6838306855878,-176.01640834749006,27
1767649874.907758,2,right_wrist,0.6437,-0.1142,-0.0239,36.75,152.04,430.92,0.5130201308168306,0.6162709063866385,0.5357215069890932,0.2646185599450802,110.01299904162596,12.915769784883645,72.93948310174352,27
1767649875.663863,1,left_wrist,-0.2957,0.0508,0.0161,-35.35,-22.4,117.67,0.1385255286542708,-0.3043824484966911,0.6183535509183122,-0.7111968004883937,-87.03165367806871,-15.167167187800203,-143.54675518644237,28
1767649875.663863,2,right_wrist,-0.2869,-0.53,-0.1659,16.45,5.39,-116.48,0.6228745553524812,0.2793054354449367,0.7210416126864388,-0.11880553354075164,137.95231185992102,74.70990267120216,104.9503628156704,28
1767649875.715713,1,left_wrist,-0.4651,0.5085,0.0078,-88.34,15.68,3.36,0.12427269873896865,-0.30288124504329256,0.6470923360706256,-0.6885424869590977,-91.24078931830962,-14.848341263740004,-144.36836314888467,28
1767649875.715713,2,right_wrist,-0.386,-0.4738,-0.1679,40.11,25.41,56.63,0.611321977235646,0.30686265270691915,0.7201687267274952,-0.11609374473274348,137.33050131460226,72.13082230238898,102.08494597628763,28
1767649875.80723,1,left_wrist,-0.3123,0.6305,0.1796,41.02,57.47,-146.37,0.06941402664739,-0.3235860715660765,0.6166501437769484,-0.7142943002522828,-88.13985367785062,-22.127135850658153,-147.46220885741624,28
1767649875.80723,2,right_wrist,0.4158,-0.4509,-0.0669,-15.05,62.93,367.01,0.5900591976035358,0.4749695642133638,0.650524599777089,0.05524311250551549,115.19810859583319,45.661105003714255,77.81368939196965,28
1767649875.858901,1,left_wrist,0.1196,0.6076,0.325,16.59,147.28,-291.62,-0.059429460367315896,-0.35245753908703986,0.567617812560361,-0.7416547992464879,-82.3706908731597,-36.17617704679497,-157.2642591398882,28
1767649875.858901,2,right_wrist,1.4542,0.4914,-0.2694,17.29,161.49,477.47,0.515268457955684,0.598329903350862,0.5786186694176699,0.20420621536438346,114.32734106497718,20.604950736694366,74.69951437119428,28
1767649876.605762,1,left_wrist,0.1596,-0.0083,-0.0708,7.07,-87.43,242.06,0.08114668266373418,-0.3569360764098689,0.583330540586023,-0.7250774673573974,-85.90910671423194,-25.02046403791991,-143.884784591935,29
1767649876.605762,2,right_wrist,-0.0303,-0.327,-0.1137,82.95,-33.53,-209.3,0.5870118142541302,0.3360054395931248,0.7290164510705422,-0.10513081640706974,140.12582245531414,67.90045088172764,103.06323856721586,29
1767649876.665886,1,left_wrist,-0.4577,0.1542,-0.0049,-30.24,-12.53,33.46,0.1513855497218152,-0.32859370964245327,0.6136140979154404,-0.7018449459519213,-88.15156341370448,-15.989372626892761,-140.1680165891375,29
1767649876.665886,2,right_wrist,-0.3841,-0.3709,-0.141,14.0,-7.63,-66.43,0.5829725763789504,0.3156732865962399,0.7371046892746754,-0.13103445489221976,148.54989718036776,70.41611996272896,111.15875756840222,29
1767649876.756303,1,left_wrist,-0.5192,0.3709,0.0044,-0.14,22.54,-65.38,0.1262851666658925,-0.33802690196037793,0.6059987421232665,-0.7089114153237027,-87.75640493160931,-19.038592789383994,-141.47867999346113,29
1767649876.756303,2,right_wrist,-0.3065,-0.2874,-0.0556,12.81,18.97,188.16,0.5835258281265191,0.39484288503533665,0.7060859412815178,-0.07098836222103443,130.58938362363742,61.654098873814426,90.86809898213592,29
1767649876.81056,1,left_wrist,-0.3094,0.2147,0.082,29.4,69.44,-175.84,0.05837860145870881,-0.35921137750642523,0.5728113721536725,-0.7344700518694336,-84.45822084114191,-27.437460267438528,-145.92336522651277,29
1767649876.81056,2,right_wrist,0.1747,-0.124,-0.0737,-13.02,68.6,326.06,0.5673456378243052,0.48955556111624854,0.6615780106366034,0.027727525385462543,120.92040144207922,46.34740103734568,79.72808130283642,29
1767649876.866772,1,left_wrist,0.6378,-0.4885,-0.1537,-27.65,207.76,-328.72,-0.22553291983559662,-0.381101942469631,0.47613120281609134,-0.7597336962523161,-65.09201845210505,-52.545685884910014,-178.09467181563508,29
1767649876.866772,2,right_wrist,0.6256,0.2391,0.1078,-39.2,127.05,425.88,0.5234985199428857,0.5912602382956856,0.589289044087926,0.17058444461930128,115.6441279658777,24.535960935146637,74.22715091011324,29
1767649877.6159518,1,left_wrist,-0.0844,-0.1688,-0.1684,1.82,-42.42,180.18,0.11868295753501558,-0.31542049198771693,0.5819237701612022,-0.7401276880014289,-82.4706748443718,-19.194379825592414,-144.9190899460868,30
1767649877.6159518,2,right_wrist,0.0029,-0.3109,0.0742,42.84,-45.85,-190.47,0.595123337233428,0.3126074686382754,0.7308066457483465,-0.11843323250577872,142.9533259885179,70.71481925028382,106.93613441670395,30
1767649877.712147,1,left_wrist,-0.3255,0.1942,-0.1352,-45.29,-31.64,92.89,0.15171259022850622,-0.30290417852797363,0.6083655487554507,-0.7177211907725243,-85.48116094025325,-14.489824974102763,-142.72867772368505,30
1767649877.712147,2,right_wrist,-0.5431,-0.1825,-0.1786,-0.49,1.61,29.19,0.5939076806160012,0.2949087907289091,0.7322345589754272,-0.15535450652683358,153.500747526848,74.02674936830996,115.99310289077924,30
1767649877.764459,1,left_wrist,-0.1869,0.8272,0.2464,16.38,78.19,-197.82,0.05366584368642682,-0.33707417901984127,0.5777679139824919,-0.7414075887336491,-83.28489712965282,-25.96397273241558,-148.5511626590351,30
1767649877.764459,2,right_wrist,-0.4187,-0.6027,-0.0703,29.05,36.19,190.82,0.5888210831803858,0.36256584024270494,0.7134797103252815,-0.11305948189130802,136.61084520944024,67.25086411720869,96.48451171543279,30
1767649877.817707,1,left_wrist,0.2621,0.2865,0.3494,-38.92,169.4,-319.27,-0.09851210351185131,-0.3596210737874799,0.5385514988302836,-0.7555993196511398,-77.75383684116338,-40.50893027508256,-161.7200302768857,30
1767649877.817707,2,right_wrist,0.3274,-0.7515,0.0425,-18.76,132.79,380.38,0.5600757955248394,0.47514386870626896,0.6785589641042538,0.010542273560314895,124.27018725180467,48.596503377466995,83.14888638359095,30
1767649877.868417,1,left_wrist,1.0892,-0.6827,-0.3167,87.29,217.14,-366.31,-0.25303546319354747,-0.37422613858442466,0.4365641611197996,-0.7780357220541891,-55.34092751953088,-53.442069472082416,173.54201655587616,30
1767649877.868417,2,right_wrist,1.1566,0.1391,0.0795,-46.62,153.09,461.37,0.5099795763048418,0.5875761892313206,0.6056303616756302,0.16699376819803444,117.88072520573381,24.927752213553347,76.5680664737254,30
1767649878.653334,1,left_wrist,-0.1752,0.2147,-0.041,-51.59,-45.85,148.26,0.16015953403212246,-0.29006341208099873,0.6460642397132849,-0.6876140914744528,-90.17932306882219,-11.066996108172058,-142.67533438517515,31
1767649878.653334,2,right_wrist,-0.3894,-0.8447,-0.2084,70.77,-23.8,-31.15,0.5766241989486215,0.269211012847928,0.7424875570833471,-0.20914633949619243,-179.97455161374788,75.66891462951266,140.1605177463458,31
1767649878.703688,1,left_wrist,-0.3523,0.4636,0.0356,10.29,17.5,6.02,0.1591006734406779,-0.28159501869928155,0.6451501507588044,-0.692222871718615,-89.4770042247557,-10.635794055534003,-143.57216100013545,31
1767649878.703688,2,right_wrist,-0.346,-0.4573,-0.1005,12.67,14.7,147.56,0.581525156532304,0.31860824595700543,0.7272748606029968,-0.17716815476594888,156.6065252045449,73.48628545608572,115.1129237559126,31
1767649878.757162,1,left_wrist,-0.3821,0.9116,0.1767,36.12,78.33,-129.29,0.10232005501568339,-0.29076798048055574,0.6221097735088238,-0.7196971707417271,-86.59213797307706,-16.931080032963813,-147.8510194802747,31
1767649878.757162,2,right_wrist,-0.0747,-0.407,0.0107,-13.79,57.68,306.46,0.583041936370305,0.4117483239665302,0.6947859558452258,-0.0883056833083482,130.4311343364571,61.99396427832245,87.6872147828773,31
1767649878.8162189,1,left_wrist,0.5919,0.0034,0.0083,121.24,173.74,-322.28,-0.1490610259585923,-0.34245875636850975,0.4996021329411171,-0.7816012535093531,-68.58629285396091,-43.178600899716024,-171.38975826574585,31
1767649878.8162189,2,right_wrist,0.4387,0.0195,-0.0156,30.66,90.93,399.98,0.5557675091509323,0.536892271633548,0.6343548354477629,0.021519925101601636,121.42544031515907,43.000116778435846,74.59621400813289,31
1767649879.564008,1,left_wrist,-0.0185,0.2362,0.0386,-23.1,-63.84,195.65,0.1540224739272011,-0.326587564544379,0.6289258803968575,-0.688527324931519,-90.26164569462789,-14.83234318912151,-139.8817653136256,32
1767649879.564008,2,right_wrist,0.1147,-0.1591,-0.0468,64.68,-15.75,-248.22,0.6053619748573917,0.3151061543914153,0.7093829560935995,-0.17612726212974092,147.30100497539496,75.89823328783473,106.32620903697092,32
1767649879.6158211,1,left_wrist,-0.325,0.8047,0.1352,21.21,-5.67,33.46,0.16895251385703086,-0.31729355118931296,0.6267044193560231,-0.6913909322479538,-89.2273596840146,-13.119406905621968,-139.59075998909285,32
1767649879.6158211,2,right_wrist,-0.2655,-0.8438,0.0498,40.74,-2.87,-85.75,0.5929255519008403,0.29675196139963406,0.7172699929333132,-0.21424593472455636,167.7412142924905,77.8857890795222,125.12800475309476,32
1767649879.667692,1,left_wrist,-0.3343,0.4329,0.1303,-8.61,45.57,-97.09,0.12640196644603155,-0.3296604797007202,0.618461656435216,-0.702033966786135,-88.93703061449479,-17.84940356471266,-142.05995453983007,32
1767649879.667692,2,right_wrist,-0.2499,-0.791,-0.0503,40.32,27.02,103.67,0.5872783011889958,0.3397783612801793,0.7071553380526616,-0.19896278552017901,153.0049228284823,74.97227434874392,107.81092689308166,32
1767649879.718105,1,left_wrist,-0.0195,0.366,0.2094,66.57,102.97,-217.91,0.040589032700162904,-0.3511636975948602,0.567888395605193,-0.7433299119858761,-82.92164468161553,-28.421931250763635,-148.52553942787867,32
1767649879.718105,2,right_wrist,-0.2499,-0.791,-0.0503,40.32,27.02,103.67,0.5803562319787181,0.38220454407677196,0.6953763442005769,-0.1831886197796465,143.92800746416887,71.2915593463398,96.1230296412024,32
1767649879.769751,1,left_wrist,0.4304,-0.1659,0.0693,-21.7,182.98,-329.91,-0.11676653229929357,-0.37143913068893675,0.51809200731141,-0.7615636684400581,-75.07415674182037,-43.37265821738578,-163.45251651253375,32
1767649879.769751,2,right_wrist,0.6285,-0.4978,0.143,-35.42,146.65,453.53,0.5655019585737597,0.5117585851741772,0.6459578341828351,-0.032390767320136966,123.71568359585714,49.79443624193276,75.33947267758063,32
1767649880.50392,1,left_wrist,0.306,-0.3431,-0.1405,-4.55,-89.95,252.91,0.1148827304468644,-0.3751585737200242,0.5616109575673478,-0.7284580531161126,-84.46154053120985,-24.6791076877103,-139.6132560698205,33
1767649880.50392,2,right_wrist,0.1776,-0.0215,-0.0307,16.31,-16.52,-250.11,0.5867366324990029,0.29549550425069815,0.7145329587307677,-0.24055182796813368,179.1244138553998,78.7101313394735,134.34679371056095,33
1767649880.554467,1,left_wrist,-0.0756,-0.2342,-0.1157,9.8,-44.52,180.11,0.18617415886288158,-0.3423521964519673,0.5870639544015152,-0.7095703415438586,-85.45845596216967,-15.500908407048936,-136.26543279533752,33
1767649880.554467,2,right_wrist,-0.1049,-0.449,-0.2206,71.82,-3.01,-108.57,0.5634503909929129,0.27719887365370494,0.7209507485349423,-0.293111684383201,-150.2882052183651,77.1460780696966,161.82663606915037,33
1767649880.614298,1,left_wrist,-0.3875,0.3621,-0.0854,-82.18,8.47,-30.31,0.20914337418483434,-0.33113346516063846,0.610982610783668,-0.6879752369128291,-88.00539612438055,-11.540310894072034,-135.033694248458,33
1767649880.614298,2,right_wrist,-0.3841,-0.4265,-0.1854,30.73,12.11,48.02,0.5593803228089842,0.29881885221781446,0.7158160676541576,-0.2922469936568776,-157.53740014431202,77.28700809586266,152.72624290670356,33
1767649880.6677299,1,left_wrist,-0.3538,0.4875,0.101,0.56,48.86,-151.83,0.15072878099931053,-0.35538472670879007,0.5918792829971632,-0.7075743388219675,-87.16635003347595,-18.93502738062959,-137.9126183194477,33
1767649880.6677299,2,right_wrist,-0.3177,-0.4343,0.04,-24.57,30.38,183.96,0.574207676735054,0.35084114780963277,0.7004902907955686,-0.23771702817276436,162.92986461419235,76.22917975307354,113.36209194293511,33
1767649880.751992,1,left_wrist,-0.0312,0.2006,0.1205,-42.21,136.22,-276.92,0.022628051933671015,-0.3839613738566267,0.5647148394935262,-0.730177228286133,-85.42764778693548,-32.35496024381292,-146.46304874335868,33
1767649880.751992,2,right_wrist,0.5729,0.0317,0.2699,-43.12,182.84,444.5,0.5406970902402909,0.5728518406937159,0.6152279952569815,0.03133590706489248,122.13398874538429,39.006039780121505,71.93065107195969,33
1767649880.8045938,1,left_wrist,0.5592,-0.2118,0.0917,18.41,224.21,-335.65,-0.13762237191101354,-0.3911486082931591,0.4944288997573429,-0.7639390761472112,-72.43196394753498,-47.198861946402936,-164.94202315394458,33
1767649880.8045938,2,right_wrist,1.6577,0.9648,-0.1957,-60.2,147.63,451.36,0.4981124615357384,0.664671184100941,0.5235980946373806,0.18958171847719252,116.64699912234195,15.640612337890978,66.77069185776534,33
1767649881.5161679,1,left_wrist,-0.2425,0.264,-0.0176,-3.71,-30.87,150.43,0.2310325564625894,-0.3858807133654769,0.5653852056050793,-0.6914185434234558,-86.25353293235396,-15.805069509364158,-128.23117081978484,34
1767649881.5161679,2,right_wrist,0.0878,-0.2098,-0.0161,44.87,-6.51,-238.28,0.5797818209560085,0.29687127342765235,0.7217344043707338,-0.23413657691612658,178.35244236848848,77.3992278200092,133.96233620174564,34
1767649881.606482,1,left_wrist,-0.3421,0.1259,-0.0395,-14.49,-6.65,29.96,0.24082996117330815,-0.3804845192706175,0.575230856018858,-0.6828923214390991,-87.1236324057319,-14.039706650760628,-127.79003909389276,34
1767649881.606482,2,right_wrist,-0.2338,-0.4499,-0.0556,35.35,8.05,114.94,0.5683581938394173,0.32679222790308754,0.7112906223854315,-0.25345897850397264,177.23105752390202,76.95486477112641,128.4476380773177,34
1767649881.6573272,1,left_wrist,-0.3958,0.5407,0.1484,-19.88,27.44,-83.3,0.20620901858014135,-0.39430766819864244,0.5697369579647706,-0.6909407371005225,-87.59827071353018,-18.054208345013542,-129.44055389857294,34
1767649881.6573272,2,right_wrist,-0.0059,-0.3514,-0.0024,-46.76,47.11,283.15,0.586270748507992,0.4036936148840264,0.683265766868272,-0.1626836395328632,135.9654765675103,68.82891143818529,87.87938962543438,34
1767649881.716948,1,left_wrist,0.346,0.4641,0.1986,18.41,208.88,-319.2,-0.03222433897644144,-0.4202719037032989,0.47134121133613127,-0.7747067712569222,-73.94175311968662,-42.96506442166771,-151.7594874231722,34
1767649881.716948,2,right_wrist,0.3967,-0.0747,-0.0859,33.39,88.55,404.11,0.5723764109556291,0.5313447467702975,0.62238698842293,-0.05188873580071825,121.97450594667866,50.14072363296337,69.9351187140107,34
1767649881.767942,1,left_wrist,1.3142,-0.7422,-0.3743,105.49,240.73,-353.78,-0.17969064932604378,-0.40891063883948303,0.36198216154952134,-0.8182128541575273,-47.82428960479673,-53.0577319667809,-179.8106392302093,34
1767649881.767942,2,right_wrist,1.1629,0.7271,-0.1025,-37.8,140.0,458.01,0.541007183570551,0.6369585989284446,0.5389286049117806,0.10559796107887202,116.0381797107796,26.654245236733566,63.641054222658234,34
1767649882.5031848,1,left_wrist,0.1879,-0.0376,-0.1225,-24.36,-59.71,216.93,0.2075255085344695,-0.4040185529099414,0.5179079300717704,-0.7248955429445273,-81.51201650073399,-21.76399419991639,-129.2339786752944,35
1767649882.5031848,2,right_wrist,-0.3226,-0.4724,-0.0693,-6.3,-19.74,-171.36,0.5840529559833354,0.30674221434873117,0.7054630234052156,-0.2590623113297981,-177.75026436536353,79.4158573348211,134.868618094912,35
1767649882.553441,1,left_wrist,-0.3314,0.0132,-0.0088,-11.13,-26.95,121.52,0.25173404049231257,-0.38357652900016814,0.5409226964734081,-0.7049125163433652,-82.81137512195842,-15.57136845764989,-126.94576645443625,35
1767649882.553441,2,right_wrist,-0.4309,-0.2562,-0.0839,26.25,4.69,-13.51,0.5759469109545909,0.30697399341720033,0.7066583488513851,-0.27328757953115107,-170.1091625986369,79.04590567638756,141.20603330010596,35
1767649882.605376,1,left_wrist,-0.4519,0.2103,-0.0717,-16.38,-5.46,34.23,0.262243418939872,-0.3775217081284788,0.5521885490636944,-0.6955526977860228,-83.78991762345261,-13.624449976145677,-126.4506349955492,35
1767649882.605376,2,right_wrist,-0.4416,-0.1698,-0.1132,-19.11,13.02,92.26,0.5828663960299341,0.3292957664832144,0.701137294476513,-0.24543340613996234,168.7743140384627,78.23134007359606,120.54705721200779,35
1767649882.6557922,1,left_wrist,-0.4651,0.4368,0.0468,-22.19,16.45,-75.74,0.23237054510868768,-0.39209332382851975,0.5483423075796531,-0.7011329894486609,-84.5249279361452,-17.15645362226444,-127.71649988356688,35
1767649882.6557922,2,right_wrist,-0.3001,-0.6647,-0.0449,-9.94,29.68,228.13,0.595781342991473,0.39586962763823297,0.6747359370101694,-0.1818330128547953,134.69942430023255,71.43345695651962,85.79695555310872,35
1767649882.707347,1,left_wrist,-0.2904,0.3992,0.2586,26.39,62.51,-195.02,0.16193387409182447,-0.4144917366268188,0.5105505387812574,-0.7357391983847706,-81.32729872342662,-26.395497056385537,-132.3951410032829,35
1767649882.707347,2,right_wrist,0.3177,-0.2582,-0.0966,-0.91,75.95,368.48,0.5938161541190565,0.5037023255118954,0.6233113447888454,-0.071758691729174,119.21127264831122,54.346291835763225,68.60146258709823,35
1767649882.76752,1,left_wrist,0.8618,-0.69,-0.2708,85.47,172.13,-338.73,-0.10156694296786004,-0.4381405749643555,0.36963025310594105,-0.8130747005379674,-56.19924647336449,-51.95867173656227,-165.07266116183348,35
1767649882.76752,2,right_wrist,0.9457,0.6681,-0.1532,-39.55,139.3,443.24,0.5661505331985592,0.6074385492156426,0.5506271836743242,0.08544991096931832,113.76824050199706,31.30975671197884,63.66490004538776,35
1767649883.5066502,1,left_wrist,-0.0771,0.2464,0.1142,67.48,-48.23,213.5,0.2500831586451595,-0.4315830764918398,0.5363618459498836,-0.6808160045541908,-86.84806767126169,-18.625869534596134,-122.01601105671557,36
1767649883.5066502,2,right_wrist,-0.1337,-0.5578,-0.0976,39.27,-0.56,-173.81,0.6060977130538905,0.3096949389539287,0.7047090448862418,-0.20029919888179104,153.29154386254513,78.04438729106107,110.7726164205467,36
1767649883.557287,1,left_wrist,-0.2645,0.2416,-0.0132,-73.71,6.93,118.65,0.2702505996789659,-0.4081466260093081,0.5810280509255805,-0.6502210001899341,-90.49033907097325,-12.516728797587957,-122.23819726391696,36
1767649883.557287,2,right_wrist,-0.1913,-0.6544,-0.1274,78.26,0.91,6.86,0.5940841079311436,0.3303417838718253,0.6980653631008119,-0.22504027944119054,157.89719760372807,77.98674945254584,111.37991717379131,36
1767649883.616433,1,left_wrist,-0.1244,0.9409,0.1005,4.9,60.34,-205.31,0.18473473751274558,-0.4314037380724298,0.5374268271399049,-0.7006684643992237,-86.85574887191592,-23.95250226770869,-127.75263504089389,36
1767649883.616433,2,right_wrist,-0.1801,-0.814,-0.0151,5.25,33.39,220.5,0.6012518980265736,0.3986348549113127,0.6722767090591972,-0.16622404767606483,130.91229479678842,70.21013831882844,83.0740406093513,36
1767649883.703975,1,left_wrist,0.3406,0.487,0.2616,-27.51,148.89,-358.19,0.032859909965721884,-0.4660352930605645,0.4816173780057522,-0.7414688349093729,-82.22403296271983,-41.257900832374986,-138.5501795379785,36
1767649883.703975,2,right_wrist,0.71,0.3338,0.1181,74.9,232.61,451.43,0.4986046024323778,0.6608987908507172,0.5545525472432841,0.08412913307110352,123.0022292158603,26.218990381280694,65.58691381505979,36
1767649884.4548328,1,left_wrist,0.0278,-0.2957,-0.1513,-0.77,-69.86,195.23,0.2706938275107277,-0.5138388427093398,0.48165042326900837,-0.6562829917310853,-89.49872712846917,-24.436707688543834,-110.94096440650492,37
1767649884.4548328,2,right_wrist,-0.2094,-0.3616,-0.183,-33.11,-1.12,-180.74,0.6371619830151201,0.3249756903992239,0.679148629379791,-0.16484097567455397,125.10289833821673,76.55510616969461,84.2810932273004,37
1767649884.5145721,1,left_wrist,-0.4641,0.4138,-0.0098,-66.43,8.61,6.65,0.30520325942744847,-0.4985888364448204,0.5190134121963693,-0.6236066232551924,-92.16226479856111,-17.760415870535716,-109.41210885467603,37
1767649884.5145721,2,right_wrist,-0.3904,-0.4192,-0.1962,88.9,-4.41,-35.07,0.6208019660305759,0.3363821629163348,0.6779745064850963,-0.204456665336668,136.03836614983004,78.32946412851734,90.82254776772398,37
1767649884.567549,1,left_wrist,-0.4582,0.3884,0.164,-4.34,53.34,-110.67,0.26241246557419173,-0.5082187591667178,0.5027351978718635,-0.6481594800379407,-91.37580913980122,-23.263831618186657,-112.10478578874792,37
1767649884.567549,2,right_wrist,-0.3148,-0.4124,-0.1171,-2.45,6.44,138.39,0.6290261764357816,0.3743584032144558,0.6602829031362872,-0.16795339570017662,121.42379476620482,73.02259685222639,75.7984059082502,37
1767649884.654206,1,left_wrist,-0.1005,0.5212,0.2562,22.33,121.45,-238.14,0.1717049288437353,-0.5197744805733043,0.4535064743228756,-0.7033376035040033,-86.61204680386275,-35.12871978367049,-119.33670262361316,37
1767649884.654206,2,right_wrist,0.5466,0.225,-0.0527,16.24,96.53,417.97,0.6062786447903986,0.5729324863065243,0.5500086081980397,0.040805660315661164,109.47356048091818,38.32775886843155,60.04950502916026,37
1767649884.716131,1,left_wrist,1.4108,-1.4586,-0.3689,-106.75,252.77,-355.81,-0.14565508237913577,-0.4769362545232121,0.32997494799314003,-0.8015191449961888,-49.9977646610654,-59.39213406002396,-170.81615075897443,37
1767649884.716131,2,right_wrist,1.1897,0.4085,-0.2381,-120.54,186.69,443.03,0.5692326322362161,0.6307830157845018,0.47404339529326434,0.23101916971124206,104.66291597402184,14.373152406522674,62.73112136215173,37
1767649885.418359,1,left_wrist,-0.1976,0.0093,-0.1972,39.97,-66.99,140.35,0.28074863223592095,-0.5350088044108148,0.5009400728631955,-0.6196812310376895,-94.61412286691122,-22.444811110166395,-106.97845942565837,38
1767649885.418359,2,right_wrist,-0.1127,-0.2211,-0.1259,10.71,10.71,-185.99,0.6477203114500047,0.33677183839134084,0.6681180372728595,-0.1437407919565195,116.09308146929858,74.22210055147109,75.97111759249985,38
1767649885.4684181,1,left_wrist,-0.4573,0.2991,-0.0849,75.46,-41.44,52.22,0.32225904989187676,-0.5245656942485616,0.48813520576695746,-0.6186307121952156,-91.63504443331446,-19.53684204522204,-104.87679178797573,38
1767649885.4684181,2,right_wrist,-0.3182,0.0107,-0.1552,53.06,7.07,-84.0,0.6289674044826717,0.32723475393110585,0.6811654396545465,-0.18256797018701906,131.1023879043036,77.51347599186835,88.57808327619524,38
1767649885.552942,1,left_wrist,-0.4782,0.324,0.1054,-10.78,8.61,-50.54,0.30517351336186826,-0.5335868343469935,0.4810744925357818,-0.6250772348961111,-91.9950889312065,-21.928149190134203,-105.2696396494252,38
1767649885.552942,2,right_wrist,-0.3362,-0.6305,-0.1088,67.62,6.37,190.19,0.6226996846368118,0.4095455901541267,0.6496544908147087,-0.14988847488317608,119.66093768924046,68.72531325426803,72.19226779517639,38
1767649885.615646,1,left_wrist,0.1074,0.2425,0.263,-30.24,170.59,-295.4,0.1289703792143507,-0.5406895524317628,0.3789919558100085,-0.7398557606775467,-79.63822021233284,-44.612396287466716,-122.45737293689206,38
1767649885.615646,2,right_wrist,-0.0073,-0.4568,0.0283,-34.09,35.98,352.03,0.6338458721316705,0.49561596508201766,0.5925113498488062,-0.03917302436381478,108.38654654955481,52.18096055606759,61.26450852878853,38
1767649885.703737,1,left_wrist,0.8623,-0.4104,-0.1601,73.78,216.72,-353.29,-0.005725684901413753,-0.5195585142163015,0.2786621711694014,-0.807696453624079,-55.54180788215672,-57.403169796050236,-148.64573151686406,38
1767649885.703737,2,right_wrist,1.8256,1.3786,-0.4665,35.77,148.47,481.25,0.5031684841914766,0.7154550287645489,0.41309131726699655,0.2535766983194389,111.44154567220035,3.0302745818417103,57.93702101738125,38
1767649886.452946,1,left_wrist,-0.0327,0.346,-0.1869,-80.78,-38.85,139.16,0.3362581408813397,-0.5241072164395053,0.47311154576640824,-0.6232235181935759,-89.82035093423337,-19.5784164455447,-103.78383407228668,39
1767649886.452946,2,right_wrist,-0.2411,-0.6471,-0.1269,47.18,12.11,-46.34,0.6135196031275,0.37573208358680793,0.6612717031118388,-0.21245901394235772,131.07118210269135,76.18256308521774,81.53380481900066,39
1767649886.507246,1,left_wrist,-0.344,0.1562,-0.063,-50.19,-8.4,24.43,0.33418232515290847,-0.5278030494075658,0.4923700264643409,-0.6060675470861104,-92.53305410188102,-18.100569562084647,-103.35123271603578,39
1767649886.507246,2,right_wrist,-0.2298,-0.4026,-0.122,15.4,5.11,105.84,0.617058656631681,0.4084948831820689,0.6451028071042523,-0.19029690737420563,122.70434818195187,72.10163401494003,71.94336337244154,39
1767649886.5690691,1,left_wrist,-0.1352,0.2098,0.2079,-1.47,99.12,-183.82,0.2292533301609139,-0.5493288408835074,0.4563781148844115,-0.6613620426349429,-91.34495049447897,-31.155203208293912,-109.90535440074387,39
1767649886.5690691,2,right_wrist,-0.12,-0.3767,-0.063,-10.92,37.52,256.83,0.6248192014159444,0.4765421040599856,0.6080728986515836,-0.1129421910779325,112.91691747310061,60.171099467167494,61.80907194535343,39
1767649886.619703,1,left_wrist,0.1742,0.5266,0.3875,110.95,161.0,-288.12,0.13796117792409252,-0.5426603766219841,0.36539498470732473,-0.743621499272995,-78.263131058117,-44.93039177772297,-121.7910903872984,39
1767649886.619703,2,right_wrist,0.2728,-0.3196,0.1313,-18.83,104.93,385.98,0.6107170628924826,0.5703870283652163,0.5489322460984756,0.01888640140312691,109.44906487479429,40.461689451547926,58.57984740595567,39
1767649887.418425,1,left_wrist,-0.0883,0.2762,0.0234,-32.48,-46.69,186.2,0.35371684994095803,-0.5672028561572215,0.46788275553254716,-0.5781444777131463,-94.92933543081483,-18.956752227286035,-96.45531395902773,40
1767649887.418425,2,right_wrist,0.1562,0.0142,0.0293,14.14,-9.31,-268.87,0.6174174498499795,0.429794313231827,0.6407287635070069,-0.1534248759136281,119.69168108960935,67.3800745251882,69.9511058795169,40
1767649887.508933,1,left_wrist,-0.3216,0.669,0.1205,-69.23,-0.49,67.27,0.3535654096016602,-0.5635524843955245,0.5016969634511173,-0.5529016687701084,-98.27136494823023,-15.569842996707758,-96.84439876951087,40
1767649887.508933,2,right_wrist,-0.3709,-0.427,-0.122,15.12,3.43,21.77,0.5981380510187174,0.4091315197057121,0.660240512543628,-0.19729353031194902,132.06891184009643,72.0392440289072,80.60915972688133,40
1767649887.565558,1,left_wrist,-0.2625,0.2533,0.0073,46.41,67.62,-163.03,0.28295800162509427,-0.5783710635666443,0.44740481899373147,-0.620685596809132,-94.49341585627116,-27.695961049736443,-101.12501567235418,40
1767649887.565558,2,right_wrist,-0.2089,-0.2162,-0.1415,28.28,6.16,170.31,0.6020140012834972,0.4632306231244478,0.6298162447699338,-0.16225914421772386,122.19793699035301,65.3185206619235,68.35750378530861,40
1767649887.6183958,1,left_wrist,-0.0034,0.1352,0.1767,-24.85,121.59,-263.13,0.17982819855948015,-0.5945411665786421,0.3983750082406384,-0.6748925640836702,-91.85675710476599,-41.24077112916524,-107.67990909388003,40
1767649887.6183958,2,right_wrist,0.142,-0.326,-0.0649,-17.92,63.98,312.13,0.6033949561164812,0.5434344017644593,0.5802354362248677,-0.06261322912157992,114.35594216834225,50.19920453585762,60.12883484035136,40
1767649887.702268,1,left_wrist,0.7198,-0.4836,-0.0966,23.66,170.87,-357.49,0.04687373000953449,-0.5979601890806467,0.3053424226916402,-0.7396029141467941,-79.02956242191276,-58.85721388717696,-122.84433307369792,40
1767649887.702268,2,right_wrist,1.1634,1.2566,-0.2416,74.9,155.4,471.87,0.49544533113155576,0.7359437732006731,0.4020771834044864,0.2263948434320322,114.04318956230773,3.7375773590272203,54.87358235835471,40
1767649888.420307,1,left_wrist,-0.162,0.1693,0.0137,25.34,-36.96,162.05,0.3695182894381345,-0.5582516911929325,0.4591740221879645,-0.5839267936982104,-92.71364216682194,-18.216582268535237,-96.26285954145419,41
1767649888.420307,2,right_wrist,0.0737,-0.0678,-0.1064,94.15,-10.99,-226.31,0.5963269513048964,0.4323166746548291,0.6493652959041137,-0.1892648209207441,128.8285059810114,69.7369917436719,75.79150818758693,41
1767649888.50937,1,left_wrist,-0.407,0.3597,-0.0073,-19.74,-13.79,46.48,0.3799897798622496,-0.5549647178637289,0.47398077806218536,-0.5682993499505663,-93.88858431900886,-15.697382957971703,-95.67777024968046,41
1767649888.50937,2,right_wrist,-0.4163,-0.6393,-0.163,9.52,6.37,79.8,0.582969094343951,0.43851999451625234,0.6497145526507567,-0.21381826283806174,134.43140703620344,70.91844017029833,78.65567026905727,41
1767649888.564112,1,left_wrist,-0.1586,0.3738,0.1332,-50.33,65.66,-215.11,0.27547014153517824,-0.5990906775852414,0.4252510797461359,-0.6199742577944595,-95.29748498637848,-30.56753677627361,-98.71164427408796,41
1767649888.564112,2,right_wrist,-0.1059,-0.429,-0.0517,17.85,25.34,247.66,0.5910081003573697,0.5114422439836792,0.6049237804100269,-0.15232687312274767,121.25035552064753,60.556692002812284,63.187833941988565,41
1767649888.615624,1,left_wrist,0.3875,-0.0171,0.0605,16.45,144.13,-311.92,0.16410995795866812,-0.6098180962761653,0.3498019347806292,-0.6919742896789202,-89.03539650935714,-46.81475803810849,-107.20079427753564,41
1767649888.615624,2,right_wrist,0.3504,0.1049,-0.0644,-4.27,70.63,365.12,0.5892891708393752,0.6048895712590396,0.5341799527848383,-0.03871250129202259,114.24770369988286,42.56346843686842,54.63347722709777,41
1767649888.702753,1,left_wrist,0.9199,-0.3484,-0.1669,-20.65,207.48,-351.68,0.017270330466523365,-0.5954775055058146,0.2709865336345001,-0.7560916443863851,-71.50565739714122,-63.01319826338328,-129.7579768429708,41
1767649888.702753,2,right_wrist,1.3493,0.4978,-0.0605,57.75,209.37,482.02,0.4688959740173999,0.7658914693403662,0.3386335796193529,0.2808453693691819,113.89754331283207,-6.46673257148848,51.91491570091583,41
1767649889.405499,1,left_wrist,0.1122,-0.0059,-0.0288,-16.87,-80.15,225.82,0.343567768519095,-0.642140997405519,0.3974792423716763,-0.5582350578112172,-99.03142053277021,-26.347171813070634,-86.11167698350756,42
1767649889.405499,2,right_wrist,-0.0264,-0.4856,-0.0942,60.62,-22.75,-189.14,0.5906210842097641,0.46575190369635455,0.6137442544188607,-0.23991642140116465,126.21323437540819,71.52529629516702,65.4789867673397,42
1767649889.459563,1,left_wrist,-0.1991,0.0556,0.0717,-57.75,-28.84,117.53,0.3616544582629565,-0.6354531206258146,0.4402508383808691,-0.5211377779535689,-102.00068773162356,-20.11343554957033,-85.77445239712418,42
1767649889.459563,2,right_wrist,-0.3484,-0.2357,-0.08,42.14,-2.73,-37.38,0.5770202030265248,0.4639653101321217,0.6179335068009053,-0.2644656073404775,132.95553399808784,73.44084053179859,70.2234634022657,42
1767649889.515421,1,left_wrist,-0.5002,0.0771,-0.1015,-22.54,23.94,-91.84,0.331961185149628,-0.6468738316868163,0.42241729198513783,-0.5412205177788566,-102.3264552239828,-24.818835916542078,-86.38122647006364,42
1767649889.515421,2,right_wrist,-0.4163,-0.5636,0.0059,-16.31,19.74,112.49,0.5864210412942232,0.4899816101877287,0.6025506928917074,-0.2301326715200673,124.75364560507364,68.78330071344905,62.35030292209797,42
1767649889.567632,1,left_wrist,-0.263,0.2513,0.1488,9.66,80.15,-191.03,0.2740004567436313,-0.6587003821529203,0.37628113275525593,-0.59114301601922,-100.60951038357732,-34.92962479431252,-88.74721619698127,42
1767649889.567632,2,right_wrist,-0.1298,-0.2704,-0.0874,12.53,48.16,246.54,0.5906933359974201,0.5584036351479416,0.559645733478811,-0.16144168006053272,117.56483980523922,57.294323323667214,53.49081434457828,42
1767649889.654917,1,left_wrist,0.3323,0.3479,0.1757,-41.86,172.48,-302.89,0.15180854719888948,-0.6612842322593483,0.31500280749126724,-0.6636494258530978,-96.73154985219838,-51.45155861889437,-97.31214605956009,42
1767649889.654917,2,right_wrist,1.056,0.2255,0.0542,-63.84,206.85,437.78,0.5258712178419235,0.7352971162528954,0.40069359075136535,0.14913839011604377,114.26226595076852,11.660045471030529,49.62615399059024,42
1767649890.354435,1,left_wrist,0.2816,-0.3597,-0.1132,67.34,-113.75,263.69,0.32776151420762123,-0.6871820398933597,0.3533354175443958,-0.5436058466950627,-103.09409798281912,-31.03040320987721,-79.2865980282539,43
1767649890.354435,2,right_wrist,0.2611,0.0712,-0.1259,46.34,-26.74,-284.62,0.607253394983738,0.4972230149217327,0.5918762270214194,-0.18356230440849158,116.77833268638605,64.34012550258694,57.60832802488422,43
1767649890.407434,1,left_wrist,-0.1591,0.1279,0.0288,80.57,-36.68,197.54,0.4034110670056623,-0.6506180616875977,0.38705386618349447,-0.5139503414685469,-99.00449264686678,-20.884614310063164,-79.38609231896577,43
1767649890.407434,2,right_wrist,-0.2542,-0.3274,-0.0898,95.76,-2.94,-143.85,0.5724267225329769,0.48199138045064444,0.6147236345566545,-0.24925250173046,131.93190359301173,70.74210559823032,68.66861563058033,43
1767649890.46825,1,left_wrist,-0.4455,0.4709,0.0181,-11.69,25.83,-37.94,0.4074769845035787,-0.6394330441023147,0.418325894581961,-0.5000913267915369,-100.12304982926243,-17.375545888206048,-80.96789301667592,43
1767649890.46825,2,right_wrist,-0.4485,-0.509,-0.0986,21.91,4.69,5.81,0.5657186400584477,0.48757444399241395,0.6139322956569453,-0.25557918186992834,133.9501999918126,70.70913610017773,69.5301848407149,43
1767649890.56061,1,left_wrist,-0.2596,0.652,0.0361,19.11,58.1,-163.94,0.36512573604520704,-0.6515319253033354,0.37762361893014335,-0.5473479237323156,-98.58193844265499,-25.942510254906495,-82.6125932780237,43
1767649890.56061,2,right_wrist,-0.0024,-0.2464,-0.0078,-19.46,75.81,300.44,0.5781288558750051,0.6062654154182886,0.534607270480596,-0.11137476564120864,117.79353674952002,48.86738934223565,52.15493160664835,43
1767649890.618061,1,left_wrist,0.6856,-0.4592,-0.1523,40.25,196.42,-338.17,0.15618328504233042,-0.6471373300490578,0.22529653393724614,-0.7113800175196281,-83.35321569218499,-58.24932491213891,-102.47149678721544,43
1767649890.618061,2,right_wrist,0.591,0.0117,-0.0434,-33.88,139.02,418.53,0.5639450313580989,0.6904018761610148,0.4513306183190767,0.04014877292749781,113.87515291356833,26.975775439412686,48.59850628584353,43
1767649891.355909,1,left_wrist,0.242,-0.3753,-0.1098,61.11,-95.48,273.77,0.3962470423636009,-0.6702561965909717,0.3054683148471095,-0.5481186194374086,-95.61261884008063,-29.5167492463697,-75.86513493827012,44
1767649891.355909,2,right_wrist,0.0122,0.1181,-0.0508,31.85,-13.51,-265.65,0.5758295306978607,0.5187840219600263,0.5940250315959879,-0.21544779407700188,125.54622524769324,65.18341935400541,61.319276569914535,44
1767649891.406674,1,left_wrist,-0.0844,0.2255,-0.0498,11.41,-58.73,194.53,0.4518567435435052,-0.6543424883339257,0.3482776928309798,-0.49635072272693903,-96.02615131338077,-19.561804563512794,-73.68667365110275,44
1767649891.406674,2,right_wrist,-0.2669,-0.5617,-0.0273,54.95,-1.4,-146.37,0.5475062439441983,0.4916419208263674,0.6215338709541716,-0.2687392449661923,141.41297518602278,70.87994289414283,75.33044202367768,44
1767649891.46443,1,left_wrist,-0.528,0.4924,0.1376,50.68,-3.15,-16.8,0.46702111754065434,-0.6573280796328369,0.36727218193718075,-0.46359704040512106,-97.987710055977,-15.451523354260607,-71.84180088405348,44
1767649891.46443,2,right_wrist,-0.3689,-0.4543,-0.2586,16.94,11.55,37.59,0.5424502879262741,0.5056806669913602,0.6165391775181263,-0.26441291712990833,140.6729140010967,69.43930987700998,73.46860478814297,44
1767649891.518429,1,left_wrist,-0.4329,0.3431,0.1147,-74.41,82.18,-135.31,0.4044901140363553,-0.6751851320255845,0.35987904014674754,-0.5009988638724703,-100.6653664889054,-22.668509183253462,-74.99041248076179,44
1767649891.518429,2,right_wrist,-0.3255,-0.3499,-0.0644,-29.96,10.64,160.02,0.5620530623158947,0.5398560742366932,0.5873273425350397,-0.2183995580622798,127.90875192153692,63.640640456725535,61.08242773151584,44
1767649891.609358,1,left_wrist,0.0712,0.3377,0.2064,24.71,155.4,-245.0,0.3305251623224209,-0.6696575158013176,0.3061712956418815,-0.5903990737861275,-95.98864573486274,-36.03899456546841,-81.79685044683843,44
1767649891.609358,2,right_wrist,0.5705,0.1078,0.1513,-51.73,126.98,424.9,0.5689714036163973,0.6952772754810759,0.4379472888337881,0.032607119920857824,113.1452390717107,26.93741618003778,46.446062682897924,44
1767649891.66606,1,left_wrist,0.9809,-1.1736,-0.6422,-55.65,203.28,-305.2,0.07009385824985873,-0.5887228317059995,0.19821920386462305,-0.7805135653420722,-59.78858278065928,-63.027511854479414,-130.90310933987737,44
1767649891.66606,2,right_wrist,0.9853,0.3582,-0.2191,-105.28,126.63,409.5,0.5594251488831363,0.7331003762710194,0.3356305559188975,0.1922484617414196,107.54729481640295,5.3733655942472405,45.26099413844483,44
1767649892.405452,1,left_wrist,0.1362,-0.1279,-0.0683,-45.43,-82.46,237.37,0.4450438053571826,-0.6758514572708331,0.3208331374021966,-0.49216553817059633,-97.41672005736199,-22.31460522172379,-70.44287415087416,45
1767649892.405452,2,right_wrist,0.0522,-0.1635,-0.1161,26.67,3.36,-248.01,0.5718581288818676,0.4926979122588442,0.6094879382651427,-0.24238708875847978,130.44106061150754,69.37867022273252,66.65771303718951,45
1767649892.46976,1,left_wrist,-0.4841,0.4046,0.0298,-49.0,10.15,20.51,0.4790645998341002,-0.6628176727273934,0.36540000345085005,-0.44458146540780813,-98.6296274100812,-13.842426023830791,-69.649621175871,45
1767649892.46976,2,right_wrist,-0.3357,-0.9257,-0.1171,64.47,-0.98,-68.04,0.5491325502495288,0.4885524788375974,0.6180106803895744,-0.2789851548066727,141.52380429603076,72.05214138138344,74.8643028664847,45
1767649892.559648,1,left_wrist,-0.4626,0.3118,0.0917,6.02,32.48,-92.89,0.45796639549396867,-0.6689647317849394,0.3445949486586581,-0.473294083615148,-98.03368254434568,-18.518345682532562,-70.63000577313012,45
1767649892.559648,2,right_wrist,-0.1991,-0.3572,-0.0254,-21.07,46.76,260.05,0.570784045226076,0.5856488621308434,0.5473699143472641,-0.17778402871932533,121.03822186128147,56.418311113159504,52.390679096388624,45
1767649892.616491,1,left_wrist,0.428,0.1147,0.1645,47.67,164.78,-304.22,0.3277495520795953,-0.6524197903716399,0.21220738035126666,-0.6495357387915642,-85.23459511314903,-45.10798411136104,-84.62253736513712,45
1767649892.616491,2,right_wrist,0.3475,-0.0561,-0.0669,-39.48,98.0,389.06,0.5780240102643247,0.6671495427712114,0.4678128935416486,-0.044168176035484896,114.18892159712077,36.851832019547714,45.74638250782792,45
1767649892.667202,1,left_wrist,1.0058,-0.8779,-0.1093,47.46,178.71,-333.41,0.2254057571479258,-0.6202410275575152,0.1276063607270152,-0.7404119995522593,-67.08943676220224,-59.42244609445177,-104.68822791005296,45
1767649892.667202,2,right_wrist,0.7554,0.2869,0.1,-51.24,109.9,440.09,0.5676529518506368,0.7324403146755947,0.3595578378912807,0.10963335671282624,110.00828212098031,14.336031995232156,42.229811731165974,45
1767649893.453943,1,left_wrist,-0.04,-0.1391,-0.0947,-8.26,-29.26,149.73,0.47557522450511314,-0.6662386084004629,0.3316792833989269,-0.46898099692578216,-96.5074344838887,-18.024858559325622,-69.04444433153314,46
1767649893.453943,2,right_wrist,-0.2728,-0.467,-0.1181,24.36,-17.29,-111.37,0.5454744437147796,0.4514142173704338,0.6168434654786163,-0.3437833252300373,157.92588668570502,79.52113214310441,89.1700730051873,46
1767649893.506103,1,left_wrist,-0.3318,-0.0068,-0.1176,40.95,-9.24,64.12,0.5027105210758405,-0.649691281190103,0.34214713866616303,-0.4562002922486755,-94.63853562741119,-14.405139662125094,-68.8394694486495,46
1767649893.506103,2,right_wrist,-0.3753,-0.2801,-0.1113,29.05,-0.98,43.61,0.544003543111487,0.46766445457445016,0.6057515263202325,-0.3441150844854655,151.77898028601697,78.79044197549173,81.33130767656613,46
1767649893.563783,1,left_wrist,-0.3567,0.3909,-0.0454,43.75,36.05,-139.37,0.4615096186813124,-0.6641002071673859,0.3025773393960102,-0.5044073159549695,-94.05935513825072,-22.99615167250584,-70.44975482329694,46
1767649893.563783,2,right_wrist,-0.307,-0.4343,-0.06,-15.12,29.61,193.69,0.5647152630339788,0.5160300027936954,0.5752453648352651,-0.2896592448874114,127.91481048433451,71.55818528884221,57.41181201103085,46
1767649893.6266491,1,left_wrist,0.0454,0.266,0.183,17.64,92.96,-268.66,0.39182876920360526,-0.6699241522293606,0.2365236626003276,-0.5845754039593926,-90.67789245592223,-36.718844150064236,-75.20766351133985,46
1767649893.6266491,2,right_wrist,0.0952,-0.4221,-0.0542,83.16,54.46,360.29,0.5692205480724051,0.6252913206740572,0.4916749919173016,-0.20797700417345524,117.62079237327718,55.06832485455003,41.32587343143244,46
1767649893.705795,1,left_wrist,0.6198,-0.3128,-0.0049,34.58,159.53,-332.64,0.29362306864143384,-0.6498447745816207,0.15232733422026762,-0.6843125351474261,-79.53491133231667,-53.124393368333145,-88.37418468609076,46
1767649893.705795,2,right_wrist,1.2527,1.0677,-0.3128,-28.63,154.0,413.63,0.552981742936546,0.7594195254336163,0.32005951822408385,0.1226991489913778,111.31247682165233,9.649113960812073,39.10495884274837,46
1767649894.470124,1,left_wrist,-0.1557,-0.0859,-0.0059,-104.3,-30.87,134.68,0.49329200302051374,-0.715308250199426,0.34416543771355906,-0.3557348147652676,-105.31029581414458,-9.7513066348039,-58.836481957530864,47
1767649894.470124,2,right_wrist,-0.2084,-0.5309,-0.163,49.84,-23.24,-134.47,0.5374324838414785,0.5001684154559786,0.6016766752085081,-0.3146157338758984,144.67292119987826,74.03770667002587,73.5220134008518,47
1767649894.553129,1,left_wrist,-0.4831,0.6534,0.0171,39.62,12.18,-4.13,0.5033151210355108,-0.7053507108541988,0.3399533468961419,-0.3654941662579541,-103.27673535832005,-9.98531825352515,-59.375603521583805,47
1767649894.553129,2,right_wrist,-0.449,-0.4285,-0.0386,-2.59,14.84,111.37,0.5446491805676779,0.5262976762367473,0.5844932516472023,-0.2910939107464073,135.5157193814633,70.57741261696316,63.71380290716585,47
1767649894.603961,1,left_wrist,-0.4299,0.5602,0.164,-20.79,55.72,-127.82,0.4676919768607251,-0.71844943428195,0.31597575808242,-0.4065143853104006,-104.0240331268874,-16.771849112658785,-60.614467335677475,47
1767649894.603961,2,right_wrist,-0.1947,-0.2713,-0.0893,20.3,29.89,243.81,0.5582842431001864,0.5924917373668697,0.5321071132504519,-0.23266771388895138,122.95588118523474,60.44021787184764,48.72226507735632,47
1767649894.657443,1,left_wrist,-0.1122,0.1703,0.225,62.79,108.5,-228.69,0.42964316638348093,-0.7126130208109555,0.2532743538017987,-0.49339794674982446,-99.47647894177572,-29.049719923705286,-63.88343909940378,47
1767649894.657443,2,right_wrist,0.3338,-0.1171,-0.1737,6.86,96.32,383.6,0.5633328682882003,0.6841676916836926,0.4492555141360508,-0.11287219401052445,116.91498150760768,41.346244446082345,40.500208419920796,47
1767649894.707873,1,left_wrist,0.429,0.041,0.1635,80.5,174.93,-306.04,0.363558961939994,-0.6845325945234979,0.1690281018388519,-0.6088263373218977,-89.53669015869572,-45.28534861438973,-73.35611486596501,47
1767649894.707873,2,right_wrist,1.0121,0.182,-0.0956,106.89,167.23,421.4,0.5082577126219197,0.786259759293391,0.35071605550052587,0.021631848982119287,120.63993995214501,18.813684027850307,37.29126032452881,47
1767649895.418027,1,left_wrist,0.1591,-0.4402,-0.1049,35.98,-65.45,252.14,0.5191004678558232,-0.6950794119260297,0.2784747608716257,-0.4121299830707793,-97.27153754087774,-16.48793137326599,-58.20602930391598,48
1767649895.418027,2,right_wrist,0.1669,0.2645,-0.1103,51.52,-27.02,-273.14,0.5442870620607941,0.5831295574639948,0.5440927695586261,-0.2601433670096138,127.73393415095926,63.59589259240882,52.197133248505494,48
1767649895.4694972,1,left_wrist,-0.222,0.326,0.0483,-139.79,-20.51,171.22,0.5078404703285968,-0.7061493515538441,0.3500007834791137,-0.3477795301056714,-104.15561839849913,-7.797911265541462,-58.809397455349455,48
1767649895.4694972,2,right_wrist,-0.0981,-0.5178,-0.0888,47.25,-37.1,-181.16,0.5169481517761914,0.5439846004858202,0.5756095922841215,-0.32483682069613007,143.47794631870124,71.53785434751761,66.4932527893672,48
1767649895.553607,1,left_wrist,-0.3645,0.6207,-0.0371,6.58,17.64,18.06,0.5098692512195007,-0.6992855097081591,0.3591647902133537,-0.3493333308518721,-103.75581875723752,-7.025628994033031,-59.88741499026008,48
1767649895.553607,2,right_wrist,-0.5104,-0.2211,-0.1283,5.04,9.66,66.71,0.5124756656068338,0.5464365481022398,0.5740485015693202,-0.33052096590830593,144.82436780790567,71.72990746344836,67.00884532347929,48
1767649895.6182761,1,left_wrist,-0.4011,0.2176,0.0478,32.06,46.9,-157.36,0.4751555048360457,-0.7105732157824105,0.2959179601648907,-0.42631621138363557,-101.27717363012782,-18.943988066946048,-60.80425556154519,48
1767649895.6182761,2,right_wrist,-0.3235,-0.324,-0.0722,5.53,30.38,192.01,0.5277166419089749,0.5964906362075293,0.5341965618662231,-0.2834574043121084,130.832518889357,64.41799744251148,51.53923599152242,48
1767649895.704745,1,left_wrist,0.0503,0.1962,0.2259,46.97,125.86,-253.12,0.4230834038853921,-0.7039633516375003,0.23195804820500748,-0.5211827863436883,-96.72425711900732,-32.51442732982318,-65.54215720548967,48
1767649895.704745,2,right_wrist,0.6603,-0.0337,0.1142,-42.98,167.65,422.8,0.5426678622380446,0.7511679357319093,0.37525238404907707,-0.021070640420660817,117.1586419685265,26.035630653893417,37.01140304378455,48
1767649895.756768,1,left_wrist,0.6598,0.0024,0.1693,36.68,205.17,-336.28,0.33033410987041456,-0.6739890386214156,0.15316672941220827,-0.6427737585460909,-86.03095003534821,-49.92946474315049,-78.64306171258407,48
1767649895.756768,2,right_wrist,1.4825,1.2127,-0.4924,-1.33,201.46,468.58,0.5012048690240584,0.8102516218158334,0.26077251141840163,0.1558322363951939,116.68195850854373,0.5084643366074002,35.36711575156815,48
1767649896.4679072,1,left_wrist,-0.2582,0.0849,0.1425,-55.93,13.72,151.48,0.5271243441850081,-0.7126363288473105,0.2779940293447308,-0.3701468738531153,-100.08712861979652,-13.561289508826883,-53.99827839835692,49
1767649896.4679072,2,right_wrist,-0.0732,-0.2269,-0.1484,4.34,-1.19,-214.41,0.5791125575468368,0.5201097030960179,0.5710291963840545,-0.2608451634857639,122.39100656144228,68.86231571016042,54.03740977319669,49
1767649896.553495,1,left_wrist,-0.2899,0.0278,-0.2089,51.17,16.8,64.68,0.5509195424653419,-0.6905262378339658,0.29599064614574616,-0.36338782311309126,-97.52223457510958,-10.12076931707955,-55.28184835241638,49
1767649896.553495,2,right_wrist,-0.4114,-0.3157,-0.2255,8.54,9.73,58.94,0.5659035232224283,0.5214685361092436,0.5751450769776131,-0.2775462280070487,127.17122391019326,70.12162039539048,57.16826345509806,49
1767649896.603946,1,left_wrist,-0.4182,0.2284,-0.0698,-52.43,16.45,-38.64,0.52705327533612,-0.7051067365769751,0.2979858143747436,-0.3691121637424824,-100.12094340998463,-11.912528660236742,-55.80403180203595,49
1767649896.603946,2,right_wrist,-0.1625,-0.0761,-0.1645,4.62,-0.56,183.12,0.5817748848262215,0.5668139978607561,0.5343332483666787,-0.23398259530242166,117.5467986243984,62.4952498611335,46.22866448017146,49
1767649896.669237,1,left_wrist,0.1859,0.2738,0.2001,-21.14,130.97,-274.75,0.4244296997581168,-0.7132120333170551,0.20027446248946798,-0.5206516735491602,-96.83492817241581,-34.936289377025375,-62.571886669669,49
1767649896.669237,2,right_wrist,0.0756,-0.1562,-0.1069,46.13,60.41,316.68,0.5807303346155892,0.6526228891517071,0.4635236045429593,-0.1482616303837461,114.40363258744125,47.04442713453079,39.43124506793694,49
1767649896.75574,1,left_wrist,0.7901,-0.3723,-0.0893,57.75,203.35,-331.59,0.34110600661167434,-0.6758657889465963,0.11662933796450224,-0.642845024178451,-84.46559975393936,-52.12835432663343,-76.21332592206628,49
1767649896.75574,2,right_wrist,1.0931,0.6661,-0.1108,128.45,156.8,435.05,0.4958329362684594,0.8137648638391045,0.2674787770261554,0.1427989829547591,117.88954898512443,1.8819309070917738,35.25734645437123,49
1767649897.519851,1,left_wrist,-0.1327,0.3148,-0.0376,58.94,-53.97,178.71,0.5559122885857105,-0.7123231697408419,0.2874666194167772,-0.3176793540204451,-100.46856954495583,-7.641151514728143,-50.31579207293528,50
1767649897.519851,2,right_wrist,-0.0434,-0.1523,-0.0473,49.63,-7.63,-210.63,0.5703925801498164,0.5281732363358549,0.5616996974528978,-0.28315858950395223,123.59592820458107,70.03347018755353,52.34017869732289,50
1767649897.608181,1,left_wrist,-0.4451,0.4397,0.0371,-1.47,-2.73,75.25,0.5663589654542909,-0.7029332865011926,0.3112270333366064,-0.297085931505806,-100.50621049372056,-3.734359851801826,-50.869018511266816,50
1767649897.608181,2,right_wrist,-0.4187,-0.4202,-0.1464,-28.0,-0.35,45.15,0.5590653121085055,0.5202738223926253,0.5717569651086454,-0.2997584016833182,129.2422865856775,72.02882714006314,57.3457045042095,50
1767649897.667039,1,left_wrist,-0.0586,-0.0683,0.1562,71.82,97.37,-184.24,0.5203091305196827,-0.704109092976814,0.2560808734360205,-0.40979431443770087,-97.41631992199471,-18.09523463335919,-55.894777421367934,50
1767649897.667039,2,right_wrist,-0.3616,-0.3196,-0.1469,-4.97,11.69,191.31,0.5781543466520783,0.5649369088874083,0.5325089078005674,-0.25103406847895304,118.03006754074904,64.0768869834944,45.42285002378531,50
1767649897.71759,1,left_wrist,0.1484,0.6246,-0.0669,98.91,149.38,-281.75,0.4773502459392454,-0.6796434119278343,0.1827140615153668,-0.526153159307623,-89.3596636445271,-32.735107826651806,-63.178030916828114,50
1767649897.71759,2,right_wrist,0.1371,-0.0966,-0.1279,-3.29,39.69,314.37,0.596560277283466,0.6366831805731159,0.46206870487955576,-0.15888006518662143,111.20418603458775,48.90460283630934,37.35421536622492,50
1767649897.808523,1,left_wrist,0.4543,-0.3621,0.0961,-120.33,162.96,-384.44,0.33277269075263294,-0.6847222147208274,0.12484900178684728,-0.636262957989765,-87.09974136208957,-52.02078907166512,-75.01027055685341,50
1767649897.808523,2,right_wrist,1.3923,0.8506,-0.3904,-48.93,165.97,481.04,0.5675689595769725,0.7691285069727415,0.24420873065118487,0.16330619020824508,107.60754556691506,1.490070099256346,34.14025387005725,50
1767649843.505169,1,left_wrist,-0.1962,-0.893,-0.3284,5.95,0.14,0.98,-0.3558806702494088,0.5365573007920756,0.5597948475590697,-0.5216176187168827,-101.84212847556297,9.283240583228489,99.97267849436457,0
1767649843.505169,2,right_wrist,-0.3294,0.8979,-0.2747,3.29,-3.92,-1.26,0.41927881137863554,0.32955124937401536,0.729212338019611,0.4287780526623496,107.29216365811476,19.200681452282826,117.16806750800684,0
1767649843.565492,1,left_wrist,-0.1869,-0.9116,-0.3109,5.39,1.47,0.07,-0.355584159887081,0.5394401931472936,0.557988668560136,-0.5207809798879911,-101.97823198222588,9.499356046757375,99.63808894731523,0
1767649843.565492,2,right_wrist,-0.3284,0.9096,-0.2655,1.96,-4.34,-0.63,0.42210473047737884,0.3300114319777246,0.726752276031375,0.42982691930106814,106.8821636914043,19.25879453018057,116.81321841150336,0
1767649843.653512,1,left_wrist,-0.184,-0.8867,-0.3109,8.96,2.73,0.91,-0.3559267702965324,0.5409274478594356,0.5565444481860511,-0.5205496206240485,-101.98192928111632,9.612335304931936,99.42323060507498,0
1767649843.653512,2,right_wrist,-0.3304,0.9096,-0.2586,-0.14,-4.48,-0.98,0.4283994568178775,0.33013450011956996,0.7211477703324763,0.4329330324350952,105.87904833014898,19.39181387392283,116.09924022526958,0
1767649843.7059278,1,left_wrist,-0.1893,-0.893,-0.3123,9.59,2.24,-1.4,-0.3567856932770073,0.5416753564045927,0.5555370197097275,-0.5202599322154613,-101.94549662802888,9.625563368601275,99.25612341483833,0
1767649843.7059278,2,right_wrist,-0.3314,0.9155,-0.263,0.14,-2.66,-2.03,0.426233558782768,0.33252789526849974,0.7216304621843063,0.43243453641371293,106.14018476006889,19.12154145111146,116.08881910775864,0
1767649843.764299,1,left_wrist,-0.1976,-0.8955,-0.3362,8.75,3.99,1.19,-0.35752102731410407,0.5449576854543855,0.5523640915927451,-0.5197054419682249,-101.96061930102327,9.873380069323025,98.7811505027249,0
1767649843.764299,2,right_wrist,-0.3382,0.9062,-0.2757,2.03,-1.68,-0.98,0.4264521058636445,0.3322144600788591,0.7241939226864094,0.42815337936660763,106.61791928794129,19.462544292865985,116.15032085631384,0
1767649843.817151,1,left_wrist,-0.1976,-0.9062,-0.3318,8.26,4.27,0.7,-0.3581218651181123,0.5468562636744145,0.5508781574330252,-0.5188739849593337,-102.01534028212973,9.958565537973877,98.4889150113733,0
1767649843.817151,2,right_wrist,-0.3538,0.9062,-0.2762,-0.21,-1.19,-0.42,0.4291075182519923,0.3298564644275714,0.7257321043319418,0.4247050310473023,106.76497186633736,20.03845793691644,116.15545736793447,0
1767649843.904212,1,left_wrist,-0.1947,-0.8857,-0.3343,7.0,3.22,0.91,-0.35815112294359747,0.5487472315725529,0.5498158984454476,-0.5179833267512811,-102.12649773367168,10.058260093048824,98.24537028158845,0
1767649843.904212,2,right_wrist,-0.3338,0.8984,-0.2713,2.31,-1.26,-2.87,0.42942803428098514,0.3306417640497997,0.7256434734102327,0.42392114447941653,106.81628417406984,20.053121689305154,116.05024377393285,0
1767649843.9565172,1,left_wrist,-0.1903,-0.8808,-0.3328,5.18,2.66,0.56,-0.3577627106676681,0.5506635395399399,0.5493877803746032,-0.5166706647876711,-102.32422053547752,10.132344684074685,98.03223714580163,0
1767649843.9565172,2,right_wrist,-0.326,0.9052,-0.2664,1.19,-1.82,-2.03,0.42834518458042553,0.3327811119060076,0.7239279724270083,0.4262691932841065,106.63804875037773,19.662162591703257,115.91495567971047,0
1767649844.018042,1,left_wrist,-0.1835,-0.8755,-0.3357,7.42,0.49,0.14,-0.3576414514243655,0.552846141729692,0.5480005767625065,-0.5158964078820737,-102.43567162346021,10.279328625253338,97.76298589880389,0
1767649844.018042,2,right_wrist,-0.326,0.9052,-0.2664,1.19,-1.82,-2.03,0.42718617491985034,0.3349614764632784,0.7222337961616273,0.42859202620306946,106.47024870392987,19.26470586716264,115.78419260298371,0
1767649844.07125,1,left_wrist,-0.2015,-0.8862,-0.324,8.68,2.17,0.21,-0.3579074408430486,0.5541210926287019,0.5467964868944388,-0.5156216446320434,-102.45047826590356,10.371425424543553,97.57700368907506,0
1767649844.07125,2,right_wrist,-0.3475,0.8979,-0.2806,2.66,-0.07,-1.19,0.427726652540071,0.3336976594177003,0.725165660959708,0.4240643193796004,106.94932260077425,19.714092922756958,115.91297618220294,0
1767649844.153941,1,left_wrist,-0.2011,-0.874,-0.3338,6.65,2.52,-0.91,-0.3580582380749127,0.5555031283713133,0.5463047349970771,-0.5145500063513231,-102.57033360693144,10.395998611555799,97.38471855748378,0
1767649844.153941,2,right_wrist,-0.3426,0.8916,-0.2782,0.42,-2.8,-2.17,0.4313672544378093,0.33086011286625605,0.7277058494947444,0.4182081708001973,107.27454742002823,20.55339574848409,115.89390554502747,0
1767649844.205871,1,left_wrist,-0.2015,-0.8891,-0.3343,10.36,1.4,-1.47,-0.358993391073443,0.555901447464925,0.5453109348466488,-0.5145224098216375,-102.49386226085504,10.400134920204398,97.25405183942067,0
1767649844.205871,2,right_wrist,-0.3367,0.9252,-0.2684,2.8,0.14,-0.98,0.43039218374330057,0.3324904739664475,0.7261543097385478,0.4206097613493691,107.08418531582195,20.204066123670927,115.79827908242959,0
1767649844.2639308,1,left_wrist,-0.1937,-0.8935,-0.3357,9.38,1.12,0.7,-0.3594433136288092,0.5578546200570241,0.5426901509038302,-0.5148651544633338,-102.42221169503414,10.62073855793438,96.96569523574348,0
1767649844.2639308,2,right_wrist,-0.3372,0.9096,-0.284,3.99,-0.14,-0.49,0.42647885344466985,0.33590052840554674,0.7269214598611796,0.4205613079857511,107.46336235911312,19.72461714485698,115.85944471756139,0
1767649844.316971,1,left_wrist,-0.1996,-0.8833,-0.3196,10.78,2.1,1.68,-0.3599829639698119,0.5590674005571205,0.5407377816708291,-0.5152267061784785,-102.337369549214,10.764935691810651,96.7642638129127,0
1767649844.316971,2,right_wrist,-0.3255,0.8921,-0.2845,3.43,-1.75,-1.19,0.42325967072168785,0.3392234172886502,0.7274938397443536,0.4201564440034161,107.8097540132756,19.316355653238542,115.85578259943706,0
1767649844.367743,1,left_wrist,-0.1913,-0.8935,-0.3167,9.03,2.17,0.98,-0.3604896759025414,0.5602645712807199,0.53950225968471,-0.5148670853049392,-102.34086690129847,10.833381736861117,96.5655226241009,0
1767649844.367743,2,right_wrist,-0.3455,0.8935,-0.2743,1.75,-1.75,0.42,0.4268431763133878,0.33759966521820023,0.7267018593039085,0.4192085120360745,107.56749678287068,19.71405234634205,115.66092149553047,0
1767649844.457005,1,left_wrist,-0.1884,-0.8799,-0.3357,7.42,2.1,1.05,-0.36063132331170905,0.5616805393339518,0.5386835961021186,-0.5140817091382032,-102.42769459987171,10.89250722384777,96.36826056063005,0
1767649844.457005,2,right_wrist,-0.3338,0.8867,-0.2738,-0.07,-3.36,-0.56,0.4307221111158145,0.3380942963899517,0.7238642393824252,0.4197514415553835,107.10149715158366,19.860883798301668,115.19241638823222,0
1767649844.513958,1,left_wrist,-0.202,-0.8989,-0.3274,10.71,1.82,-0.77,-0.36245914183491845,0.5627126945481321,0.5363918333433016,-0.5140638044224534,-102.27380278967127,10.93528931400961,96.07776094437514,0
1767649844.513958,2,right_wrist,-0.3338,0.9077,-0.2801,1.68,-2.66,0.42,0.42799900499132454,0.34189511512175974,0.7228903270940271,0.4211343692649715,107.19161350513198,19.3188642012306,115.0688631104368,0
1767649844.602519,1,left_wrist,-0.2103,-0.8926,-0.3206,7.7,2.24,0.21,-0.3625615876858725,0.5641325402086345,0.5353945446814755,-0.5134746865598814,-102.34072875129893,11.017485919260055,95.88293461037536,0
1767649844.602519,2,right_wrist,-0.3426,0.8994,-0.2835,1.19,-4.06,-0.7,0.43196492671075143,0.34053978193447537,0.7260446647940928,0.41267190810113163,107.76304821442146,20.254409384553757,114.89171734590745,0
1767649844.6526709,1,left_wrist,-0.2142,-0.894,-0.3245,10.64,3.29,1.12,-0.3634009228216094,0.5655519110072238,0.5333259432958718,-0.5134727290285713,-102.27328365425812,11.137763165382662,95.62562011089967,0
1767649844.6526709,2,right_wrist,-0.3523,0.9067,-0.2811,1.19,-3.71,-1.68,0.43555513921942124,0.33978931041414645,0.7239445393129972,0.41320606145931776,107.33332501128433,20.476888389358724,114.57931589414895,0
1767649844.708169,1,left_wrist,-0.2162,-0.894,-0.3314,9.31,3.01,1.4,-0.3638169790676828,0.5671674993784385,0.5315546729942442,-0.5132327571471411,-102.27218381976756,11.268129293438893,95.37783209012976,0
1767649844.708169,2,right_wrist,-0.3587,0.9116,-0.285,-0.21,-3.5,-3.43,0.4396329434411665,0.33678069977526937,0.7253370426698073,0.40888605971731806,107.42267879875637,21.24484924220591,114.50624200594336,0
1767649844.7609441,1,left_wrist,-0.2123,-0.9077,-0.3289,9.24,1.47,1.96,-0.36386273917334727,0.5684987546422308,0.5300002486562746,-0.5133349875430162,-102.26218759658707,11.418036585235411,95.1992536407906,0
1767649844.7609441,2,right_wrist,-0.386,0.9194,-0.2904,3.08,-2.87,-7.14,0.44389288261241183,0.3329700443098959,0.7277748280903762,0.40303083995686123,107.67008921306646,22.192138126236937,114.51403278050088,0
1767649844.816222,1,left_wrist,-0.2479,-0.8994,-0.3357,3.15,-1.75,12.39,-0.35758904102491906,0.5746774940004006,0.5246577272052366,-0.5163430302736095,-102.48902117515028,12.60554747449903,94.92320021116103,0
1767649844.816222,2,right_wrist,-0.3972,0.9238,-0.3045,6.37,-1.33,-11.69,0.4436144224834062,0.33129896634981626,0.7323987662297164,0.3962818268422692,108.485868404819,22.78223842800464,114.81141166129173,0
1767649844.866507,1,left_wrist,-0.245,-0.8574,-0.3304,1.12,-0.77,13.37,-0.35226535925068136,0.5795797137020027,0.5221116841271674,-0.5171033372885794,-102.89059087619007,13.389020539664354,94.71663565281663,0
1767649844.866507,2,right_wrist,-0.3894,0.9179,-0.3016,6.72,-0.49,-17.08,0.44372719213106815,0.3296075304533785,0.7342454959814333,0.3941428756972304,108.73503969748566,23.065579663197003,115.00667954152523,0
1767649844.918487,1,left_wrist,-0.2235,-0.8111,-0.3201,0.07,-1.89,9.1,-0.34772529449507356,0.5832124275146138,0.5213035856571018,-0.5169071053311944,-103.32939553408842,13.909701850505378,94.6031748723415,0
1767649844.918487,2,right_wrist,-0.3792,0.8599,-0.286,10.71,-0.49,-18.41,0.44500254157154406,0.3272609442380352,0.7364237241203119,0.390580479445743,109.02773484517684,23.564262466674073,115.16349538542563,0
1767649845.00445,1,left_wrist,-0.2469,-0.7876,-0.3006,7.56,-1.75,0.0,-0.3467308098933771,0.5839436401316032,0.5206610159176452,-0.5173970207917137,-103.3615273144958,14.07565955878322,94.58720915081433,0
1767649845.00445,2,right_wrist,-0.346,0.8403,-0.2757,2.38,-4.48,-10.22,0.4459862671103714,0.32666872442087636,0.7366745497484247,0.3894796551646178,109.05237092627884,23.742809733780565,115.13259822926294,0
1767649845.071348,1,left_wrist,-0.2455,-0.8955,-0.325,9.94,-2.24,-2.66,-0.3473959932775362,0.5829725411133924,0.521878198742799,-0.5168192970850447,-103.36677203970842,13.88572159183338,94.66293635204948,0
1767649845.071348,2,right_wrist,-0.3767,0.8447,-0.2855,-2.52,-5.11,-4.76,0.4470487140853421,0.3277624998393327,0.7341334387758479,0.3921317189476794,108.62220735620625,23.536592363561077,114.86077123553893,0
1767649845.15342,1,left_wrist,-0.2708,-0.8725,-0.324,9.38,-1.54,-1.26,-0.3471742389225506,0.5831980865855766,0.5210883989748689,-0.5175103091584532,-103.30505320309082,13.993103789874533,94.65219556095813,0
1767649845.15342,2,right_wrist,-0.4114,0.8433,-0.2957,-1.19,-2.17,0.42,0.4524332768472045,0.3238032930450622,0.7351132988778603,0.38738094329404493,108.61221069713685,24.4758076487567,114.74124479728272,0
1767649845.2152362,1,left_wrist,-0.2713,-0.8701,-0.3343,6.51,2.03,-3.36,-0.34804672075658494,0.5848130309876707,0.5200182385152003,-0.5161765498055387,-103.39858574643651,13.989983264298356,94.35682911383232,0
1767649845.2152362,2,right_wrist,-0.407,0.8735,-0.2952,-2.73,-2.38,0.84,0.450280591822984,0.3267932275422627,0.7334976358247195,0.39042898624410727,108.47103727162022,23.91496728397653,114.62515349351226,0
1767649845.267618,1,left_wrist,-0.2655,-0.8794,-0.3309,9.1,2.31,-2.03,-0.3489750111358702,0.585673033753,0.5190689437149734,-0.5155297962367438,-103.40043574019136,13.979789500668682,94.16081548222554,0
1767649845.267618,2,right_wrist,-0.4026,0.8779,-0.2908,-1.75,-3.64,0.77,0.4495863654389551,0.32971325302565596,0.7306811744342498,0.3940384398989715,108.10589496974876,23.401330068032944,114.3450212820907,0
1767649845.357078,1,left_wrist,-0.263,-0.875,-0.3192,6.93,0.98,-1.4,-0.3488725226219605,0.5867228070695457,0.5186041740057087,-0.5148728205369544,-103.4939351061077,14.023613145585943,94.02434187422627,0
