timestamp,node_id,node_name,ax,ay,az,gx,gy,gz,qw,qx,qy,qz,roll,pitch,yaw,rep_number
1767366930.271465,1,left_wrist,-0.3709,0.8272,-0.3967,-0.56,2.03,-1.33,0.4633714689817321,0.8278354746386515,-0.10331030185998559,-0.29883488784462375,115.30750627033413,23.517562447588862,-29.246827283036477,1
1767366930.271465,2,right_wrist,-0.4895,-0.7657,-0.3094,-0.7,-3.57,1.33,-0.4204793125855304,0.20599117672786707,-0.7857019389597091,0.40427372646861726,-111.56379054625289,29.616298224748785,-130.23435911172862,1
1767366930.3614469,1,left_wrist,-0.3709,0.8272,-0.3967,-0.56,2.03,-1.33,0.4642565633611241,0.8286938525049697,-0.10488455268936393,-0.2945022458381972,115.44336411858549,22.999165243782254,-29.07198855277199,1
1767366930.3614469,2,right_wrist,-0.4792,-0.835,-0.3157,-0.42,-1.96,-1.89,-0.42244587459101957,0.2072399152370952,-0.7846666199951111,0.403595584761526,-111.42848459147386,29.714344574786384,-129.90674395100092,1
1767366930.4170408,1,left_wrist,-0.3933,0.814,-0.4031,0.91,-0.14,-3.71,0.459054226727366,0.8321237364583997,-0.10087903159165651,-0.2943853344366555,116.20350271436816,23.41025562423706,-28.52022159346214,1
1767366930.4170408,2,right_wrist,-0.4651,-0.8711,-0.3177,6.65,-1.61,2.1,-0.42182326216745386,0.2081436958117246,-0.7821287948095121,0.40867577089676344,-110.83421454077568,29.32176358423221,-129.7471346002356,1
1767366930.4729779,1,left_wrist,-0.3972,0.8218,-0.4221,14.07,-5.39,-2.66,0.45069542670804286,0.8363311379248267,-0.10295883037508131,-0.29465800401417047,117.28260826964917,23.58175310012933,-28.536005967804766,1
1767366930.4729779,2,right_wrist,-0.5114,-0.7686,-0.3245,-8.05,-0.7,3.78,-0.4230272299086908,0.20646770387709473,-0.7855920451516412,0.40157712659707323,-111.63652772537469,29.922507140692005,-129.97700752218728,1
1767366930.559096,1,left_wrist,-0.4094,0.791,-0.4216,-6.93,-2.1,-2.1,0.4495102816333872,0.8361022250680563,-0.09955673969454884,-0.29826503570400237,117.26299271502411,24.15814185653434,-28.446904004383676,1
1767366930.559096,2,right_wrist,-0.5061,-0.7676,-0.3216,-2.73,-3.36,-1.19,-0.42521610103635127,0.20457178790544084,-0.7878208444347475,0.3958282052693264,-112.16948012897784,30.53320665928869,-130.089318580494,1
1767366930.617192,1,left_wrist,-0.4138,0.8389,-0.3963,-0.35,0.07,-4.62,0.4521494969366487,0.8332015562096099,-0.09727238230417656,-0.30310737831779955,116.63033920977249,24.653887726527827,-28.6817721707626,1
1767366930.617192,2,right_wrist,-0.5007,-0.8628,-0.3074,-1.47,-2.38,0.14,-0.42568204174359725,0.20667593121515832,-0.7856565393760437,0.39852686349731614,-111.74446148935614,30.274806932600235,-129.74388462719472,1
1767366930.668719,1,left_wrist,-0.4089,0.7969,-0.4055,5.46,3.08,-3.85,0.44729004806020534,0.8368082523324134,-0.0963069880472983,-0.3006801054076051,117.45555127273238,24.649670964895638,-28.248214089357695,1
1767366930.668719,2,right_wrist,-0.507,-0.7891,-0.3182,1.54,-1.12,2.52,-0.4289189609358622,0.20306465169568833,-0.7865344898364983,0.395166760341819,-111.88918181427655,30.94602177885206,-129.85176525635566,1
1767366930.7205482,1,left_wrist,-0.3948,0.8101,-0.4065,-1.54,3.29,-2.31,0.4509615776476575,0.8358280392919817,-0.09686405950998694,-0.29772890050195505,117.139199744762,24.225967926220935,-28.165555190448718,1
1767366930.7205482,2,right_wrist,-0.4943,-0.7813,-0.3323,1.33,-2.52,0.35,-0.4270174096233147,0.2045307427507552,-0.7875833990012409,0.3943801424591138,-112.1656684745947,30.750322198824318,-129.93325144140033,1
1767366930.770974,1,left_wrist,-0.4168,0.8154,-0.4158,5.25,2.59,-3.78,0.44875522830574455,0.8362099139931153,-0.09354403363569926,-0.30103361702482456,117.27535373689928,24.802888197255886,-28.032883468554797,1
1767366930.770974,2,right_wrist,-0.5109,-0.7925,-0.3167,-3.57,-2.1,0.98,-0.4302114744159568,0.2042066463164008,-0.786002789159612,0.3942300702817676,-111.85274993118622,31.016575984997022,-129.61314345428968,1
1767366930.862676,1,left_wrist,-0.4168,0.8154,-0.4158,5.25,2.59,-3.78,0.4497840063690647,0.8364502900059373,-0.09453185557439818,-0.298511286629564,117.28186388325217,24.47787780835028,-27.957052077775806,1
1767366930.862676,2,right_wrist,-0.4987,-0.7535,-0.3216,4.34,-2.24,-0.42,-0.42985853942063573,0.2059276018104325,-0.785760631065774,0.3942025996450026,-111.86568424165397,30.87571033290186,-129.4737124588442,1
1767366930.914638,1,left_wrist,-0.4006,0.792,-0.4138,3.99,-1.89,1.12,0.44854118191904974,0.8369997338543111,-0.09844783348494306,-0.2975739869891102,117.45257048208103,24.193708927448125,-28.25030700259949,1
1767366930.914638,2,right_wrist,-0.4987,-0.7535,-0.3216,4.34,-2.24,-0.42,-0.43024335506639055,0.2048413245137002,-0.7867256839921196,0.3924199094590136,-112.0689799378673,31.077656126257335,-129.5937347761261,1
1767366930.966877,1,left_wrist,-0.3928,0.8213,-0.4026,0.84,0.42,1.96,0.4519724254239966,0.8354361119262532,-0.10076166331624009,-0.29599749450230056,117.05757031749886,23.79660027139286,-28.452471989141586,1
1767366930.966877,2,right_wrist,-0.4792,-0.7876,-0.3196,-4.62,-2.59,-3.08,-0.42692278488143376,0.2100622164249401,-0.786627922005217,0.3934810202557129,-112.199715816548,30.420861658080558,-129.3892392763207,1
1767366931.018752,1,left_wrist,-0.407,0.6705,-0.3777,2.1,3.92,8.19,0.44934331599112004,0.8369873076113532,-0.10078019109442136,-0.2956115429995487,117.434799013882,23.84579111762663,-28.353165166506187,1
1767366931.018752,2,right_wrist,-0.4758,-0.7471,-0.306,1.47,-1.47,-9.45,-0.42723141249175267,0.21112967772449606,-0.7869059698901532,0.392016037829436,-112.33514494025043,30.454200681988286,-129.28273299554343,1
1767366931.108021,1,left_wrist,-0.3431,0.4133,-0.3353,12.53,19.18,42.91,0.4473778348448799,0.8415426533286,-0.11235045371750749,-0.2811341513719694,118.4187236245186,21.87892999190036,-28.349136852264326,1
1767366931.108021,2,right_wrist,-0.103,-0.4738,-0.1918,0.07,39.48,-154.21,-0.3758892254224739,0.26915051855121447,-0.7785663105833328,0.42438165440975695,-112.48200262320896,20.907745754619427,-127.7984187729241,1
1767366931.160534,1,left_wrist,-0.2054,0.2743,-0.2518,-3.64,41.93,99.82,0.45876109098119366,0.8421844627773774,-0.13879087868651604,-0.24698316552257202,118.51561276847642,16.778171627298175,-28.741448970549055,1
1767366931.160534,2,right_wrist,0.0376,-0.3953,-0.1845,51.66,61.95,-206.01,-0.31747070655057663,0.3203887904021524,-0.7508771339005984,0.4824384968595956,-109.73737527972335,9.649888912454557,-126.98742123488424,1
1767366931.211321,1,left_wrist,-0.0278,0.4255,-0.2679,-12.81,71.47,167.02,0.4843666847909714,0.8349268222083827,-0.18625650877424044,-0.18328837704788206,117.85858946189714,7.217246874794365,-29.503757394283546,1
1767366931.211321,2,right_wrist,0.0376,-0.3953,-0.1845,51.66,61.95,-206.01,-0.25584991702526927,0.36861510571933204,-0.7162233633285405,0.5344977246125955,-107.3266603325245,-1.5790707159559705,-126.69494238154836,1
1767366931.2613602,1,left_wrist,0.1625,0.5763,-0.2347,-42.14,67.13,190.68,0.5201986421793976,0.8112821318281939,-0.2393674052009296,-0.11797423692648361,115.57346185485446,-3.3030067451836826,-30.795778533757122,1
1767366931.2613602,2,right_wrist,0.4914,-1.4728,-0.2957,2.87,93.38,-230.86,-0.1694947639146333,0.41791310638638274,-0.6825078525209867,0.5751549284872712,-106.86401504798039,-14.440031112062643,-127.777203990979,1
1767366932.2712278,1,left_wrist,0.0527,0.7086,-0.3055,-63.56,-32.41,-210.28,0.5233261353170706,0.7666847076515638,-0.22338816311999107,-0.2973584431712199,106.40790311112694,12.835380373617289,-42.107383885320566,2
1767366932.2712278,2,right_wrist,0.0366,-0.7393,-0.2103,-0.21,-43.19,207.55,-0.2774211549509701,0.31462674380336886,-0.7832224746001901,0.45892272786441257,-115.43221579413785,8.382811244738868,-130.92677636375217,2
1767366932.322525,1,left_wrist,-0.0805,0.53,-0.2591,32.9,-25.06,-161.35,0.48589907234465896,0.7864370898973407,-0.18059688668121712,-0.3358624117841314,108.84200234596683,20.656564920171437,-40.7218531533355,2
1767366932.322525,2,right_wrist,0.0366,-0.7393,-0.2103,-0.21,-43.19,207.55,-0.33127651602588853,0.252295567856504,-0.8015148201260615,0.4291582569262772,-115.73373220959543,18.330428008801626,-133.48162479789826,2
1767366932.411595,1,left_wrist,-0.0805,0.53,-0.2591,32.9,-25.06,-161.35,0.44787524769400117,0.8015907568798163,-0.1376326993947106,-0.37137213283336884,111.49246860267594,28.170203348792285,-38.87718036525717,2
1767366932.411595,2,right_wrist,-0.2918,-0.3167,-0.2835,32.41,-13.44,127.82,-0.39996848349729397,0.14544829152656893,-0.816700595766243,0.38970520085821375,-116.5567059749083,32.67990070398851,-139.2601560607378,2
1767366932.467424,1,left_wrist,-0.3621,0.6188,-0.2835,6.51,-6.86,-108.15,0.4043633589363936,0.8143863855230472,-0.06904374407414703,-0.41048514032618466,115.16000576508439,37.78857626468871,-34.219742459548115,2
1767366932.467424,2,right_wrist,-0.3865,-0.4778,-0.3206,-9.8,-14.7,92.82,-0.4189228130594108,0.11586087944313284,-0.8230385185932695,0.365633054064933,-118.63545528869128,37.218342927884215,-141.37771659287725,2
1767366932.518064,1,left_wrist,-0.4729,0.4651,-0.3421,13.51,-0.63,-75.25,0.3826896790290147,0.8205084857337092,-0.04390498965362817,-0.4223585991632707,117.77726197061477,41.26126758296491,-31.72786754819259,2
1767366932.518064,2,right_wrist,-0.6188,-0.5319,-0.2972,-1.19,-3.5,59.08,-0.43264935949650757,0.09273586353760811,-0.8248572435345317,0.3518879354706698,-119.7711743955712,40.42729786971606,-143.0606160323259,2
1767366932.5685298,1,left_wrist,-0.5412,0.5436,-0.3841,20.09,-2.59,-54.18,0.36327493657932225,0.8262727748232999,-0.028760869973893467,-0.4295083635942827,120.42742289552018,43.54198501920961,-29.740491427993533,2
1767366932.5685298,2,right_wrist,-0.5778,-0.548,-0.265,-5.46,-6.72,42.91,-0.4444318054837681,0.0781262636257544,-0.8242293383955223,0.34208574207995984,-120.35466115945218,42.77926319914002,-143.86137796794677,2
1767366932.620826,1,left_wrist,-0.5807,0.528,-0.3226,4.48,2.38,-29.75,0.35430995387432507,0.8297698662916296,-0.018745266953131716,-0.4308074286114397,122.01558984238937,44.56023975786495,-28.171591335665102,2
1767366932.620826,2,right_wrist,-0.6281,-0.3377,-0.3684,8.4,-3.78,-9.17,-0.4455564158810105,0.0780108367044615,-0.8233332618172202,0.34280625666599873,-120.12755033887231,42.859088370244166,-143.702502978066,2
1767366932.707227,1,left_wrist,-0.5758,0.3865,-0.3304,10.15,-2.59,-1.89,0.3464240001835953,0.8321546823687813,-0.01810555192084267,-0.4326444102240899,123.06963939063641,45.032661102198496,-27.82685254526821,2
1767366932.707227,2,right_wrist,-0.5539,-0.2176,-0.3704,-12.32,-4.27,-40.6,-0.43631874327939585,0.10885081067039673,-0.8254455092873549,0.3411995991744794,-120.41375634788068,40.243319779722974,-141.28155094412867,2
1767366932.76145,1,left_wrist,-0.4968,0.3177,-0.2835,-26.6,5.67,43.75,0.3604360995669716,0.8299248282855448,-0.025734932412861768,-0.4250274235597776,121.42263650170668,43.387582409144144,-28.710502570802593,2
1767366932.76145,2,right_wrist,-0.5285,-0.6149,-0.2201,20.02,-3.01,-68.74,-0.4291859689562945,0.13088976591229834,-0.8162086093452834,0.3639653544791166,-117.42842642606439,37.2527278978811,-138.62898900267305,2
1767366932.814077,1,left_wrist,-0.5041,0.3338,-0.2269,24.22,6.93,88.62,0.3654046048991154,0.8330803994987224,-0.058569214542578046,-0.4111279238843258,121.00974984007684,39.95623682966567,-31.283566248204938,2
1767366932.814077,2,right_wrist,-0.2211,-0.3577,-0.1962,-33.88,33.81,-169.12,-0.3835459058480113,0.1939723948367286,-0.8163182935804352,0.385864861984684,-117.65022686659475,28.45685238468435,-135.8227904880245,2
1767366932.866871,1,left_wrist,-0.1879,0.1698,-0.1405,4.48,46.97,211.96,0.450030174480648,0.8204742457704411,-0.157785133543564,-0.31527560279378286,115.30238303919201,22.04501212605718,-35.837609616129356,2
1767366932.866871,2,right_wrist,-0.2211,-0.3577,-0.1962,-33.88,33.81,-169.12,-0.3377077375151127,0.2532185983974211,-0.8130329810548292,0.401012714468216,-118.68125191372395,20.245740090850447,-133.3185614049608,2
1767366932.923859,1,left_wrist,0.3348,0.7047,-0.0508,-70.56,126.21,259.35,0.5176546037899412,0.798107218797679,-0.21626215507026597,-0.2197481712380721,111.74537744653715,7.288585667646306,-35.26601345305834,2
1767366932.923859,2,right_wrist,-0.1347,-0.8228,-0.1113,47.74,49.35,-216.65,-0.2861081700870058,0.31359996027201226,-0.782129292158955,0.45614794779083384,-115.19672547677358,9.291139356118595,-130.39827254033523,2
1767366933.011888,1,left_wrist,0.3348,0.7047,-0.0508,-70.56,126.21,259.35,0.576406337386612,0.7615587487698653,-0.2707453002363397,-0.120336980153912,108.00654175457977,-7.4020601646961595,-33.76129218890821,2
1767366933.011888,2,right_wrist,0.2845,-1.4557,-0.1962,-119.49,67.62,-246.75,-0.10129586945121417,0.47386380071703366,-0.752119486749106,0.44666376935497154,-127.08626325687166,-15.720352120912985,-123.43524008787213,2
1767366933.958049,1,left_wrist,0.2455,0.6032,-0.1518,-21.84,-36.82,-230.23,0.521823573850118,0.7840124786552294,-0.1913684830371716,-0.2764103738777281,108.13232142660723,13.514839217131318,-37.25091834283526,3
1767366933.958049,2,right_wrist,-0.162,-0.7154,-0.222,-18.2,-23.24,183.75,-0.48125997384737695,0.3813647352416923,-0.679343079565582,0.4017993983728786,-103.18525820135494,20.32940985099114,-105.20265594278845,3
1767366934.015496,1,left_wrist,0.0898,0.6227,-0.181,-7.77,-23.45,-203.63,0.49802285588773615,0.792863225848155,-0.1283354153662152,-0.3269115496183359,108.37542669568646,22.989619551652623,-35.08386566738332,3
1767366934.015496,2,right_wrist,-0.284,-0.2274,-0.2577,-29.68,-15.47,140.14,-0.5039862626956322,0.3472338454019655,-0.705901048581247,0.3565532403910377,-105.56673201703939,27.639970774714445,-106.4493785835856,3
1767366934.11152,1,left_wrist,-0.3021,0.6315,-0.2801,-10.22,-8.82,-136.15,0.45867391163657273,0.7994723226395676,-0.03630948409547332,-0.3861914932802392,110.25258702638178,35.74581563289237,-30.532958132810027,3
1767366934.11152,2,right_wrist,-0.4602,-0.224,-0.2538,49.35,7.0,51.38,-0.5352275782130882,0.28113385395865614,-0.7333391891039207,0.3109804325080749,-107.15159111302245,37.6005277324016,-109.84718048163006,3
1767366934.163549,1,left_wrist,-0.4407,0.385,-0.3558,43.54,-20.65,-47.11,0.4316630540757657,0.8072264055365982,-0.03006205098985401,-0.4014334453439691,112.93094999499975,38.472724000922646,-30.30888606982135,3
1767366934.163549,2,right_wrist,-0.5275,-0.6793,-0.3104,-22.54,0.63,19.74,-0.532159578537172,0.281109530021062,-0.7408612608437501,0.2981747931725384,-109.04480295530713,38.37993413788102,-110.5808484963143,3
1767366934.2181509,1,left_wrist,-0.509,0.7505,-0.264,8.19,-16.03,-28.77,0.42154909923404993,0.8040298627285039,-0.02430475145017352,-0.41861869981247823,112.84201921662056,40.74340729160945,-31.159528068004075,3
1767366934.2181509,2,right_wrist,-0.5275,-0.6793,-0.3104,-22.54,0.63,19.74,-0.5287052575147295,0.28142775028236,-0.747982425961953,0.28599206719656495,-110.92399088303459,39.046601495840186,-111.33366818273267,3
1767366934.310318,1,left_wrist,-0.5095,0.4621,-0.284,-16.8,-2.52,0.14,0.424095090942116,0.802440108973764,-0.020259159798902516,-0.4193122843337825,112.47762754805446,40.977482179274084,-30.940976975793568,3
1767366934.310318,2,right_wrist,-0.568,-0.5012,-0.3514,-37.38,-7.0,-25.62,-0.5294875226142464,0.29041273666682327,-0.7454518941828359,0.2821433664588562,-111.037763652887,38.7217521453781,-110.29452305349712,3
1767366934.360636,1,left_wrist,-0.5622,0.1796,-0.2557,7.35,4.69,48.3,0.42675394681909057,0.8051254241438638,-0.03484069351980633,-0.41041472481692376,112.66352464198192,39.133825696946936,-31.59585911119643,3
1767366934.360636,2,right_wrist,-0.4475,-0.3972,-0.2157,30.45,-4.48,-65.31,-0.5266507740871824,0.3031537099035311,-0.734263570643233,0.3026446747447364,-108.9401995555036,36.15028430688502,-108.89393857868123,3
1767366934.4169228,1,left_wrist,-0.184,0.5017,-0.0293,-59.29,40.81,175.91,0.5320454827310064,0.7775163478447273,-0.12420569469971565,-0.31139826355310346,104.85235490047761,20.613875318554225,-34.081986399640904,3
1767366934.4169228,2,right_wrist,-0.3719,-0.0688,-0.1932,-13.51,8.33,-129.92,-0.5047221608220623,0.3442270231051818,-0.7219518265275241,0.32488283597756407,-108.8897240201529,30.33820781666423,-107.08280803227349,3
1767366934.468149,1,left_wrist,0.0156,0.6051,-0.245,-69.44,76.93,237.86,0.5884485048642313,0.7545794853255905,-0.1792882220036128,-0.228459823381707,101.82427863308422,7.687987748274619,-32.97964458722909,3
1767366934.468149,2,right_wrist,-0.1459,-0.6124,-0.1259,40.88,33.32,-213.29,-0.46646678938817643,0.3979481269648275,-0.6862091932368755,0.39136040392491017,-105.88457985784427,19.19021245865161,-105.22967835382855,3
1767366934.51817,1,left_wrist,0.2157,0.854,-0.3157,-34.93,72.52,253.47,0.6261943804567783,0.7283228392737479,-0.24192249408321936,-0.13747707639142012,100.30614715201271,-5.896145740611405,-31.827252091351877,3
1767366934.51817,2,right_wrist,0.0898,-0.551,-0.2357,113.96,53.27,-242.2,-0.4223178419855943,0.43787538419312333,-0.6302861059267143,0.48234034968484,-100.31598007973318,6.312560366003236,-105.15377513337955,3
1767366934.611223,1,left_wrist,0.5163,1.0116,-0.2811,32.41,78.12,253.33,0.6346871537079892,0.7095610813362927,-0.30398349223002485,-0.03590717508466274,101.74282498857994,-19.56719695244796,-30.41123629809946,3
1767366934.611223,2,right_wrist,0.692,-1.71,-0.0093,54.39,63.77,-252.63,-0.26131716951488226,0.5591780171365266,-0.5380984473807636,0.5740063963009508,-102.66314324321618,-21.144100247435333,-104.78846105117825,3
1767366935.569408,1,left_wrist,0.04,0.5607,-0.141,19.25,-30.38,-200.9,0.5441483057902663,0.7700033728063064,-0.14814349883730152,-0.2984140260187802,103.92566952016082,17.357659510320087,-35.4002682810095,4
1767366935.569408,2,right_wrist,0.1298,-0.7652,-0.2401,-11.27,-61.53,221.06,-0.5313852030630792,0.5024202221686297,-0.60357946078186,0.3176405528957442,-104.27807487108275,18.801369023982794,-85.78408092097149,4
1767366935.6584609,1,left_wrist,-0.1698,0.6354,-0.0722,-89.95,-10.29,-175.0,0.5516631615576731,0.7535743210733167,-0.07998076579777137,-0.34842011408855894,99.50506661108396,25.904727997355813,-34.15055474456923,4
1767366935.6584609,2,right_wrist,-0.2318,-0.2635,-0.3567,-62.02,-30.87,157.01,-0.5529268939194504,0.45286146595809235,-0.6729284302403743,0.190671629785614,-112.63550381376952,34.85243302271953,-88.49009512798703,4
1767366935.712042,1,left_wrist,-0.2377,0.7193,-0.1552,73.36,-4.48,-140.07,0.505718730714301,0.7745961829825838,-0.049110306298095076,-0.37661319218640654,104.01721025764944,32.26082414471351,-32.712899843195714,4
1767366935.712042,2,right_wrist,-0.3465,-0.6759,-0.2464,-55.93,-32.76,110.6,-0.5587311972846427,0.4383989081166238,-0.6889752307155059,0.14470306839710428,-115.83678517165602,40.01802534847826,-89.34548921868605,4
1767366935.765068,1,left_wrist,-0.5812,0.3909,-0.2157,-20.65,-1.96,-89.88,0.46648828516922086,0.7784290860836587,0.0206903885766439,-0.4195339623432015,106.7060088316981,42.25709974051068,-29.033540344136053,4
1767366935.765068,2,right_wrist,-0.5129,-0.4748,-0.1728,-4.97,-11.34,84.98,-0.5690363151328317,0.41230732499170875,-0.7014573914489074,0.11898684717196475,-116.99555323594812,44.44234290095696,-90.99521979611858,4
1767366935.8182552,1,left_wrist,-0.6193,0.4494,-0.305,48.23,1.68,-67.41,0.4340560418657134,0.789165594094845,0.03704859238718062,-0.4329438986969662,110.81968941186474,45.683468336604335,-27.01852471118892,4
1767366935.8182552,2,right_wrist,-0.5192,-0.3411,-0.3631,35.7,-8.82,54.67,-0.5783129727598014,0.38693048652472006,-0.7093919197179052,0.1122586672574107,-116.75372580348298,47.191452710517275,-92.67185739598447,4
1767366935.8719091,1,left_wrist,-0.4587,-0.2796,-0.1918,-6.58,21.0,77.56,0.44749892438705,0.7933664091922885,0.01805035318064504,-0.41229678411045295,110.47078887471383,42.09484547318387,-27.302528307565716,4
1767366935.8719091,2,right_wrist,-0.4275,0.0112,-0.2889,22.19,19.53,-51.87,-0.5718784079905447,0.3948924246028844,-0.7068714466318855,0.13171111343391265,-116.00770805650879,44.78638629488841,-92.74823900704233,4
1767366935.961358,1,left_wrist,-0.4587,-0.2796,-0.1918,-6.58,21.0,77.56,0.4605379279435119,0.7967477980106359,-0.0011222245263038035,-0.39127548339093804,110.1507873457311,38.49615424304425,-27.56564437770754,4
1767366935.961358,2,right_wrist,-0.3143,-0.0264,-0.2303,-15.05,16.73,-134.05,-0.5464410500161605,0.4445107823684714,-0.6870441809752877,0.17827685380722216,-114.90185699803938,36.32510986011762,-90.54224378339973,4
1767366936.017929,1,left_wrist,0.0786,0.4826,-0.0278,-64.4,58.1,250.81,0.546190102909288,0.7836024266459468,-0.12830176125242015,-0.26680004965901305,105.76523163706831,16.139444824899368,-30.845841553173166,4
1767366936.017929,2,right_wrist,-0.1649,-0.4085,-0.1635,53.13,54.6,-208.32,-0.5198913083157495,0.4900612464362572,-0.6508008700134079,0.25692650674632894,-111.20283144120239,25.142560639882,-88.67744875185814,4
1767366936.1113322,1,left_wrist,0.1825,0.7452,-0.1552,-93.31,104.58,281.75,0.6125373657021401,0.7495661825203748,-0.18981792745439593,-0.16406604785095746,101.29018942176684,0.7686789343848733,-29.051729201510668,4
1767366936.1113322,2,right_wrist,-0.0093,-0.7418,-0.1932,-25.97,90.65,-249.06,-0.4182570957891177,0.5630728534083178,-0.5575774748308362,0.44397896699949185,-104.83472143502604,-1.9234102549401388,-90.91843098013864,4
1767366936.165652,1,left_wrist,0.6407,1.7031,0.1322,128.38,97.72,268.59,0.6288935813358534,0.7102464181960487,-0.310503643705665,0.06025260193347037,103.261555870954,-28.433333274068076,-24.543953143247027,4
1767366936.165652,2,right_wrist,0.3806,-1.791,-0.2894,-113.75,125.23,-264.11,-0.30443541770137417,0.6186346105900999,-0.5298376556981087,0.4938444629975691,-109.96099288175027,-16.76313950172304,-92.94659020845387,4
1767366937.0602062,1,left_wrist,0.4485,0.7915,-0.1122,32.9,-77.28,-286.3,0.5386673826689854,0.7619589262772756,-0.23380922580981509,-0.27311040156160515,105.91572840090939,9.456979601903182,-41.26178848328872,5
1767366937.0602062,2,right_wrist,0.1635,-0.548,-0.3616,-29.12,-92.33,224.63,-0.4590594156339634,0.45423324480481975,-0.7318432404727151,0.21758236051271335,-123.33825885511169,28.310709581796175,-100.85995414723554,5
1767366937.1119401,1,left_wrist,0.1562,0.4085,-0.1493,70.56,-57.89,-231.14,0.4802237360311685,0.7906503147472381,-0.18092562877012125,-0.33395083469950515,109.73230959656699,20.750984266659312,-40.46151679984229,5
1767366937.1119401,2,right_wrist,-0.0586,-0.4294,-0.2786,-18.83,-76.58,183.19,-0.49265698494228355,0.4078415706585056,-0.751395948175216,0.16235294113828064,-125.57001808343912,37.44014936984197,-103.24452518204633,5
1767366937.166214,1,left_wrist,-0.3299,0.3899,-0.141,44.31,-25.2,-128.94,0.39875237088517024,0.8141218502284325,-0.09907992013883675,-0.4103478148100352,115.29221869178323,36.09526190568471,-37.203664032577656,5
1767366937.166214,2,right_wrist,-0.3026,-0.4514,-0.2499,-16.94,-43.12,143.36,-0.5128587591611732,0.36850330199758546,-0.7656963715837721,0.12202571905948485,-128.17985040777538,44.0634397776128,-106.35680519350976,5
1767366937.219376,1,left_wrist,-0.551,0.1923,-0.2962,4.97,-8.61,-59.92,0.3819863737934673,0.8168952490354497,-0.07757297251859634,-0.4251482050697814,116.67441338079642,39.44516618600128,-35.78317169014267,5
1767366937.219376,2,right_wrist,-0.4987,0.2874,-0.3118,-6.86,-15.75,58.38,-0.5195181136015029,0.34952724538064806,-0.7732178524955231,0.100328395575548,-130.33216642462781,47.1609267939896,-108.51018863145798,5
1767366937.270978,1,left_wrist,-0.551,0.1923,-0.2962,4.97,-8.61,-59.92,0.36482922557945957,0.8189789069123122,-0.05596145852150244,-0.4393648840723987,118.2640921338071,42.75215730648308,-34.15403975431701,5
1767366937.270978,2,right_wrist,-0.4987,0.2874,-0.3118,-6.86,-15.75,58.38,-0.5256171692414762,0.33014143104434807,-0.7801061357138427,0.07853434871559783,-132.81814053492306,50.19426721792503,-111.00422834768553,5
1767366937.321707,1,left_wrist,-0.4597,0.1698,-0.2655,-30.87,18.62,63.49,0.38438711518505453,0.8171699107671531,-0.06726819228090945,-0.42421088260884277,116.69452103941249,39.91053542651942,-34.645252149814745,5
1767366937.321707,2,right_wrist,-0.486,-0.161,-0.1728,17.92,7.91,-39.97,-0.5262265917416447,0.3370684687997947,-0.7752417768270513,0.09203591118129321,-130.78967001935453,48.92593429635334,-109.46469820516636,5
1767366937.4158049,1,left_wrist,-0.3572,0.0791,-0.1645,-17.15,28.0,131.04,0.41143859090745044,0.8153202065680449,-0.10331769865463897,-0.3940770226981538,115.00136964484022,33.88861311097587,-36.412029329798145,5
1767366937.4158049,2,right_wrist,-0.2015,-0.0722,-0.1313,52.36,42.07,-175.0,-0.5042616857900997,0.3947852620454498,-0.7441018739473395,0.19020291875754802,-121.60013951771622,36.88891594308714,-102.98628602016576,5
1767366937.469962,1,left_wrist,-0.1825,0.2484,-0.0068,-56.42,64.89,209.23,0.4936858584484574,0.79218873813077,-0.19030974769157788,-0.30412740139677613,110.04154761124367,17.09435421807362,-39.02244997973409,5
1767366937.469962,2,right_wrist,-0.0181,-0.4709,-0.0556,113.68,81.69,-266.63,-0.470700069138895,0.44706418199367315,-0.6986834262686766,0.30069341853194936,-114.09046733301649,22.884961982353754,-99.82134763031283,5
1767366937.5592,1,left_wrist,0.1122,0.6403,-0.2669,-61.18,134.26,280.49,0.5589169970100996,0.7656394774872765,-0.25058487308267025,-0.1965075121932104,107.34097724513532,1.191581904468387,-37.12160013203528,5
1767366937.5592,2,right_wrist,0.3387,-0.6061,-0.3084,148.47,109.34,-295.4,-0.3582086716403487,0.5198207019214007,-0.5570577277370368,0.539592136139926,-99.39308050260645,-9.316993531259403,-101.86808358293841,5
1767366937.6164181,1,left_wrist,0.4782,0.7252,-0.0615,68.11,140.91,308.77,0.6150189173228,0.6931385806982885,-0.3719493972003883,0.05444524960839777,106.30680109387893,-32.207567666714795,-32.02223890244458,5
1767366937.6164181,2,right_wrist,0.8272,-2.0374,-0.1781,-66.99,112.7,-283.15,-0.24424769069413446,0.5684830247665594,-0.5184675215892528,0.5902216068562246,-101.68211053174771,-24.695324718472538,-104.94726608759446,5
1767366938.4705338,1,left_wrist,0.0717,0.7383,-0.2752,7.91,-67.9,-189.07,0.46036229904841397,0.8124200289164055,-0.28775891811380017,-0.21268534335092418,119.15996211252902,4.624948716417531,-41.72483925590124,6
1767366938.4705338,2,right_wrist,0.022,-0.833,-0.3026,-43.96,-28.56,182.14,-0.5106235562057267,0.5429466472611669,-0.5809142307269579,0.32712563124063143,-105.80310993882736,13.770502079371992,-83.43435602971765,6
1767366938.559053,1,left_wrist,0.0717,0.7383,-0.2752,7.91,-67.9,-189.07,0.4329911696324803,0.8267701624737642,-0.23518424065307944,-0.2714002918418411,119.52161099267433,14.188093821405745,-40.05667095715261,6
1767366938.559053,2,right_wrist,-0.2899,-0.5592,-0.2757,-5.11,-29.12,153.58,-0.550368123502009,0.47423300096362064,-0.6496793899263804,0.22386308256343207,-109.88134144900518,30.185362421258493,-86.31181759806091,6
1767366938.6099331,1,left_wrist,-0.1083,0.5793,-0.3548,22.26,-54.46,-155.4,0.40032770435985454,0.8390219712892613,-0.19401435047122262,-0.313270318777698,121.34477225891177,21.73675536853941,-38.35318466150124,6
1767366938.6099331,2,right_wrist,-0.4573,-0.5344,-0.347,-30.31,-19.25,102.48,-0.5572267431051721,0.45362916703094647,-0.6708615383705089,0.1834767885111531,-112.51919697834651,35.53380112684473,-87.70676683107233,6
1767366938.660306,1,left_wrist,-0.4299,0.5456,-0.3928,-18.06,-38.92,-110.81,0.3848851603626797,0.8394297172455292,-0.1551236040136852,-0.3509384997624094,121.20772733461517,28.019164292904748,-36.942823350790476,6
1767366938.660306,2,right_wrist,-0.6046,-0.2435,-0.2874,16.59,-16.73,75.46,-0.5711472849348672,0.4266620836177732,-0.6821593297416532,0.16250813567599634,-112.57241099957298,39.833200391587546,-88.76883755668781,6
1767366938.71613,1,left_wrist,-0.5226,0.3216,-0.387,-43.82,-18.69,-87.71,0.37834353248378183,0.8302051112946274,-0.07868181900859329,-0.4017770724736143,119.47928820713712,37.41452731751618,-33.178943087780574,6
1767366938.71613,2,right_wrist,-0.6046,-0.2435,-0.2874,16.59,-16.73,75.46,-0.5838687367517188,0.3991227444863519,-0.692676500934647,0.14141286409152545,-112.79483311876983,44.10553173757106,-89.96781695537769,6
1767366938.769345,1,left_wrist,-0.5915,0.2884,-0.3289,-2.03,-9.66,-41.65,0.3676939368454873,0.8303208801855545,-0.06221997433937263,-0.4141220587316748,120.27961754371296,39.93757229199634,-32.13693020102931,6
1767366938.769345,2,right_wrist,-0.4719,-0.1693,-0.2826,4.13,18.13,-16.38,-0.5766466869027105,0.4006698624317202,-0.6967869386712048,0.14639064833617027,-113.67843367987172,43.337231004025405,-91.09383090271979,6
1767366938.8610072,1,left_wrist,-0.5514,0.083,-0.2777,7.07,11.9,29.26,0.36710048857389554,0.8336190230116595,-0.06961502404297946,-0.4067804127405705,120.85816439526735,38.835632346824866,-32.16874847901975,6
1767366938.8610072,2,right_wrist,-0.2162,-0.1357,-0.0742,1.33,46.9,-149.73,-0.5477983755159993,0.4427552296150774,-0.6727063904737424,0.22660727844957096,-110.61303627216473,32.43563507836877,-90.52745063488267,6
1767366938.9180212,1,left_wrist,-0.1381,-0.0015,-0.124,-50.05,80.85,210.0,0.4360224108489058,0.8291622590103637,-0.15270335694624695,-0.3147317750842545,117.23602741299541,22.87756691749722,-34.94189451761092,6
1767366938.9180212,2,right_wrist,0.1357,0.0278,0.0015,203.35,76.44,-237.51,-0.5348733817828191,0.4527792072311765,-0.6182273424137175,0.35594438898708614,-100.68492154281836,19.81707258911803,-91.08430527366083,6
1767366939.010378,1,left_wrist,0.1869,0.0044,-0.1186,-78.12,106.19,284.76,0.505612763186936,0.8029418314620922,-0.22455002389831719,-0.2218500298806325,113.17713301534978,7.4230551211415445,-36.14886956653651,6
1767366939.010378,2,right_wrist,0.6695,-1.8383,-0.1532,83.09,89.74,-333.97,-0.42815333836939623,0.4939066052228116,-0.47948804248354665,0.5855187454520268,-86.95919979217011,-9.659601983993872,-98.48637819738411,6
1767366939.068126,1,left_wrist,1.0111,1.5562,-0.3455,15.19,122.78,316.05,0.5594624940725286,0.7324416324579442,-0.3874640454812359,0.02006455152258109,114.89967814181544,-27.576688137837294,-37.95255837355918,6
1767366939.068126,2,right_wrist,0.8804,-0.8179,-0.3567,71.33,126.7,-290.99,-0.33582718957133206,0.5072207674621827,-0.4168601320957922,0.6754071528113792,-81.32403463298179,-23.90210250176727,-106.51545574102663,6
1767366939.918386,1,left_wrist,0.2508,0.5568,-0.1737,21.84,-58.17,-249.69,0.4500985807348861,0.8185891263821283,-0.16838120544003335,-0.314596375446295,115.21515510693777,21.313703949730584,-36.862688428080034,7
1767366939.918386,2,right_wrist,0.1654,-0.7954,-0.1586,-20.09,-70.07,246.61,-0.5288388743817367,0.5372992154898757,-0.5448725015913485,0.3670871217929169,-100.02363560169661,10.47626983881534,-82.00771516585918,7
1767366940.012667,1,left_wrist,-0.0268,0.5002,-0.181,54.11,-39.9,-202.58,0.401011900137946,0.8345685913709794,-0.11322172893312983,-0.3603686478346948,119.13936617405723,30.710346909885722,-33.77803541584787,7
1767366940.012667,2,right_wrist,-0.4026,-0.3309,-0.2079,-43.96,-24.36,131.11,-0.5662249399711751,0.4843486616985355,-0.6144704195753511,0.2592716620310999,-104.50495135702263,26.404222436674125,-82.91925020315702,7
1767366940.068426,1,left_wrist,-0.4616,0.2069,-0.2679,14.07,-28.14,-116.76,0.3418067260159174,0.838752861638657,-0.03686430721631455,-0.4222591881732175,124.12878263954701,43.08960321522643,-28.682249333745496,7
1767366940.068426,2,right_wrist,-0.4172,-0.4133,-0.3109,-27.09,-1.54,84.63,-0.5687565331296187,0.4677563959449461,-0.6372413782802892,0.22725181161524208,-106.90583468422564,30.815379931664044,-84.34947421360182,7
1767366940.1605692,1,left_wrist,-0.5202,0.3611,-0.2772,24.71,-19.25,-71.96,0.3158777952193335,0.8393492874211442,-0.015234932962555282,-0.4421333384971289,126.9828364777086,47.10344704264118,-26.61090624553803,7
1767366940.1605692,2,right_wrist,-0.5026,-0.0595,-0.2996,-11.2,-5.67,-10.57,-0.5678164963519617,0.45542342659933427,-0.6589664412252286,0.18957098489500138,-110.27104512545782,35.14683926245247,-85.81638593797058,7
1767366940.2113721,1,left_wrist,-0.5544,0.2991,-0.3899,4.69,-20.58,-27.93,0.3050244615935954,0.8378911922701607,-0.007206161336193844,-0.4525997116486291,127.98440005529746,48.94352152300791,-26.02529506846362,7
1767366940.2113721,2,right_wrist,-0.5026,-0.0595,-0.2996,-11.2,-5.67,-10.57,-0.5657214731120576,0.46028849829332286,-0.6589976491476688,0.1838907600088904,-110.95667933905759,35.19301117372495,-85.5214772561819,7
1767366940.268451,1,left_wrist,-0.4392,0.2416,-0.1688,9.73,15.96,109.13,0.32647600021534967,0.8386761041510384,-0.05483766020667677,-0.4324680851027976,124.74813016044072,43.59805322064802,-31.12698064495734,7
1767366940.268451,2,right_wrist,-0.3401,-0.1347,-0.1078,90.02,39.27,-164.78,-0.558497260944024,0.4785891817989811,-0.628146758241474,0.25389930030177693,-106.15366729893502,27.297422004014212,-84.709739463024,7
1767366940.3575401,1,left_wrist,-0.2001,-0.0566,-0.1083,-72.31,54.18,195.16,0.38598890094887267,0.831462844010244,-0.10221975230180666,-0.38630717002669734,119.24181816305241,34.29741217911276,-34.52380010094664,7
1767366940.3575401,2,right_wrist,-0.1035,-0.1571,-0.2216,32.55,33.95,-229.6,-0.48685241949284713,0.5728403470781261,-0.5344475337692667,0.38625702846850724,-103.19426925643016,4.465967243259994,-82.48766464068662,7
1767366940.4083169,1,left_wrist,-0.001,0.1235,-0.0708,-34.79,71.75,275.24,0.4463497205766922,0.8190810370472252,-0.18527900198174418,-0.3091114250806652,115.88773725791242,19.936357660598972,-38.05373926161369,7
1767366940.4083169,2,right_wrist,0.0698,-0.8496,-0.1581,23.66,42.56,-276.64,-0.43119338853994404,0.621583106478289,-0.46390475158978683,0.46097623026861057,-101.90306310535279,-9.962567800432506,-81.55846158839533,7
1767366940.460587,1,left_wrist,0.4836,0.8745,-0.2235,-109.06,91.98,293.79,0.529100904607987,0.7774095776297392,-0.2572236777718975,-0.22253665079276178,109.99829501978478,4.232832776300139,-39.5805915539451,7
1767366940.460587,2,right_wrist,0.4026,-0.813,-0.1952,117.88,82.46,-288.47,-0.3814692595149108,0.6365622645178164,-0.37112593462599786,0.558153409095631,-95.45185213248337,-25.305999290196755,-83.55608913838138,7
1767366940.512102,1,left_wrist,0.9028,1.0634,-0.3109,56.07,94.92,283.29,0.5447155991009737,0.7597475567868013,-0.3362263439583426,-0.11410701854382041,112.81852055114956,-11.122681441206106,-40.34329604686107,7
1767366940.512102,2,right_wrist,0.4846,-0.9911,-0.2489,-106.68,82.04,-300.09,-0.2614605595884794,0.6780190406886367,-0.32527338354146845,0.6050832853441127,-99.93313582368212,-40.57355130720626,-85.76118094323972,7
1767366941.41111,1,left_wrist,0.3143,0.7525,-0.203,-23.03,-34.37,-242.69,0.49083896829435425,0.8202850197456567,-0.143324096081902,-0.2562572868562126,113.75963310015504,16.242892853541765,-30.459531758838075,8
1767366941.41111,2,right_wrist,0.042,-0.8115,-0.1771,24.29,-10.22,197.89,-0.50001526674938,0.6046788300321945,-0.5553345082227888,0.2755935948192484,-110.91475138115767,12.830069653689371,-76.27710499664036,8
1767366941.461469,1,left_wrist,0.0107,0.51,-0.1918,15.47,-20.3,-201.46,0.4619103974066955,0.8303973467236965,-0.07953263032487026,-0.3012533685047209,115.67201477387368,25.26757146296463,-26.988400321035478,8
1767366941.461469,2,right_wrist,-0.2367,-0.5905,-0.3684,-46.06,-43.68,139.44,-0.512419603137505,0.5853121480276458,-0.5889785753656505,0.21895222641460857,-113.83643439785273,20.32210938447832,-77.03891562664576,8
1767366941.5118039,1,left_wrist,-0.1313,0.5807,-0.2601,69.44,-23.87,-155.05,0.4164406645744244,0.8445439472135473,-0.03992465841326291,-0.33425845653379793,120.47890339006162,32.0959981076127,-24.093557633055166,8
1767366941.5118039,2,right_wrist,-0.2367,-0.5905,-0.3684,-46.06,-43.68,139.44,-0.5210294169123152,0.5642784674088294,-0.6192079620967729,0.16340029867389202,-117.0543200670315,27.441620574134387,-78.31359163379994,8
1767366941.5679722,1,left_wrist,-0.4743,0.2562,-0.2625,-2.03,-12.46,-92.05,0.3829167506594735,0.8409495634914194,0.029310397856545132,-0.3812079410314966,123.79564821828465,41.57502503289742,-18.926403985435343,8
1767366941.5679722,2,right_wrist,-0.5431,-0.5461,-0.2142,-20.44,-31.15,105.42,-0.5337638843639221,0.5396134423769287,-0.6392668136042026,0.12349651646580304,-118.57162948225665,33.30901473100699,-79.50871195237484,8
1767366941.660202,1,left_wrist,-0.6071,0.3118,-0.3357,15.19,-3.57,-46.55,0.3660873909528579,0.842369507803919,0.045930296588860275,-0.3927900741652873,126.09697101330971,44.057328066566235,-17.008265420165415,8
1767366941.660202,2,right_wrist,-0.5187,-0.2611,-0.3133,-33.95,-1.68,17.71,-0.5396549605056082,0.5163334682778895,-0.6587555775739852,0.09062760149634973,-120.65811141638879,38.12748521733956,-81.54544989507883,8
1767366941.714004,1,left_wrist,-0.5524,0.2908,-0.3157,-1.68,1.4,-1.47,0.3628127303547362,0.8427088761862404,0.049630578955199935,-0.39464601647810527,126.61303378843749,44.519873100843164,-16.517762163078473,8
1767366941.714004,2,right_wrist,-0.3836,-0.0112,-0.2279,-6.23,11.62,-110.04,-0.5292663840107601,0.5470571258909078,-0.63857606543837,0.11325283403696569,-119.77757999461662,33.50722612750992,-79.0217572623898,8
1767366941.76644,1,left_wrist,-0.3514,0.1947,-0.1415,12.18,26.95,144.2,0.3896128183621124,0.8517297032669917,-0.0238585936519022,-0.3495556205378582,123.5993614523212,35.2301745775778,-22.532897200250627,8
1767366941.76644,2,right_wrist,-0.3836,-0.0112,-0.2279,-6.23,11.62,-110.04,-0.5180324634658213,0.5767655517480537,-0.6169276384565553,0.13558817802711767,-119.14569222244792,28.866596737548893,-76.6618716861141,8
1767366941.817108,1,left_wrist,-0.0127,0.5876,-0.1728,-29.68,58.45,207.55,0.43366623338323707,0.8488919473690284,-0.08845827382873679,-0.28894842707039387,120.12450497015232,24.446869349738964,-26.121081686283233,8
1767366941.817108,2,right_wrist,-0.2172,-0.7257,-0.1322,70.35,31.08,-161.91,-0.51757962932121,0.6008193479177429,-0.574995451079003,0.20126517264015392,-114.18187600706176,20.693201514988452,-74.00699295456458,8
1767366941.910304,1,left_wrist,0.4973,0.7852,-0.2455,-38.64,97.3,280.21,0.4846869199706445,0.8352580659775788,-0.16972635343323522,-0.19650831478342376,117.33052018161038,9.424163822994375,-28.718450105324663,8
1767366941.910304,2,right_wrist,0.63,-1.4874,-0.265,86.59,83.37,-275.94,-0.42875800657144236,0.7040121360750135,-0.43627297567629153,0.3608315046590773,-112.0438841507483,-7.697818482657816,-68.76481460685632,8
1767366941.968734,1,left_wrist,0.6993,0.8272,-0.121,7.63,142.17,280.21,0.5485888882682568,0.775140037946698,-0.3128800418345226,0.017726608875275163,115.33914384533733,-21.762880871195886,-30.088326089238013,8
1767366941.968734,2,right_wrist,0.63,-1.4874,-0.265,86.59,83.37,-275.94,-0.3923191372784136,0.7204305331878171,-0.3478787493387519,0.4539228096651949,-107.63419880876067,-22.40064113690589,-68.03144598715406,8
1767366942.862276,1,left_wrist,0.2757,0.6227,-0.1645,13.65,-39.27,-239.68,0.49955041961441876,0.8011566143496297,-0.17472840799669037,-0.2794055135208307,111.00137016038094,15.85023910816882,-35.53658407326186,9
1767366942.862276,2,right_wrist,0.0259,-0.7003,-0.2406,33.95,-44.73,210.49,-0.48443056416156677,0.5930418894452357,-0.5778585328967212,0.282325807937886,-112.3961395129907,13.0030315836193,-79.78808925365716,9
1767366942.915796,1,left_wrist,0.0952,0.5705,-0.2684,56.49,-41.37,-199.71,0.4005156284870196,0.8335824086204568,-0.07029362604584638,-0.3738802020881714,119.02064181741662,34.54216182116199,-30.38839875187344,9
1767366942.915796,2,right_wrist,0.0259,-0.7003,-0.2406,33.95,-44.73,210.49,-0.526809398296653,0.5376054876433037,-0.614067419140959,0.23743083681713723,-111.1645648967194,23.060614563726165,-81.68270823528896,9
1767366942.96692,1,left_wrist,-0.3162,0.4597,-0.1903,44.1,-35.42,-152.39,0.36079544373909483,0.836421685047712,-0.029181724138442486,-0.41155053096231514,122.5711852538098,41.86688912489165,-27.667064206356528,9
1767366942.96692,2,right_wrist,-0.2464,-0.3065,-0.2625,7.84,-23.45,160.37,-0.5483789550956509,0.49415523441702985,-0.6462530275941547,0.19351524547652824,-112.22600762807544,31.166712603970364,-83.97465713212074,9
1767366943.0185049,1,left_wrist,-0.5392,0.4441,-0.2328,17.5,2.03,-69.44,0.3420852750498039,0.8382869730345168,-0.005324154942905564,-0.4245282897627333,125.04989079053018,45.0813827592937,-25.08639519218164,9
1767366943.0185049,2,right_wrist,-0.3562,-0.1835,-0.3094,0.91,-19.46,109.41,-0.5610044994092923,0.4636432861939974,-0.6669615675054122,0.15959674896589746,-113.55544838360503,36.89460746078275,-85.74176128626668,9
1767366943.071243,1,left_wrist,-0.5392,0.4441,-0.2328,17.5,2.03,-69.44,0.3245883560813764,0.8390980934632197,0.01713518462741169,-0.4361916712760157,127.65272379250558,47.999497956972974,-22.34638099598928,9
1767366943.071243,2,right_wrist,-0.4817,-0.4695,-0.324,-14.77,1.4,56.84,-0.5593542158209137,0.45029253738307573,-0.6819656093470758,0.138861080538621,-115.84035502041422,39.632761404964086,-87.67218526847364,9
1767366943.1578481,1,left_wrist,-0.5705,0.3958,-0.3406,-3.64,9.24,-28.07,0.3178708060202579,0.8419910760681836,0.030057832805262037,-0.4348628579088178,129.49978193970307,48.71269110070257,-20.015397022870445,9
1767366943.1578481,2,right_wrist,-0.5871,-0.3743,-0.3011,12.53,-7.07,8.61,-0.5686332941078557,0.4363624726148039,-0.6848354549254916,0.1313178167749475,-115.24608109768901,41.62375131897684,-87.89079198400465,9
1767366943.208317,1,left_wrist,-0.5763,0.4041,-0.365,-17.71,-4.06,3.5,0.3240264604191819,0.8407909551532685,0.031016960570437728,-0.43256834238954983,128.7506323597968,48.37425859720913,-20.08985138360155,9
1767366943.208317,2,right_wrist,-0.5939,-0.3426,-0.2528,-35.07,0.35,-28.56,-0.5604015879635129,0.4513154039037853,-0.6833069711303762,0.12391952877479602,-116.80859130248241,40.84379530030825,-87.31249133600761,9
1767366943.2636,1,left_wrist,-0.4016,0.304,-0.1967,28.56,19.46,127.89,0.3468081327698093,0.8477150646052543,-0.033830594605028706,-0.39994847062427696,125.55058564441389,40.89078475602217,-26.285173987878462,9
1767366943.2636,2,right_wrist,-0.446,-0.2035,-0.182,37.17,9.31,-80.36,-0.5608096049269059,0.46320087421288114,-0.6691105877522142,0.1524091811802582,-114.15899083382835,37.53855564574129,-85.79629245794101,9
1767366943.3169532,1,left_wrist,-0.1279,0.5607,-0.2411,-63.98,40.88,175.21,0.4031331512067386,0.8392733537193733,-0.08352589631534484,-0.35514409016549714,119.87020546502315,31.923184723205225,-30.1688197246068,9
1767366943.3169532,2,right_wrist,-0.3616,-0.1078,-0.2035,-6.16,29.4,-142.8,-0.5399375071911416,0.5020216049308127,-0.6491698419373367,0.1871371497858188,-113.83843027852453,30.872443693639305,-84.17459661549124,9
1767366943.368025,1,left_wrist,-0.1225,0.1991,-0.1859,9.17,66.85,223.72,0.4324967858717713,0.8406629207501474,-0.15479844720187952,-0.2868271685707362,119.48406466849364,20.386443339848512,-32.843079450833045,9
1767366943.368025,2,right_wrist,0.1283,-0.3265,-0.2098,136.71,78.82,-250.11,-0.5198246368669275,0.5322687488706298,-0.5958188862903617,0.3024436817352519,-106.84222971591471,17.306310714284336,-83.5617823987364,9
1767366943.4180632,1,left_wrist,0.2147,0.6534,-0.2938,30.45,87.71,270.76,0.4593539087013256,0.8318304864752193,-0.241880795585155,-0.19633061161802268,120.24173224237113,5.993163605246839,-35.87231407719145,9
1767366943.4180632,2,right_wrist,0.1283,-0.3265,-0.2098,136.71,78.82,-250.11,-0.49036273325836893,0.553996280761618,-0.5323096471066531,0.41143523224301887,-100.42379195747144,3.7947487556156516,-84.55195294831147,9
1767366943.515626,1,left_wrist,0.7154,0.7369,-0.183,62.37,127.82,275.17,0.4711464536534398,0.8174956479737447,-0.3203168288011569,-0.08437424927396207,123.31417229954822,-9.43224220503462,-37.6971540834803,9
1767366943.515626,2,right_wrist,0.934,-0.6739,-0.4846,86.1,126.91,-238.7,-0.329150938833674,0.6334517198135297,-0.4307046119642699,0.5521703680594424,-101.00136488926269,-24.583118806945933,-88.79000039857733,9
1767366944.421663,1,left_wrist,-0.0288,0.551,-0.1484,42.14,-11.9,-190.12,0.4394291375437654,0.8169930700673449,-0.11554824160160797,-0.35506754343681346,114.32438374612255,28.595631597274355,-34.78098134398737,10
1767366944.421663,2,right_wrist,0.0595,-0.6593,-0.2679,-34.72,-39.27,218.75,-0.5245259006606389,0.5210551788473325,-0.6130146431021989,0.27854465974921094,-108.34965030790585,20.65927413870947,-84.2803788695841,10
1767366944.472037,1,left_wrist,-0.0288,0.551,-0.1484,42.14,-11.9,-190.12,0.3957212652004483,0.8294150839475812,-0.058730431921636586,-0.3899051617440851,118.59292047771547,36.89172209543855,-30.50803834315796,10
1767366944.472037,2,right_wrist,-0.1039,-0.8638,-0.1952,-40.74,-24.92,186.27,-0.5420885338877651,0.4835266250392201,-0.6503759758358213,0.22215560843966592,-111.08692964813044,29.35940855644068,-86.36112580295719,10
1767366944.5659552,1,left_wrist,-0.2025,0.7379,-0.244,59.01,-27.51,-154.35,0.3495088429263598,0.8364399602767376,-0.020066191331924554,-0.4216741746111059,123.62383067382913,43.73973577133221,-27.028789712392978,10
1767366944.5659552,2,right_wrist,-0.4851,-0.0893,-0.2518,-27.86,-15.05,83.23,-0.5604067366404079,0.42392993906005355,-0.6997669398408429,0.12866206201662606,-117.34140982233376,42.47130003525537,-90.96754365656179,10
1767366944.6192698,1,left_wrist,-0.6188,-0.1137,-0.2547,21.84,0.42,-12.32,0.2898452780815817,0.8446273941371119,0.01522546519016439,-0.4498471574398416,131.91547512304098,50.240206570995305,-21.562513587582963,10
1767366944.6192698,2,right_wrist,-0.4851,-0.0893,-0.2518,-27.86,-15.05,83.23,-0.5635039704320653,0.4039723772237396,-0.7145946945235742,0.09286558192494297,-120.59529001851155,46.913532418147625,-93.2342287690676,10
1767366944.708431,1,left_wrist,-0.6188,-0.1137,-0.2547,21.84,0.42,-12.32,0.27591458243693084,0.8474381222395818,0.017986731706764836,-0.4532066301988689,134.07204332481518,51.08281399418285,-20.461864913861994,10
1767366944.708431,2,right_wrist,-0.4324,-0.0615,-0.1513,20.79,14.21,-92.96,-0.5547953121444601,0.43847052448410645,-0.6963003020134633,0.12292945211430613,-118.30258645427384,41.6674749602416,-89.99167975086743,10
1767366944.7607832,1,left_wrist,-0.4626,0.0571,-0.1391,15.4,19.81,120.54,0.2912344164764198,0.8523197793184061,-0.02517374383308229,-0.4337047279701815,131.22756687907557,46.43951649292806,-25.39483663814462,10
1767366944.7607832,2,right_wrist,-0.2064,-0.121,-0.1176,38.71,38.57,-169.12,-0.5391054304073862,0.475610066289247,-0.6717716169757704,0.17855893809990006,-115.24770787170675,33.67370774787998,-87.68062590891509,10
1767366944.81125,1,left_wrist,-0.081,-0.0166,-0.102,-41.23,53.06,210.35,0.34131500157678724,0.8530567533257682,-0.08674019351963946,-0.3850641298954144,125.93314579063357,36.70904089055613,-30.829104216533757,10
1767366944.81125,2,right_wrist,-0.2064,-0.121,-0.1176,38.71,38.57,-169.12,-0.5212573057448815,0.5100473670669787,-0.6433314104876403,0.23295321598040494,-112.71397328057225,25.661152940362363,-85.94656618865815,10
1767366944.870751,1,left_wrist,0.2103,0.08,-0.0659,-44.45,112.84,303.94,0.4525012971464324,0.8268891551749702,-0.23404577060931697,-0.23815851526811088,119.02252344068647,10.489151887962223,-37.794756085704506,10
1767366944.870751,2,right_wrist,-0.0332,-0.1825,-0.2206,15.4,66.01,-254.73,-0.4734582367622769,0.5695436321439752,-0.5974465248496096,0.3074329180021696,-111.80035893158959,12.447153210370953,-84.2941009412755,10
1767366944.960115,1,left_wrist,0.9013,0.8789,-0.3216,75.04,129.36,340.69,0.469318823527633,0.8085860147927713,-0.33681984112987784,-0.11171791792468524,122.64908546989066,-7.78664815088519,-40.96541114838547,10
1767366944.960115,2,right_wrist,0.8384,-0.9872,-0.3982,-73.29,160.23,-307.93,-0.2965329324629966,0.6676606541522818,-0.47919194776578566,0.4864900287346861,-112.13899636815891,-21.433931982595052,-85.84739551773116,10
1767366945.771698,1,left_wrist,0.0425,0.246,-0.1259,40.32,-25.55,-224.91,0.4521753303075233,0.8041596099521657,-0.20766151098938207,-0.32517916482528464,113.7595935318711,19.584279223601406,-41.807243337375475,11
1767366945.771698,2,right_wrist,0.0644,-0.5817,-0.0795,34.72,-33.39,216.86,-0.47779551440872114,0.5554611706432703,-0.6195788525152537,0.28159612894071295,-113.62641228285084,16.214406975097702,-85.60096247151063,11
1767366945.824525,1,left_wrist,-0.1674,0.3928,-0.162,38.85,-5.88,-161.28,0.414211994362221,0.8222777810246024,-0.15507678944306183,-0.3581045433051078,116.81029895384941,27.416373997528275,-38.42569673982812,11
1767366945.824525,2,right_wrist,0.0644,-0.5817,-0.0795,34.72,-33.39,216.86,-0.5196315960640913,0.49202903130432035,-0.6560549258114242,0.2397548144337956,-112.67084541882366,26.479723683814775,-88.44951939422367,11
1767366945.9093828,1,left_wrist,-0.1674,0.3928,-0.162,38.85,-5.88,-161.28,0.37714529194348223,0.8360257422752462,-0.10612076798067571,-0.38413639455430526,120.55498902206887,34.211538833918524,-34.39836951196434,11
1767366945.9093828,2,right_wrist,-0.3348,-0.1708,-0.2557,0.7,-12.18,112.0,-0.5451341136845717,0.41535718689047535,-0.7089370808525071,0.1664794905929648,-116.94819934899228,39.3928937903186,-94.49853176223718,11
1767366945.968928,1,left_wrist,-0.5183,0.2928,-0.2938,-19.18,12.53,-24.85,0.3499017946533347,0.8435466794406438,-0.05945575379794727,-0.40306667816052144,123.98206849344925,39.67289507018763,-29.78741113448354,11
1767366945.968928,2,right_wrist,-0.4568,-0.3421,-0.2738,-75.32,-4.2,59.92,-0.5357002009524577,0.4132607135203001,-0.7258021636051439,0.12430646268911676,-122.37668489186045,42.44504766103947,-96.57395406541877,11
1767366946.0223732,1,left_wrist,-0.3684,0.1893,-0.2523,-4.41,12.74,87.5,0.36301346303637155,0.8436027889717808,-0.0865574600489447,-0.38608725206000927,122.8313680840159,36.05527899640181,-31.827756579387557,11
1767366946.0223732,2,right_wrist,-0.4602,0.0312,-0.2762,-0.14,6.72,-68.53,-0.5290809604577623,0.4327964467197151,-0.716854165149325,0.13740698270446364,-121.5647616230133,39.762690114315554,-94.88961214238957,11
1767366946.1080692,1,left_wrist,-0.3684,0.1893,-0.2523,-4.41,12.74,87.5,0.375724601569579,0.8424301535834307,-0.11356329185723574,-0.36911493989179966,121.83960817994816,32.45045218755537,-33.740876004669495,11
1767366946.1080692,2,right_wrist,-0.305,-0.2699,-0.1737,40.18,20.58,-149.17,-0.5146366502038527,0.4842662063866895,-0.6796595712068464,0.19671864905424521,-117.15918212296089,30.599044552766482,-90.08458534081075,11
1767366946.1644301,1,left_wrist,0.0771,0.1093,-0.1405,-73.57,65.17,245.84,0.46692595350350974,0.8103770366376791,-0.23358710942639294,-0.2659065150480417,115.62352293887264,12.288442733722958,-39.91158036408047,11
1767366946.1644301,2,right_wrist,-0.0322,0.2874,-0.1484,22.26,31.29,-223.72,-0.4873196078141869,0.5404854518649865,-0.6357906109770362,0.25722631116504313,-114.69864834687787,19.975134839560344,-86.38798196224201,11
1767366946.21853,1,left_wrist,0.3914,0.2318,-0.0644,-92.75,126.63,301.21,0.5430684894035559,0.766011081860596,-0.3021251346625494,-0.1643899062863524,110.92504191157899,-4.375938177141861,-40.03740798311303,11
1767366946.21853,2,right_wrist,0.3455,-0.873,-0.0639,162.19,58.94,-291.41,-0.4705302138375178,0.5748432417747963,-0.5530265933381182,0.3772507817257623,-105.87841237097203,4.974439556123607,-84.0259002298774,11
1767366947.2106922,1,left_wrist,0.0874,0.3514,-0.1293,56.28,-47.46,-208.11,0.36275605422988144,0.8319175233421826,-0.1898715096343461,-0.3745264867869173,121.45838179548544,29.038434619018556,-42.2315797970186,12
1767366947.2106922,2,right_wrist,-0.0903,-0.2743,-0.1576,-83.86,-35.0,174.02,-0.561877748293117,0.5189545185292563,-0.6241284511269491,0.15950949866700606,-112.10292310060645,32.398957165551856,-78.3817715675781,12
1767366947.261088,1,left_wrist,-0.2098,0.3128,-0.2586,25.62,-32.06,-153.02,0.32260811502680453,0.8433613120763943,-0.1436594915367638,-0.40500327394112906,125.07529284406317,36.188007395605396,-38.60955789624253,12
1767366947.261088,2,right_wrist,-0.5051,-0.2567,-0.2196,-1.54,-18.69,64.89,-0.5711834834751819,0.5008064827450891,-0.6362050128698821,0.13485353775441936,-112.70223308069316,36.27834528223384,-78.9786864344598,12
1767366947.317943,1,left_wrist,-0.448,0.3963,-0.2928,44.38,-11.62,-71.54,0.27565437922961417,0.8488031791088169,-0.082597089367661,-0.4435375375030759,130.02724121475316,45.02503222931077,-32.98007251830384,12
1767366947.317943,2,right_wrist,-0.4958,-0.0512,-0.2103,26.88,-9.38,19.95,-0.5806880601695824,0.4873148552863894,-0.638801657875909,0.13136989947732625,-111.6375794348071,37.86855068465873,-79.09461598405284,12
1767366947.409085,1,left_wrist,-0.5358,0.1796,-0.3328,-23.8,-3.29,-17.15,0.2768984021197866,0.8468070424583063,-0.06960768836532588,-0.4487759769271981,129.86862121782735,46.17885967730256,-31.951046521417545,12
1767366947.409085,2,right_wrist,-0.548,-0.1142,-0.2435,-21.84,9.8,-50.89,-0.5591731305277658,0.5217628085247087,-0.6286457491299995,0.14104433287788642,-113.75529032851551,33.76998702529603,-78.21201036938932,12
1767366947.464633,1,left_wrist,-0.3323,0.001,-0.1518,84.56,30.59,177.73,0.28957702260728047,0.854545519862432,-0.16761631889571527,-0.397242837696035,129.44213336097906,35.58066196054441,-39.42843235332008,12
1767366947.464633,2,right_wrist,-0.0717,-0.4563,-0.1601,-11.76,56.98,-213.85,-0.523760915004665,0.5791390233147683,-0.5898587100670586,0.20576490892646876,-113.34885565249995,22.306238644793098,-76.27833627803709,12
1767366947.51902,1,left_wrist,0.244,0.6066,-0.3279,14.21,98.42,263.13,0.33693286014114726,0.8474028085849756,-0.2560246225310917,-0.3206807141335647,127.65226618252417,21.775159620204203,-44.42311528468838,12
1767366947.51902,2,right_wrist,0.2704,-0.284,-0.2313,140.56,87.29,-245.56,-0.5075753090987414,0.5995865658406356,-0.5294614944431453,0.32020896545659294,-106.4405968588563,8.82964775566196,-76.28555134543531,12
1767366947.571203,1,left_wrist,0.244,0.6066,-0.3279,14.21,98.42,263.13,0.3790617880141638,0.8266901030187399,-0.3402761058482543,-0.23897239637062276,127.16530521168569,7.882435564520424,-48.665878804555724,12
1767366947.571203,2,right_wrist,0.2704,-0.284,-0.2313,140.56,87.29,-245.56,-0.4822755427493787,0.6104186372407331,-0.45973417806384287,0.4283034831692608,-99.69860742679442,-4.55705339032143,-77.81502523574117,12
1767366948.515497,1,left_wrist,0.1596,0.5022,-0.1972,26.74,-40.32,-231.98,0.35376356029637174,0.843579582966922,-0.13435309683839128,-0.3810171596893285,123.30238164597637,33.21471678098735,-36.38185883097811,13
1767366948.515497,2,right_wrist,0.2259,-0.507,-0.2347,-29.26,-102.9,246.75,-0.49794933967256055,0.605565929540033,-0.5747624308223394,0.23448775706883399,-114.30630016481648,16.76276219445857,-76.14270196863785,13
1767366948.570614,1,left_wrist,-0.2684,0.5168,-0.2503,1.82,-1.4,-139.23,0.3328912744252772,0.8492434980717165,-0.0854455977688951,-0.40083404323528404,125.79050114863344,38.60319839454683,-31.816232993245993,13
1767366948.570614,2,right_wrist,-0.0273,-0.5144,-0.1991,-57.68,-46.41,187.18,-0.5103889355990003,0.5755246533087588,-0.6158722316670526,0.17022309512342002,-117.8428806493618,25.641164861363563,-78.25886106199324,13
1767366948.6232378,1,left_wrist,-0.2684,0.5168,-0.2503,1.82,-1.4,-139.23,0.3107743929097696,0.8524052014128778,-0.03658100590760573,-0.4189110637386212,129.1241432413109,43.74317941821884,-26.533980954438665,13
1767366948.6232378,2,right_wrist,-0.2479,-0.3811,-0.3416,-67.06,-4.9,123.06,-0.5002139629812229,0.5576394372813761,-0.651204946116881,0.12147578927523078,-123.2819129883641,31.064602904849036,-81.78800115687605,13
1767366948.711141,1,left_wrist,-0.5231,0.1635,-0.2298,33.18,-12.6,-21.91,0.2912691086471294,0.8545197576128495,-0.03376351035726387,-0.42874038247585056,131.29593854518086,45.484901376069075,-26.010916034953826,13
1767366948.711141,2,right_wrist,-0.5104,-0.2089,-0.2308,5.81,-20.58,20.79,-0.5086113631689451,0.5319719407878226,-0.6731524169462935,0.07201499169776002,-126.50558739210507,37.45412551372341,-83.97239240350456,13
1767366948.7682948,1,left_wrist,-0.4275,0.324,-0.2855,-33.32,0.0,45.78,0.29631062907424827,0.8512402026980918,-0.04430229614274766,-0.4308450243006353,129.8645263256243,45.011665070993644,-27.894748959525142,13
1767366948.7682948,2,right_wrist,-0.4978,-0.1005,-0.1703,49.7,7.84,-44.94,-0.5173694701217477,0.5317743478494152,-0.6637332034371658,0.09488471431325936,-123.44586933996507,35.86490499937011,-82.84702249227635,13
1767366948.860201,1,left_wrist,-0.4172,0.1435,-0.1732,16.38,17.57,115.36,0.30935592238963394,0.8530140069307797,-0.08560003196583914,-0.4115077785289141,128.15074163435455,40.47242765900467,-31.78013466827772,13
1767366948.860201,2,right_wrist,-0.0966,-0.5363,-0.266,42.56,64.4,-225.4,-0.49845610540097024,0.5908525317674831,-0.5953493109176426,0.2190753173735922,-115.59453810418802,19.549954034537585,-78.04942427485825,13
1767366948.9192488,1,left_wrist,-0.0195,0.1352,-0.0976,-28.84,73.08,260.75,0.4199297761030833,0.8294852835778022,-0.21977089285077633,-0.2954892589002858,119.76508637652837,17.796148435318667,-40.05758291811969,13
1767366948.9192488,2,right_wrist,-0.0966,-0.5363,-0.266,42.56,64.4,-225.4,-0.46590053564824424,0.6325662367933282,-0.5425920373471497,0.2973054455594037,-113.10356281949429,7.43821948500196,-76.32607518831217,13
1767366949.910114,1,left_wrist,0.5544,0.8496,-0.185,18.62,-46.76,-291.41,0.43681865199761105,0.7551249630098172,-0.2681214576800003,-0.40876232634376164,107.91937724124948,22.52536294158086,-55.58625724421312,14
1767366949.910114,2,right_wrist,0.2181,-0.7154,-0.2479,-3.08,-75.81,244.23,-0.5894871428493736,0.5611166683634173,-0.5435687815782627,0.20539224083091304,-104.00149604728543,24.227174755887596,-69.1419943465413,14
1767366949.97203,1,left_wrist,-0.0537,0.3865,-0.0888,30.94,-19.88,-206.71,0.31761785718387237,0.7995224405221264,-0.1415357780523006,-0.48974522706260065,116.22929126333621,43.88522677199198,-48.2165687287567,14
1767366949.97203,2,right_wrist,-0.0781,-0.5124,-0.1806,-43.05,-47.32,210.21,-0.6038250403538661,0.5272394000188951,-0.5831306302112991,0.13180517371765252,-106.62695988934551,34.41840274350685,-69.77597570012027,14
1767366950.061604,1,left_wrist,-0.3723,0.5841,-0.1586,-77.42,-3.71,-176.26,0.3092321208127172,0.7949391730298897,-0.06588850083128096,-0.5177894476507128,115.95619100756879,51.48752045807925,-43.040116692269926,14
1767366950.061604,2,right_wrist,-0.4782,-0.692,-0.1684,8.75,27.02,122.5,-0.6031715492656851,0.46462257977171806,-0.6471550466575481,0.038733526929181035,-113.80383336694715,48.1331729949406,-76.18386358132203,14
1767366950.1145291,1,left_wrist,-0.6227,0.4207,-0.2987,13.09,-3.5,-43.47,0.2770637416113637,0.8031214261433115,-0.04271944469645945,-0.5257439557414535,120.93688428033234,55.16500258795915,-39.060650550368926,14
1767366950.1145291,2,right_wrist,-0.4426,0.2479,-0.3528,74.76,-1.89,56.84,-0.617514589363783,0.42738084347745886,-0.6590398668271248,0.041082849023162164,-111.90187245767527,51.15242666852412,-78.22920481298408,14
1767366950.169827,1,left_wrist,-0.5695,0.0791,-0.1869,26.04,6.51,15.82,0.26796924798564037,0.8078569516789678,-0.05054905914962194,-0.5224982491617215,122.57517427264038,54.79717727490973,-38.86122012554243,14
1767366950.169827,2,right_wrist,-0.5026,-0.0063,-0.1859,-78.33,-1.82,-19.53,-0.6018454760707602,0.4518435329012226,-0.6582047402218527,0.01964598325320654,-115.74846095023548,50.76164935782044,-77.88449797774378,14
1767366950.219844,1,left_wrist,-0.467,0.0761,-0.2377,-26.46,12.11,97.93,0.2956467006909281,0.806195399646993,-0.07505924401134714,-0.5069596787191653,119.37496799810752,50.62722476007454,-41.55367823059803,14
1767366950.219844,2,right_wrist,-0.4558,-0.3558,-0.2386,73.64,16.8,-84.77,-0.6070903589860619,0.4578144800290074,-0.6460610289430191,0.06672589289797026,-111.5812887444773,46.33082081893374,-76.91666614362015,14
1767366950.3111181,1,left_wrist,-0.1205,0.3723,-0.1293,-38.78,66.85,236.81,0.3647341004358213,0.803098642709766,-0.14314462294356192,-0.44890001445683775,114.85546268143457,38.068455772884334,-45.071016861404736,14
1767366950.3111181,2,right_wrist,-0.0483,-0.1859,-0.2103,44.31,60.55,-258.79,-0.5669865991960619,0.5561730396336589,-0.5646346836224209,0.2244669694350363,-106.16454006220661,22.99156723088032,-73.49021904095301,14
1767366950.364707,1,left_wrist,-0.1205,0.3723,-0.1293,-38.78,66.85,236.81,0.42923049558318854,0.7896895219249559,-0.2094000441026528,-0.3851016257472203,111.75646029802616,25.36984646093018,-47.04596509928823,14
1767366950.364707,2,right_wrist,-0.0483,-0.1859,-0.2103,44.31,60.55,-258.79,-0.5304888765469055,0.600946055296446,-0.5105451178604294,0.31110942305324535,-104.30517757048007,9.657434783559973,-73.18946798478622,14
1767366950.420413,1,left_wrist,0.4939,1.2644,-0.2567,21.84,69.58,291.13,0.5269005749465521,0.7340496364091393,-0.3721723914562605,-0.21221363397843068,110.8450164147316,-4.625642017939523,-50.581917722428344,14
1767366950.420413,2,right_wrist,0.6778,-1.1366,-0.1523,136.01,155.4,-296.52,-0.4834709498086861,0.6080114193574871,-0.4421544232943111,0.4484165703709621,-97.54298724925314,-6.762102135196346,-77.9776601349994,14
1767366951.3668978,1,left_wrist,0.1176,0.693,-0.1196,17.71,-27.37,-243.6,0.4353130006921275,0.7959258411366182,-0.1357278985417381,-0.3982242890593516,110.77175043938944,31.047316119017413,-41.061169861243265,15
1767366951.3668978,2,right_wrist,-0.1591,-0.7203,-0.2347,-90.23,-16.31,188.44,-0.5810850886545303,0.6107002879876737,-0.5196270750093956,0.13918685610469403,-108.5036179476138,25.714822735168365,-62.12581882682708,15
1767366951.418504,1,left_wrist,-0.2176,0.5773,-0.2484,52.85,-18.69,-140.42,0.39209756951206265,0.8100937927360639,-0.10234254059244541,-0.4237139923796662,114.78961901171697,37.31809738081039,-38.77798460345963,15
1767366951.418504,2,right_wrist,-0.3148,-0.3499,-0.2621,-31.85,-22.4,146.79,-0.583278257271314,0.5856870934980021,-0.5562680194202008,0.08557449196301734,-111.39100027658569,33.27638811872511,-64.00054825719621,15
1767366951.511852,1,left_wrist,-0.2176,0.5773,-0.2484,52.85,-18.69,-140.42,0.3483644394323857,0.8206043099564134,-0.06842070457293299,-0.44784974154917373,119.36257677948423,43.420243286697115,-35.74643742919817,15
1767366951.511852,2,right_wrist,-0.4558,-0.1527,-0.2069,-17.15,-0.42,18.34,-0.5773128438862339,0.5565999311621188,-0.5970901294424097,0.019742700847653765,-116.53200107053841,41.869637309467514,-67.39868345321638,15
1767366951.568662,1,left_wrist,-0.468,0.0366,-0.2508,35.21,-0.42,-6.16,0.32170209360346047,0.8233914398806012,-0.03691658147988173,-0.4660165938186539,122.44576545055513,48.04549151310632,-32.644834519104386,15
1767366951.568662,2,right_wrist,-0.4094,0.1327,-0.2489,36.33,7.49,-50.96,-0.5821625769568867,0.5594462202913725,-0.5886269402062451,0.040311113306974906,-114.53031302450118,39.810415623274864,-66.70474111854028,15
1767366951.660127,1,left_wrist,-0.4021,0.1981,-0.2972,-2.24,12.32,75.81,0.3345560599591664,0.8260043140644092,-0.06054365953883064,-0.44958156232348984,121.48962056495095,44.60394878181183,-34.263104171349354,15
1767366951.660127,2,right_wrist,-0.1664,-0.4451,-0.1264,121.8,44.03,-196.77,-0.596789986039546,0.5779532375384095,-0.5343136227245523,0.15595101908212816,-105.5941998744753,27.224695968937244,-64.67422485784115,15
1767366951.7178729,1,left_wrist,0.1342,0.854,-0.2001,-27.02,60.9,247.52,0.4266048864393833,0.813219125132213,-0.20838349141537335,-0.3365401103743475,116.14840046679745,21.68890794398704,-42.358065693163525,15
1767366951.7178729,2,right_wrist,-0.0151,-0.2128,-0.2752,32.69,67.97,-240.59,-0.5657478643075724,0.6196244068490353,-0.48720723813745437,0.24212404997206635,-104.51591812896119,14.549774493802655,-65.06886628165613,15
1767366951.8082,1,left_wrist,0.1342,0.854,-0.2001,-27.02,60.9,247.52,0.47780183924053776,0.7881868861421707,-0.2812387423442894,-0.2671546457325241,113.9163249850106,8.765038641714066,-44.98216843675101,15
1767366951.8082,2,right_wrist,0.3109,-0.9028,-0.2801,45.99,77.42,-270.76,-0.4785110305659727,0.6789588988604537,-0.3512388797467839,0.4320570062377361,-100.03597831651439,-14.510329526610358,-66.89398719912286,15
1767366952.7671108,1,left_wrist,0.2294,0.7847,-0.1064,0.98,-37.66,-256.76,0.4660149593137549,0.7714446429244828,-0.15923478703602517,-0.40292369401228834,105.87480763797541,28.2457981562885,-44.84478293459198,16
1767366952.7671108,2,right_wrist,0.344,-0.8052,-0.304,-14.77,-120.54,247.52,-0.5900350277521553,0.6717553427007217,-0.40899129033244225,0.18256382448544747,-104.12465660861437,13.73089121967912,-51.94560343467546,16
1767366952.861225,1,left_wrist,-0.0049,0.5017,-0.142,29.68,-18.83,-210.7,0.41812873126851097,0.7855339150986935,-0.09994015805320779,-0.4451031308874426,108.81282011169242,38.00363786833816,-42.193796272022794,16
1767366952.861225,2,right_wrist,-0.1815,-0.3518,-0.2064,-106.26,-39.27,112.49,-0.5741382915510843,0.6663341876071708,-0.473881334575801,0.042431749213902116,-112.7147629308723,29.182918158389832,-51.1827657335088,16
1767366952.916031,1,left_wrist,-0.3538,0.2245,-0.2098,45.01,-16.38,-102.83,0.3252786304783293,0.8046088241386703,-0.034598330638411,-0.49558188847996054,118.05050587623414,50.80420989166219,-36.74502494385393,16
1767366952.916031,2,right_wrist,-0.1815,-0.3518,-0.2064,-106.26,-39.27,112.49,-0.5491158760558819,0.6710130341475966,-0.4978911515418727,-0.017823127776171017,-118.8572133927388,34.80037721409575,-52.1745957138249,16
1767366952.9687822,1,left_wrist,-0.4743,0.2523,-0.2611,10.92,-20.79,-55.23,0.3058673678478301,0.8042119053730646,-0.019074603230951344,-0.5092391619402881,119.91499730026007,53.84304531579888,-35.45051492967101,16
1767366952.9687822,2,right_wrist,-0.4294,-0.2933,-0.2308,9.94,-16.1,61.32,-0.5542185844264084,0.6534239354873315,-0.5141437820578661,-0.03918025752683394,-119.2219397141359,38.396412878450285,-53.31239952285159,16
1767366953.019017,1,left_wrist,-0.631,0.243,-0.1923,23.87,-15.61,3.57,0.29492108132328815,0.8036380796874081,-0.024813501607577407,-0.516305803575176,120.3796350731645,54.60812750726816,-36.49018250825948,16
1767366953.019017,2,right_wrist,-0.6105,0.1122,-0.2606,-2.87,0.42,-56.35,-0.553095999386845,0.6655649628954,-0.5002305760571715,-0.029622059446000625,-118.67246240830647,36.35466769380257,-51.8234855002671,16
1767366953.1101649,1,left_wrist,-0.591,0.1322,-0.0932,-15.89,11.27,62.93,0.3125864106939836,0.8023196782503905,-0.03946637521883755,-0.5069667395093372,118.21174926444462,52.075885623585414,-38.22214551835661,16
1767366953.1101649,2,right_wrist,-0.203,-0.0571,-0.1322,73.92,57.19,-174.86,-0.5593349282594864,0.694346214760079,-0.4499489690366334,0.05073162071308615,-114.17341342095034,25.651344252622632,-49.12256189897608,16
1767366953.1612349,1,left_wrist,-0.4519,-0.1186,-0.1181,-5.81,46.62,145.6,0.34384840754750734,0.8080771811110091,-0.0800832022496897,-0.4715572316401942,116.79580324688486,44.99429042192197,-39.91020712795216,16
1767366953.1612349,2,right_wrist,-0.0493,-0.8516,-0.1708,23.73,71.89,-239.19,-0.5444701115230474,0.7298652953234895,-0.38952224429981636,0.13828004026637347,-112.23025134567533,12.845030853247671,-47.530393957396605,16
1767366953.215026,1,left_wrist,0.3084,0.347,-0.0854,-96.25,111.23,279.93,0.47597828746155574,0.7866331832612198,-0.22137494909184566,-0.3250323626534251,110.60197377016148,17.495034544600472,-43.598227986025464,16
1767366953.215026,2,right_wrist,-0.0493,-0.8516,-0.1708,23.73,71.89,-239.19,-0.5235960993691764,0.7552615941843578,-0.3246526827650831,0.2236686939402117,-110.5876373802138,0.12129571318011224,-46.437340322681216,16
1767366953.2665431,1,left_wrist,0.4358,0.7871,-0.2606,89.67,105.07,311.15,0.49562457417922784,0.7804683042560201,-0.3181052571229093,-0.20984411574347112,114.87720586751188,0.7008478287864375,-44.79745203700721,16
1767366953.2665431,2,right_wrist,0.2977,-0.7759,-0.3426,59.08,107.8,-266.91,-0.49519296402199414,0.7638578557415654,-0.25092254642218553,0.32915494877339485,-107.62833671961084,-14.73477844466459,-47.176345377527646,16
1767366953.318627,1,left_wrist,1.0775,1.4796,-0.3758,143.08,84.56,295.33,0.48223511621353926,0.7680880196977844,-0.41086405617065885,-0.09317088619436764,122.34124683237489,-14.663356020523455,-48.18439338240704,16
1767366953.318627,2,right_wrist,0.5124,-0.8608,-0.3323,90.44,125.93,-248.85,-0.4690817458106186,0.7482483830096613,-0.17796113382969678,0.4340697039839781,-102.06670047535994,-28.85713418059027,-50.2679132092237,16
1767366954.120849,1,left_wrist,0.2264,0.4455,-0.122,-37.94,-69.16,-271.46,0.35234506092253853,0.7903768328455408,-0.15003604618715088,-0.47817005864971496,112.79777666634115,40.55216966972435,-49.079672568072674,17
1767366954.120849,2,right_wrist,0.0512,-0.6178,-0.1405,-24.43,-75.88,213.71,-0.5339350003583688,0.7243408645360015,-0.4252633083670688,0.0969270133257063,-115.65109774264391,18.28292724043443,-49.2735124765621,17
1767366954.1750138,1,left_wrist,0.0449,0.2455,-0.2103,64.05,-45.99,-212.31,0.28273353569610454,0.8022689750512364,-0.0994301266880307,-0.5162750133115299,118.89500896059793,50.54810791447352,-45.275975135961644,17
1767366954.1750138,2,right_wrist,0.0512,-0.6178,-0.1405,-24.43,-75.88,213.71,-0.5475468199372097,0.6906768230682819,-0.4718951542092681,0.02174786165960866,-117.21028515350598,29.12574147739185,-50.66678191418875,17
1767366954.2603378,1,left_wrist,-0.0903,0.6266,-0.2664,-7.35,-29.75,-176.26,0.24643116739088605,0.8005188649851624,-0.04236357205839663,-0.5446526914499602,122.9140676313969,58.3347988117459,-39.833507649896085,17
1767366954.2603378,2,right_wrist,-0.4324,-0.2386,-0.2323,11.13,-7.98,55.65,-0.5636400599978237,0.6318005834919871,-0.5293371466479267,-0.05422260269911031,-118.71618125113862,41.69974151388934,-54.48610053170879,17
1767366954.3113558,1,left_wrist,-0.4382,-0.0473,-0.2743,-15.68,-18.41,-100.31,0.22355260177399386,0.797126442569533,-0.003203088010071329,-0.5608951854167752,126.95609912427199,63.22426034344421,-34.61117670454581,17
1767366954.3113558,2,right_wrist,-0.4616,-0.0859,-0.2669,-23.45,-2.73,-6.23,-0.555963740597328,0.6380472897780336,-0.5290512369149586,-0.06248810980246696,-120.17100374053499,41.91345659693805,-54.47472300169223,17
1767366954.370759,1,left_wrist,-0.6105,0.0278,-0.2562,15.4,3.5,21.7,0.21466342901648433,0.7992933536190842,0.0023221312773571297,-0.5612881210301651,129.20036611855187,63.9308967696064,-32.67718279857947,17
1767366954.370759,2,right_wrist,-0.4616,-0.0859,-0.2669,-23.45,-2.73,-6.23,-0.5482603870236161,0.6441684136160445,-0.528624147301789,-0.07081040749466049,-121.61999627511986,42.134634840738585,-54.45703033440727,17
1767366954.4216151,1,left_wrist,-0.3689,0.0234,-0.0766,3.57,30.94,160.93,0.2492194504307752,0.8049497976977135,-0.04905003808737914,-0.5362271743179554,123.52824122255032,57.01608806368256,-39.494393814710925,17
1767366954.4216151,2,right_wrist,-0.487,-0.0571,-0.2162,23.59,7.7,-77.84,-0.5541339631573294,0.6550701742226361,-0.511348528985487,-0.04838697783345316,-119.39973068136598,39.05786272292317,-52.53222723713543,17
1767366954.5067992,1,left_wrist,-0.0556,0.2035,-0.1059,-3.36,64.12,245.07,0.30989026683607335,0.809824519637129,-0.1293598705118798,-0.4810595532945066,118.85251125353454,44.344658700868195,-45.22510408951053,17
1767366954.5067992,2,right_wrist,0.0332,0.0805,-0.1557,120.96,68.11,-213.57,-0.5811590758230445,0.6823339165191581,-0.418713981869056,0.1461271923479372,-107.10969910624969,16.69421337946054,-50.702623203650774,17
1767366954.5599208,1,left_wrist,-0.0556,0.2035,-0.1059,-3.36,64.12,245.07,0.3662844039373541,0.8041203703285181,-0.20804294169485324,-0.419457149022324,116.44373039018342,31.478750452331568,-48.81830391258561,17
1767366954.5599208,2,right_wrist,0.1137,-0.9565,-0.1713,-9.73,75.81,-270.34,-0.5425939495479469,0.7245378255612287,-0.35254785731615373,0.23737471126207904,-107.38030735029704,2.2125539445170004,-50.26758161735753,17
1767366954.6158972,1,left_wrist,0.5461,0.7828,-0.263,12.25,163.03,315.98,0.4862779793891528,0.7696318807512691,-0.3721547691870497,-0.1808350703370362,117.59936043163333,-4.794861154802512,-48.70710880175885,17
1767366954.6158972,2,right_wrist,0.4119,-1.5367,-0.2396,9.24,92.05,-286.93,-0.4970709713475341,0.7501823260729135,-0.27742645699960045,0.3364245651674398,-106.68468562015524,-13.23574726464747,-50.459975761533535,17
1767366955.5223858,1,left_wrist,0.2782,0.8111,-0.1425,3.71,-37.1,-253.26,0.41228862242543235,0.773782966612185,-0.1985453738802336,-0.43801569253868483,108.79377606358966,30.940133431686995,-51.19976292928512,18
1767366955.5223858,2,right_wrist,0.2255,-0.7588,-0.2826,-41.3,-87.08,245.84,-0.6192799534100019,0.717066631800964,-0.31962389975101846,0.012179801725713054,-104.55923059511262,22.23497463720435,-30.7640794337426,18
1767366955.610263,1,left_wrist,0.0063,0.7344,-0.1391,46.27,-21.77,-201.6,0.35766883523513354,0.7915846259430938,-0.1451625599392448,-0.47370308787674215,112.76648210555774,40.24909437342949,-48.16571269978442,18
1767366955.610263,2,right_wrist,-0.2762,-0.4895,-0.1649,-1.89,-34.09,171.15,-0.6181344960905075,0.6650551413844562,-0.4063417556920854,-0.10245868065766084,-106.21055754541838,39.68966756792542,-32.531159732128074,18
1767366955.668256,1,left_wrist,-0.4016,0.1972,-0.2503,-14.77,-1.61,-106.61,0.3098666355216574,0.8002598524126513,-0.05166433149994629,-0.5107813951756989,117.542816905262,51.76672202119449,-40.17418787537395,18
1767366955.668256,2,right_wrist,-0.3723,-0.1454,-0.2035,27.37,-13.79,100.94,-0.6206693577678062,0.6385198099327908,-0.435643300770205,-0.13144167963599807,-106.04249300131637,45.12413623200944,-33.86480172207972,18
1767366955.7611148,1,left_wrist,-0.551,0.4265,-0.2772,56.35,-18.41,15.4,0.2929220438083927,0.8051144245549344,-0.07319757201952204,-0.5105189076568448,119.34016035363466,51.184635700434455,-41.69687106974331,18
1767366955.7611148,2,right_wrist,-0.5456,-0.204,-0.2098,0.0,-0.21,-0.14,-0.6162668448698497,0.6373761135512346,-0.44160095477842226,-0.13767883834224418,-106.96191779032563,46.03751328110676,-34.50460775028109,18
1767366955.811327,1,left_wrist,-0.551,0.4265,-0.2772,56.35,-18.41,15.4,0.27610616871685884,0.8092478363707173,-0.09488066242331517,-0.5097852320575039,121.08761664568024,50.59614989298102,-43.26629874500651,18
1767366955.811327,2,right_wrist,-0.4353,-0.3206,-0.245,13.02,7.14,-117.53,-0.6217349204271659,0.6573699722956059,-0.413359790485265,-0.10219633973620547,-105.69893457912632,40.418220468931935,-33.15549797106904,18
1767366955.8681338,1,left_wrist,-0.4631,0.1532,-0.1557,53.83,12.18,124.81,0.286280922891224,0.8123912390653316,-0.19781626675578803,-0.46790216123164796,121.48339440741321,40.31408047609033,-50.611217908339434,18
1767366955.8681338,2,right_wrist,-0.305,-0.1591,-0.2103,30.38,23.94,-171.92,-0.6290619138072858,0.680128683999369,-0.37372844995543325,-0.04509021503952368,-103.97063275046963,32.10895445069157,-32.221656768049236,18
1767366955.9568052,1,left_wrist,-0.1957,0.3924,-0.1889,-42.49,37.17,194.6,0.34622236903742154,0.7939141707802717,-0.2550781489074114,-0.42984357452724287,116.93426268955793,30.390469517402543,-54.54680428167046,18
1767366955.9568052,2,right_wrist,-0.0659,-0.5158,-0.1718,-44.59,51.31,-242.41,-0.6054320432241329,0.7436666814045751,-0.2688140369204082,0.09028245433477773,-104.79215297339826,11.023824599553627,-31.245571448772928,18
1767366956.010048,1,left_wrist,0.0098,0.1035,-0.2225,18.06,59.43,253.05,0.39009599541411477,0.7765290803718735,-0.33646345471730593,-0.36279477027429524,116.96390131108635,17.51378722562028,-57.64579387916457,18
1767366956.010048,2,right_wrist,0.5768,-0.6037,-0.3245,-30.38,132.93,-284.76,-0.5614824338276772,0.7737721117336087,-0.20817917184100526,0.20658080263628853,-106.56949790117666,-4.9286448162986485,-33.7938246287121,18
1767366956.0683572,1,left_wrist,0.6954,0.5876,-0.2679,-14.35,120.47,307.44,0.5169122444974622,0.6857873867910348,-0.48572258753079917,-0.16300601083795943,115.43343980676012,-16.17529238718957,-60.35768664628222,18
1767366956.0683572,2,right_wrist,0.5768,-0.6037,-0.3245,-30.38,132.93,-284.76,-0.5061249918985546,0.7885416812019178,-0.14325587159879635,0.3186177409301156,-107.74490338501339,-20.945268268593345,-35.962205268901016,18
1767366957.011209,1,left_wrist,-0.0146,0.1537,-0.1806,-37.45,-24.85,-219.17,0.347459442228233,0.7546726553857239,-0.24985609373781797,-0.4973057928896309,108.8521611574255,35.23816192077068,-62.23239495467019,19
1767366957.011209,2,right_wrist,-0.3133,-0.4036,-0.2137,23.1,-24.78,129.64,-0.6379055962012683,0.6984305359991391,-0.2951066423778548,-0.13484549063105056,-100.45820102254204,34.39262375963697,-16.921927522225204,19
1767366957.069895,1,left_wrist,-0.3777,0.6339,-0.123,17.99,-5.25,-121.66,0.25943108796569986,0.7840008340644219,-0.17855890597829616,-0.5349345005503553,116.11628352997737,48.256311931609694,-56.866176412549564,19
1767366957.069895,2,right_wrist,-0.3811,-0.2181,-0.2855,-25.9,-16.31,87.43,-0.6233015965718537,0.6941298723826802,-0.31803179254960073,-0.16892193139041997,-102.34913388675844,39.121499579224384,-17.317467323277704,19
1767366957.15906,1,left_wrist,-0.5373,0.4133,-0.2743,22.12,1.26,-16.1,0.24636952149945227,0.7901805979799488,-0.17808962952578816,-0.5321661068759915,118.33815072426398,48.87382091240423,-55.750119323193175,19
1767366957.15906,2,right_wrist,-0.4968,-0.2894,-0.2513,-47.18,-15.47,36.61,-0.5867550006751517,0.7075137722129576,-0.33004679013840504,-0.21496964351049505,-107.64899222456928,43.749057732068536,-17.295015482373984,19
1767366957.21003,1,left_wrist,-0.5373,0.4133,-0.2743,22.12,1.26,-16.1,0.2338762755955975,0.7961185041527544,-0.1780122935612553,-0.5289696006389913,120.55315832999423,49.37429502930218,-54.61867046639575,19
1767366957.21003,2,right_wrist,-0.4089,0.0537,-0.1981,19.67,10.57,-103.18,-0.5978661167728575,0.7176093715273555,-0.3055208811361686,-0.18506725129216398,-106.2123634610249,39.11900250293402,-16.25743550824838,19
1767366957.263669,1,left_wrist,-0.4582,0.3772,-0.1527,6.72,2.8,121.03,0.274418876978244,0.7815867949562594,-0.23234310210754405,-0.5097382120373602,116.34476104847347,42.012339990827066,-59.92277547808311,19
1767366957.263669,2,right_wrist,-0.4089,0.0537,-0.1981,19.67,10.57,-103.18,-0.6080157636055757,0.7264523498398235,-0.28031476785995635,-0.15494336235846287,-104.94569388796519,34.471034608545345,-15.394728130864882,19
1767366957.315192,1,left_wrist,-0.2372,-0.0483,-0.0961,-56.77,45.15,201.6,0.3383915720928993,0.7626386918209835,-0.2797496814086329,-0.4749878792409796,112.24203022857189,32.35465439806993,-62.33238853126977,19
1767366957.315192,2,right_wrist,-0.2294,0.0371,-0.1249,-1.12,35.07,-180.74,-0.6114151825065688,0.7493162398383207,-0.2345048217253168,-0.09850957264447384,-104.98747673768688,25.746438030572836,-14.858538000625424,19
1767366957.369154,1,left_wrist,0.65,1.0292,-0.0468,-8.61,90.58,318.85,0.41663300029785694,0.7321840392111676,-0.36884782949135475,-0.3927782510103405,110.93684519041402,15.53479795300042,-64.19855845626795,19
1767366957.369154,2,right_wrist,0.0908,-0.4377,-0.0488,62.86,61.67,-253.4,-0.6329026311899406,0.7560614181363411,-0.1667477257903773,-0.0007664086715059438,-101.74188926306581,12.253012505069083,-14.893788845305705,19
1767366957.420605,1,left_wrist,0.65,1.0292,-0.0468,-8.61,90.58,318.85,0.48611125970795016,0.6857378167151565,-0.449734742785367,-0.3019903161421899,110.18712055277133,-1.3219242968994274,-65.59455400243554,19
1767366957.420605,2,right_wrist,0.6315,-0.2904,-0.2586,186.76,139.16,-287.07,-0.6744991958193667,0.7170660184123907,-0.10662424082006568,0.13963678364518972,-92.93404372734643,-3.234440375601905,-19.98825791575773,19
1767366958.317843,1,left_wrist,0.4519,0.6895,-0.163,34.02,-58.87,-276.78,0.3717299184737337,0.7167439063579932,-0.37770144884989826,-0.4532512062277202,109.66360190229918,21.64928660169603,-70.92125612529334,20
1767366958.317843,2,right_wrist,0.4006,-0.8047,-0.303,6.3,-99.12,252.98,-0.7127775233611925,0.6938027045242108,-0.0828749176657022,-0.060973415583171695,-88.62256996650265,11.697806005929161,-1.643022909370274,20
1767366958.369042,1,left_wrist,0.1088,0.4831,-0.1742,8.12,-35.77,-231.98,0.31848953073842323,0.7447325801766456,-0.3136414832859665,-0.49554699352900317,111.29036429734725,32.56913794320855,-68.26171855701581,20
1767366958.369042,2,right_wrist,0.0932,-0.9111,-0.2245,-43.68,-58.24,227.71,-0.6902134333908113,0.6964493890262569,-0.1296166261050015,-0.14752354093153378,-90.22867450290879,22.607218576701577,1.4340073363674242,20
1767366958.459908,1,left_wrist,-0.1698,0.1874,-0.2303,26.81,-25.41,-167.65,0.2669524256017298,0.7660931088712093,-0.2682440795826899,-0.519502516619731,114.79534715662042,40.749850869114034,-65.31978437514753,20
1767366958.459908,2,right_wrist,-0.345,-0.4748,-0.222,-37.73,-21.84,81.83,-0.6639880329180737,0.6773539176436033,-0.18993157388759083,-0.2534512963767053,-89.26993814930576,36.55377900658585,5.663594018072114,20
1767366958.51101,1,left_wrist,-0.5202,0.2777,-0.2704,-26.25,-8.47,-73.22,0.25397277992810974,0.7710764451791101,-0.23652663497194423,-0.5338483808108659,115.04457701395154,44.6789222824582,-63.42348657900315,20
1767366958.51101,2,right_wrist,-0.5519,-0.0146,-0.1513,41.79,-15.82,27.65,-0.6721437160090585,0.6612344694363379,-0.20158821879089378,-0.26524326853568503,-86.76022309027424,38.445394514603954,6.59632764178872,20
1767366958.567899,1,left_wrist,-0.53,0.1352,-0.2782,30.24,-8.82,-30.52,0.20932234125990168,0.7830443201675232,-0.2274008276204106,-0.5397356887407082,119.90621113541077,48.59676966057463,-61.659818704367126,20
1767366958.567899,2,right_wrist,-0.5519,-0.0146,-0.1513,41.79,-15.82,27.65,-0.6798462761417465,0.6448011410589519,-0.21328665353272308,-0.2766755007767867,-84.16907606661583,40.301190899222455,7.6206676414491605,20
1767366958.618408,1,left_wrist,-0.5285,0.2962,-0.2396,7.07,-2.73,36.68,0.21126600396624545,0.7809549218623052,-0.23948100729964217,-0.5367727011779975,119.67226195041144,47.493626022550025,-62.78098194685057,20
1767366958.618408,2,right_wrist,-0.5539,0.0576,-0.182,-31.85,9.1,-40.11,-0.6722920797007021,0.6593190045634775,-0.20443376332815227,-0.26744839914387003,-86.53837934335853,38.86930383235227,6.6403791725371235,20
1767366958.671562,1,left_wrist,-0.2996,0.0898,-0.2401,0.49,45.5,159.18,0.24905095895088247,0.77556909772965,-0.2877160136978829,-0.5036722048656868,118.59552572628907,39.63937074507782,-64.86694880043343,20
1767366958.671562,2,right_wrist,-0.4153,-0.4665,-0.2025,80.22,14.35,-110.25,-0.7030871539292557,0.6487901224322062,-0.18719604551404848,-0.22292929721766966,-83.93556799558799,33.53861892665241,4.857184215794395,20
1767366958.761288,1,left_wrist,-0.2996,0.0898,-0.2401,0.49,45.5,159.18,0.28489954500046105,0.766167296593967,-0.334468142142398,-0.46898932267188703,117.93022277190732,31.8750721450601,-66.66603354934715,20
1767366958.761288,2,right_wrist,0.1503,-0.5441,-0.1523,239.05,65.1,-249.69,-0.7895073204253862,0.599819780349653,-0.1201920021629248,-0.04948034672562243,-74.94593337333602,14.426835468760427,-3.9110505583718336,20
1767366958.812368,1,left_wrist,0.3821,0.9965,-0.2396,-63.63,76.58,274.61,0.3734959876954635,0.726539115619058,-0.40246965752456787,-0.41310995560858127,113.45117405534984,17.435950696137315,-69.46149708066369,20
1767366958.812368,2,right_wrist,0.1401,-0.7169,-0.2494,-174.37,89.67,-269.15,-0.7348894965553922,0.6715335606299871,-0.07453085616479477,0.058525689056316554,-85.00796146797664,1.7730119674331382,-10.73162318247966,20
1767366958.876313,1,left_wrist,0.4743,0.6954,-0.1347,-48.72,106.47,277.27,0.5319398297040142,0.617297876724253,-0.5137204067652407,-0.26846730273750163,107.2702574112447,-12.420695957323506,-70.37302575068566,20
1767366958.876313,2,right_wrist,0.1401,-0.7169,-0.2494,-174.37,89.67,-269.15,-0.6643195586494542,0.7286142357875853,-0.027585603741285714,0.16443799399681416,-93.70529526240459,-11.71083180526363,-15.318011236125892,20
1767366959.761239,1,left_wrist,0.6847,0.772,-0.2001,21.0,-58.17,-280.56,0.40789452332386256,0.6904463856294654,-0.3746684808501959,-0.4653271707852581,104.40221444909844,19.68912053655733,-72.30442792399305,21
1767366959.761239,2,right_wrist,0.0249,-0.4548,-0.283,-68.18,-66.08,188.65,-0.5695558107160279,0.7757449356529611,-0.2214794662119481,-0.157393835123431,-110.33595339050562,29.767705812057542,-10.912809828659285,21
1767366959.819613,1,left_wrist,-0.0005,0.6212,-0.2308,28.14,-18.69,-205.31,0.30039064331986143,0.7482661083309877,-0.2700368058700101,-0.5262541363301585,109.90183566067911,38.70591410469443,-67.36957986332928,21
1767366959.819613,2,right_wrist,0.0249,-0.4548,-0.283,-68.18,-66.08,188.65,-0.5367418564136534,0.7690886553149894,-0.2611959701472364,-0.22844580324061636,-114.33705925998814,39.18155321924444,-11.650389580107653,21
1767366959.870909,1,left_wrist,-0.2747,0.3411,-0.2357,0.77,-4.06,-156.24,0.2620775573246937,0.7661412365298627,-0.22041975429723484,-0.543836456621622,112.91589909311224,45.87124328213415,-63.441272132426114,21
1767366959.870909,2,right_wrist,-0.2821,-0.5314,-0.2191,8.54,-34.93,154.28,-0.5281553131874989,0.7458121247821089,-0.3024226350699333,-0.27084458546769735,-115.33237860369215,46.340107725912446,-13.827956220816086,21
1767366959.961569,1,left_wrist,-0.429,0.0859,-0.2059,16.1,-14.77,-103.32,0.22649517431552885,0.7753333257543167,-0.18882536666581676,-0.5584829011617535,115.9525909940049,51.30497933451315,-60.811959645070324,21
1767366959.961569,2,right_wrist,-0.5348,-0.2499,-0.2948,40.6,-10.5,3.71,-0.5157341676900373,0.7378111164536365,-0.3178913637239975,-0.2976543390985587,-116.96030184772471,50.09598820629974,-14.633524292991742,21
1767366960.0221472,1,left_wrist,-0.5109,0.4397,-0.304,12.46,-3.43,9.24,0.22260143759062911,0.7780779060861517,-0.20494874868402438,-0.5504901292993616,117.26542204429619,49.94300420736773,-61.21208903485268,21
1767366960.0221472,2,right_wrist,-0.5348,-0.2499,-0.2948,40.6,-10.5,3.71,-0.5262358792157293,0.7276541265760449,-0.3244388890362264,-0.2972115051337025,-115.18834290357876,50.71419668651259,-14.576091952980729,21
1767366960.109401,1,left_wrist,-0.527,0.0986,-0.2557,-6.93,9.8,75.95,0.23995616283333568,0.774466796912221,-0.2256869375944722,-0.540081129644478,116.09689871384927,46.73903772504665,-62.659275544742385,21
1767366960.109401,2,right_wrist,-0.4348,-0.2313,-0.2006,-15.82,18.41,-111.72,-0.5392961131759285,0.750307411399768,-0.28412236372815564,-0.25587687105606205,-113.40647417852456,43.66374475124512,-11.997347492023023,21
1767366960.16489,1,left_wrist,-0.1747,0.3055,-0.1674,-5.11,45.36,196.7,0.2937176775844887,0.7625051897833734,-0.28776633911733374,-0.4995060515136968,114.06655102083683,36.349397686525364,-65.39306702718663,21
1767366960.16489,2,right_wrist,-0.183,-0.285,-0.1547,78.89,55.16,-183.68,-0.5756095344590499,0.7595954744019321,-0.24316910597125072,-0.1804360413251254,-109.08770666777838,33.64583686487505,-11.20021180817067,21
1767366960.215158,1,left_wrist,0.1615,0.7164,-0.2279,-61.95,55.86,246.68,0.4214261180911322,0.7031543664391379,-0.40638674459800755,-0.40351428445997767,109.11994328008977,12.99944909359085,-69.32287953500035,21
1767366960.215158,2,right_wrist,0.2342,-0.9409,-0.2518,21.91,97.79,-279.09,-0.5899716075952929,0.7855075685790032,-0.17274736609221508,-0.07120189214290906,-108.03258163597214,18.402553967320348,-11.389220997971671,21
1767366960.2720141,1,left_wrist,0.8691,1.2805,-0.5119,17.71,136.15,283.78,0.48752193294665136,0.672210224475741,-0.46941483218199115,-0.30017577239642096,110.17810879570837,-3.10337353296096,-67.68829288618092,21
1767366960.2720141,2,right_wrist,0.2342,-0.9409,-0.2518,21.91,97.79,-279.09,-0.5938986053386635,0.7974270693274979,-0.09920839437723349,0.039398098502838666,-106.9721239216255,3.1531591255667286,-11.848860173589271,21
1767366961.217547,1,left_wrist,0.0781,0.5348,-0.2108,33.74,-37.17,-221.06,0.316845271385476,0.7731890579060755,-0.31308784693747765,-0.45140198807164583,116.8833876364043,29.97601004418106,-62.76501108769229,22
1767366961.217547,2,right_wrist,-0.0205,-0.4509,-0.2377,-31.64,-66.5,208.32,-0.5331185951594564,0.8111395401514578,-0.1570731397812173,-0.1821132577748232,-114.33343583403885,27.57541625848546,-3.9227820270506895,22
1767366961.310254,1,left_wrist,-0.1113,0.5475,-0.2684,32.2,-27.79,-186.76,0.2673975080724293,0.7947355552488136,-0.2621497990126795,-0.47767295587842024,120.67445943453549,38.24686344706987,-58.85294096574975,22
1767366961.310254,2,right_wrist,-0.4143,-0.1723,-0.1098,-0.07,-9.59,94.43,-0.49572445399490883,0.7944048122136849,-0.2337941725695693,-0.261760472408842,-119.18037169175264,40.36710196658542,-8.447902702433254,22
1767366961.360298,1,left_wrist,-0.3387,0.2982,-0.2416,13.86,-25.48,-147.28,0.2248969529604851,0.8080469900566661,-0.21528542803146822,-0.5001335890407272,124.55233942262134,45.35128637347452,-54.605743317728304,22
1767366961.360298,2,right_wrist,-0.3855,0.2152,-0.3392,9.8,8.68,21.91,-0.4923125640833468,0.7916882018344595,-0.24690153987841182,-0.2643818449278804,-120.05174676846455,41.431291732995014,-10.033243478416443,22
1767366961.411026,1,left_wrist,-0.5314,0.182,-0.3231,0.49,-1.12,-4.9,0.21940542022464102,0.8099950310769548,-0.2116568249608176,-0.5009697592212502,125.29780457124787,45.94632476183288,-54.024897854945,22
1767366961.411026,2,right_wrist,-0.4309,-0.0303,-0.3216,0.42,4.41,-44.17,-0.4934194287048025,0.7974697726248533,-0.23531402432197954,-0.2553557108891165,-119.85066657359684,39.75409454358217,-9.230250700951784,22
1767366961.468006,1,left_wrist,-0.4773,0.2435,-0.2733,-20.37,20.16,61.53,0.23223432114095482,0.8101236580849652,-0.22120558854979955,-0.49074939255140326,124.6726944175613,43.81978188254863,-54.35582770947371,22
1767366961.468006,2,right_wrist,-0.4309,-0.0303,-0.3216,0.42,4.41,-44.17,-0.4944315407045203,0.8030070404573539,-0.22360009446870674,-0.246414574013108,-119.67240250934053,38.086843100427906,-8.433562013948386,22
1767366961.521033,1,left_wrist,-0.4724,0.1171,-0.2303,15.54,30.1,119.14,0.2509068051554287,0.8067027912611556,-0.26085220291873806,-0.4671536256207344,124.01136273150787,38.52155994502426,-56.883271439919454,22
1767366961.521033,2,right_wrist,-0.4372,-0.0874,-0.1191,30.17,19.11,-110.74,-0.513275724026085,0.8075884623213733,-0.1941333908324425,-0.21601188211484162,-117.00582135161632,33.242607259947064,-6.302440914728764,22
1767366961.6110988,1,left_wrist,-0.1396,0.0825,-0.1976,-35.49,58.24,201.6,0.30679662516722206,0.7908539005169023,-0.3166009063095985,-0.42448769705039197,120.90464537022828,28.499515098831925,-60.01975604329639,22
1767366961.6110988,2,right_wrist,-0.0205,-0.3074,-0.2957,33.6,86.31,-243.6,-0.5485224501440007,0.829657712370055,-0.08467518876485244,-0.06017735787275591,-113.48291115440391,11.1130637826104,-4.353451454563561,22
1767366961.66704,1,left_wrist,0.7447,0.9599,-0.3963,35.42,142.52,295.12,0.4410155396619775,0.7251986460821256,-0.47312315379532677,-0.23610738836400338,120.06106712537655,-4.293167322343566,-63.76486779892265,22
1767366961.66704,2,right_wrist,0.3006,-1.1702,-0.3621,63.07,104.02,-268.45,-0.5705835755111948,0.8197866633940162,-0.011296962662022878,0.047503563158771744,-110.18699773248872,-3.726500163776129,-4.179755573803783,22
1767366961.720652,1,left_wrist,1.2537,1.24,-0.4382,12.81,122.57,237.58,0.4856669368068718,0.6846820856745118,-0.5237225817381443,-0.14509557342166998,120.753383024003,-18.060484261776526,-64.49838773252142,22
1767366961.720652,2,right_wrist,0.6974,-1.0716,-0.3343,-149.1,139.65,-254.24,-0.5058903605483591,0.8460527461785632,0.04403271562218348,0.16226772243086068,-117.35582764291105,-18.610050535293905,-5.429376123955099,22
1767366962.572895,1,left_wrist,0.4324,0.7715,-0.2225,48.44,-69.86,-229.25,0.338930819675239,0.7756057099607329,-0.36642175007810013,-0.3863894191360328,120.24535760161605,20.547783904162664,-62.465188204040366,23
1767366962.572895,2,right_wrist,0.1962,-0.7862,-0.2777,43.33,-93.87,234.64,-0.4828949551876214,0.8603769279716466,-0.13293485390565846,-0.09429914467002483,-122.62338599750939,16.897039694144052,-8.272821209825528,23
1767366962.65972,1,left_wrist,0.0932,0.6564,-0.263,17.43,-50.89,-200.97,0.29297716228345005,0.7976064979446064,-0.3095889143933209,-0.4267821000248752,122.38580882648142,29.960536387072857,-59.168803646613725,23
1767366962.65972,2,right_wrist,-0.0454,-0.3333,-0.2098,-22.54,-62.3,198.1,-0.45072560082687974,0.830373018196532,-0.24612940317223547,-0.21621147126022117,-127.91833226917704,35.517106088197316,-15.232647314575312,23
1767366962.7169201,1,left_wrist,-0.1728,0.3436,-0.2474,-28.49,-35.84,-178.64,0.26513023911743094,0.809767005860506,-0.24832656705586623,-0.4607789802274987,123.4455687930267,37.920643592557646,-55.038982933631544,23
1767366962.7169201,2,right_wrist,-0.2577,-0.1059,-0.2396,-52.92,-47.67,143.08,-0.4183723364362336,0.8194399126528755,-0.2851337651734727,-0.2686662494887174,-133.51639035615963,42.75742140212632,-19.285103655747243,23
1767366962.7704031,1,left_wrist,-0.5124,0.2835,-0.2752,-15.68,0.7,-28.77,0.25005482962197584,0.8163753133122778,-0.20310417865973962,-0.47932517418549764,124.56584837979632,42.92528799852252,-51.283658944989,23
1767366962.7704031,2,right_wrist,-0.3582,-0.3797,-0.265,4.69,-22.26,86.24,-0.41570240809557957,0.8045668670308205,-0.31003594024334347,-0.2893810293318694,-134.84839797422097,46.33741516095459,-21.969957363764745,23
1767366962.821972,1,left_wrist,-0.5124,0.2835,-0.2752,-15.68,0.7,-28.77,0.2457440075413039,0.8181433473165137,-0.18692548005424772,-0.48508783834039687,125.0037894254008,44.57731946286127,-49.82787517039421,23
1767366962.821972,2,right_wrist,-0.5207,-0.1674,-0.2904,21.91,-11.97,40.39,-0.41742316264338075,0.7924514763490939,-0.32703802652573133,-0.30137134921404585,-135.33181749661293,48.64852122211833,-23.810608551873944,23
1767366962.9081511,1,left_wrist,-0.5436,0.1449,-0.2757,31.5,0.91,30.87,0.2370676429715399,0.8201239112173523,-0.20200805059504284,-0.4799879690161634,126.2189415650029,43.75055683681868,-50.69166283104989,23
1767366962.9081511,2,right_wrist,-0.5046,-0.0991,-0.2679,60.06,11.13,-78.4,-0.4365383188184774,0.7980499010552433,-0.30203172840792364,-0.28517974448367817,-131.0173942433593,45.96144383477046,-19.59146448818268,23
1767366962.961545,1,left_wrist,-0.4738,0.2137,-0.2191,-18.27,22.96,104.23,0.2638236900114938,0.8134556607997083,-0.23038074241220596,-0.46434002845676553,123.7389033995654,39.33698440595521,-53.26264789142834,23
1767366962.961545,2,right_wrist,-0.1835,-0.4719,-0.1532,30.31,69.44,-199.43,-0.4632395825616091,0.8237262159047468,-0.24607414756161042,-0.21524805290924096,-126.03697371897474,35.633163054891604,-14.680131711162026,23
1767366963.019837,1,left_wrist,0.4128,0.9775,-0.368,51.17,82.6,281.82,0.34883487450776895,0.7799853699978504,-0.40854230936655106,-0.3209832306739884,124.3218181312966,12.456412426528717,-61.8865989478069,23
1767366963.019837,2,right_wrist,-0.1835,-0.4719,-0.1532,30.31,69.44,-199.43,-0.48601501638435163,0.841263198611824,-0.18818024734989422,-0.1437144008708031,-122.48803517617478,25.132949533320204,-11.269580367207983,23
1767366963.0741959,1,left_wrist,0.4128,0.9775,-0.368,51.17,82.6,281.82,0.38527292992651074,0.7411299993538599,-0.49634979790300576,-0.23649095467952894,126.26885703212037,-1.8291461140238297,-66.69538996040141,23
1767366963.0741959,2,right_wrist,0.1225,-0.4187,-0.2928,7.0,100.45,-233.38,-0.4915126306253921,0.8608087769241776,-0.12126739864963564,-0.0521325381192857,-121.52963564578731,12.061483391750741,-9.269855594624525,23
1767366964.022887,1,left_wrist,-0.0376,0.6432,-0.244,12.6,-25.62,-200.76,0.35481162226689344,0.731282207592592,-0.35845794096293965,-0.4591763823667875,111.05688991995434,24.658249639868394,-69.29409754063055,24
1767366964.022887,2,right_wrist,0.0166,-0.7013,-0.2777,-29.61,-66.36,204.19,-0.4031715310474845,0.8556609500989099,-0.303594207196611,-0.1145757931908801,-136.27583695065837,26.159859949976678,-28.418521558689356,24
1767366964.111339,1,left_wrist,-0.2752,0.2991,-0.2206,16.59,-26.39,-161.14,0.3084491363937826,0.7539970380159849,-0.3123188833128873,-0.48867628553802617,113.32063601121948,32.97356028239287,-67.03620668485179,24
1767366964.111339,2,right_wrist,-0.4543,-0.3787,-0.2289,-2.03,-29.05,105.63,-0.3891087207557415,0.8058355090315324,-0.3959157614595903,-0.20609280832574936,-142.84700849866604,39.811385593544756,-38.453542410165205,24
1767366964.1685948,1,left_wrist,-0.4514,0.3221,-0.2591,-21.7,-5.74,-45.85,0.25375443969013384,0.7761683264363183,-0.2438306652919054,-0.5231806762848739,116.51260334646224,43.504086692651306,-62.612220956317614,24
1767366964.1685948,2,right_wrist,-0.4543,-0.3787,-0.2289,-2.03,-29.05,105.63,-0.38650206644508306,0.7831277457198612,-0.42659078966480185,-0.2352602488534129,-145.58073081823645,44.28549675071066,-42.789279850739646,24
1767366964.2630432,1,left_wrist,-0.4514,0.3221,-0.2591,-21.7,-5.74,-45.85,0.24650093557603966,0.7793159378989751,-0.22264880450583263,-0.5313487249903791,116.81592919425486,45.923427110939706,-61.098906472766735,24
1767366964.2630432,2,right_wrist,-0.5056,0.1005,-0.2713,85.4,10.92,-68.18,-0.41998666910728566,0.7634572960808835,-0.43490775500729123,-0.22715501197981844,-140.79962036910686,45.4107049332853,-42.38774163473429,24
1767366964.3144808,1,left_wrist,-0.4329,0.3353,-0.2845,-23.52,13.02,92.61,0.30157810879651875,0.7643780175721121,-0.27021783850365144,-0.5017561263219984,113.25014731326884,37.16260634117493,-63.91216942806228,24
1767366964.3144808,2,right_wrist,-0.5056,0.1005,-0.2713,85.4,10.92,-68.18,-0.45063515224850065,0.7601467272281089,-0.42417733383579015,-0.19793560089667075,-134.90683527568714,43.09567328925129,-39.704428518303224,24
1767366964.3712928,1,left_wrist,-0.0922,0.3201,-0.2499,-26.81,72.31,221.34,0.36615448132372,0.747700971006481,-0.32915782109791974,-0.445566249364326,111.7105799521894,25.166831233336517,-64.73770318581812,24
1767366964.3712928,2,right_wrist,-0.3762,0.0747,-0.2054,-23.38,41.79,-133.77,-0.44378488617503115,0.7910368912536091,-0.3873736544088694,-0.1650977387742134,-133.85015480131125,37.230133577805034,-35.8503860210511,24
1767366964.463109,1,left_wrist,0.264,0.4978,-0.1781,-86.52,90.02,256.69,0.45612410944267306,0.7078354482581549,-0.38111013137195454,-0.3816737386040033,107.34575233162207,11.107905771412575,-64.7769169507167,24
1767366964.463109,2,right_wrist,0.4953,-1.0512,-0.3631,-79.17,122.64,-273.7,-0.4208817976319146,0.8735003752694576,-0.2446225059240416,0.003928921186209871,-131.21379949178535,11.481439877317118,-26.069227380878715,24
1767366964.519097,1,left_wrist,0.9418,1.3259,-0.3963,48.79,98.49,268.8,0.534998626852367,0.6439947402517524,-0.5151778434454372,-0.18340946926772533,112.30896399632087,-18.361381904891285,-64.94647642016174,24
1767366964.519097,2,right_wrist,0.4953,-1.0512,-0.3631,-79.17,122.64,-273.7,-0.374632439239771,0.90837467015007,-0.15960830732998238,0.09503253300985376,-134.60602866368572,-3.041622281587698,-21.203550627189188,24
1767366965.420948,1,left_wrist,-0.0683,0.4338,-0.3333,-14.07,-51.1,-189.14,0.35562975473007763,0.7294980803802735,-0.41859893840406665,-0.407596561613453,115.74575016587158,17.2744653877362,-70.59354137543534,25
1767366965.420948,2,right_wrist,0.0127,-0.5383,-0.2938,-2.31,-80.5,212.17,-0.42042279809986505,0.8260966243679646,-0.31255075523593845,-0.20765611825125393,-134.7674520178434,37.29327025322264,-25.443895161986052,25
1767366965.475429,1,left_wrist,-0.2845,0.2762,-0.3182,-37.24,-37.38,-133.56,0.33213012798258007,0.7423247219408545,-0.37355261635929776,-0.4462085029364986,114.7597831806396,24.47694471372605,-69.23231984325119,25
1767366965.475429,2,right_wrist,-0.1659,-0.2977,-0.2162,-69.72,-42.98,162.68,-0.387301741992022,0.8112851638458448,-0.3538892280851596,-0.2580235605886716,-141.81624564491932,43.85098815971388,-31.27174847655804,25
1767366965.559964,1,left_wrist,-0.4412,0.2255,-0.2865,6.44,-30.52,-76.51,0.3059233613104992,0.7512228336599923,-0.3522843551870515,-0.466873520648559,115.54424397538381,29.071983835926048,-68.81502985780321,25
1767366965.559964,2,right_wrist,-0.346,-0.1776,-0.2625,-62.09,-24.71,86.31,-0.3314261393567833,0.7948250353376273,-0.3908029158523661,-0.32508915440673486,-154.3864028163485,50.87967201407159,-40.02208154333111,25
1767366965.611178,1,left_wrist,-0.4992,0.2918,-0.2372,-23.73,-3.29,-21.77,0.3051256128145476,0.7520228812665457,-0.33835291795996464,-0.4763163332955183,114.74283422937471,30.658586374672403,-68.35617974925636,25
1767366965.611178,2,right_wrist,-0.5051,0.0498,-0.1669,23.03,-12.67,22.47,-0.33749814916171644,0.7842052229525073,-0.40100751917811567,-0.3321296993179582,-154.51038049063638,52.334750103946334,-41.483230878887866,25
1767366965.669667,1,left_wrist,-0.5466,0.081,-0.2425,-9.1,12.11,42.63,0.3249773913410401,0.744867102154106,-0.3549612722986327,-0.46213113984436593,114.00182757903642,27.241613908749493,-68.84423551442644,25
1767366965.669667,2,right_wrist,-0.5646,-0.1503,-0.1747,-32.13,8.26,-37.31,-0.3320770121702784,0.7949610336443107,-0.3842164062737616,-0.3318728161891322,-153.98105655185756,51.520495268524286,-38.866772429361106,25
1767366965.724512,1,left_wrist,-0.4304,0.1845,-0.2035,2.03,24.15,113.4,0.34692577609271885,0.7332977787962831,-0.3862229467943629,-0.4390315579367627,113.78907126707348,22.079970362793162,-70.05066764941033,25
1767366965.724512,2,right_wrist,-0.448,-0.0815,-0.2479,69.02,20.16,-97.23,-0.36557216745393034,0.8014823802024907,-0.3639606149418644,-0.30251554568174754,-146.3578242914565,48.67963529904455,-33.27207160560472,25
1767366965.813952,1,left_wrist,0.2133,0.0756,-0.365,-5.88,102.34,281.68,0.41601820795924943,0.6995613524984968,-0.4580937902097845,-0.3573413551606957,113.66039243172156,6.823642102137339,-70.89912077387956,25
1767366965.813952,2,right_wrist,-0.0298,-0.3894,-0.3016,-14.77,65.59,-230.23,-0.39154069119867835,0.8692989652122722,-0.2342844301017626,-0.19006841407352806,-136.39186034889727,30.925048232229127,-17.537108897804824,25
1767366965.876086,1,left_wrist,0.7222,1.443,-0.264,88.2,139.23,297.36,0.5157638851539618,0.6111281785851962,-0.5827282355596791,-0.14469888593743452,118.06953881021853,-25.102644833963566,-72.05654140406706,25
1767366965.876086,2,right_wrist,0.1864,-0.2826,-0.326,-3.22,119.28,-268.94,-0.3965656293483365,0.9008482222132479,-0.1495289621807486,-0.0940705672563796,-134.21366373572596,16.743204863725033,-11.736984741309444,25
1767366966.808971,1,left_wrist,0.3836,0.8642,-0.2694,49.42,-47.39,-238.98,0.4486516995865066,0.7386221604456471,-0.41089384391575845,-0.29037080705345775,115.44048680104393,3.4542879679116587,-60.3565775684389,26
1767366966.808971,2,right_wrist,0.0849,-0.5739,-0.2786,19.67,-88.27,218.4,-0.4728489985934239,0.8136325673182571,-0.22902568231766918,-0.24892389754144553,-123.19997340302757,38.43704175540857,-10.0937122777058,26
1767366966.861582,1,left_wrist,0.0078,0.6242,-0.2352,-1.68,-42.35,-220.22,0.4150500850656039,0.7669216529787565,-0.34671673887748633,-0.34547374438809075,115.43838004182129,14.01010191372571,-57.531208377372906,26
1767366966.861582,2,right_wrist,-0.3845,-0.3719,-0.2865,25.76,-38.57,139.16,-0.46630078174441464,0.7899233062364185,-0.2743482481012367,-0.28864821144925795,-124.56956297637832,45.38788026839064,-13.523899977642973,26
1767366966.9142148,1,left_wrist,-0.3148,0.4738,-0.2669,28.98,-15.26,-140.0,0.37808283364390877,0.7905991373698545,-0.303958288021165,-0.3736518888445192,117.79545115808996,21.160080059923654,-54.918664616166005,26
1767366966.9142148,2,right_wrist,-0.3845,-0.3719,-0.2865,25.76,-38.57,139.16,-0.4604722949588668,0.764000499329936,-0.31609199031322016,-0.3230392487899108,-126.3290044238732,51.69363396870542,-17.41185103501992,26
1767366966.970279,1,left_wrist,-0.4821,0.1854,-0.2772,29.61,-8.05,-20.09,0.3477130945461701,0.8034226909905291,-0.2698808483607727,-0.40096372799884594,119.39298870631279,27.168218500800624,-53.21193160281875,26
1767366966.970279,2,right_wrist,-0.5217,-0.3099,-0.2425,-2.45,-18.97,23.17,-0.45610559873860307,0.7578457390817315,-0.3223186670065529,-0.33726576383333545,-126.94820259843628,53.63088320941932,-17.759953643302946,26
1767366967.020999,1,left_wrist,-0.4821,0.1854,-0.2772,29.61,-8.05,-20.09,0.3291500065765467,0.8100531923468579,-0.2669785203520866,-0.40521175749222077,121.25249045629715,28.733364233911992,-52.89025021863515,26
1767366967.020999,2,right_wrist,-0.5217,-0.3099,-0.2425,-2.45,-18.97,23.17,-0.4525669626571226,0.7543315784132812,-0.3261634587562697,-0.34609884757389947,-127.5100892622621,54.82220083865938,-18.081108349108714,26
1767366967.110631,1,left_wrist,-0.4616,0.4011,-0.265,-18.69,13.44,75.88,0.34798649014631367,0.8008689652309227,-0.28602667744077687,-0.3945922490341016,119.68487747789399,25.65597164459829,-54.38124184545532,26
1767366967.110631,2,right_wrist,-0.4202,-0.0717,-0.2567,80.64,38.64,-117.88,-0.4892717127139762,0.7746665943492582,-0.2858349985339069,-0.2807190986562466,-121.32057670443973,45.61283331487788,-13.909916116069498,26
1767366967.160843,1,left_wrist,-0.3675,0.1161,-0.2464,-5.18,36.89,140.84,0.37413656676971274,0.789100648429745,-0.326222401435456,-0.3618299888831936,119.0023801341576,19.08297493365135,-56.22983449082555,26
1767366967.160843,2,right_wrist,-0.4202,-0.0717,-0.2567,80.64,38.64,-117.88,-0.5217862779580186,0.7757794114616268,-0.26644413568539405,-0.2343350324766503,-116.78543729403651,39.91409775422837,-12.717957008860338,26
1767366967.21145,1,left_wrist,-0.3675,0.1161,-0.2464,-5.18,36.89,140.84,0.3990572014150892,0.7743303795310643,-0.3654355115428294,-0.3280589889600122,118.52725918053827,12.49724899926109,-57.97890457344369,26
1767366967.21145,2,right_wrist,-0.2294,-0.365,-0.2503,-8.47,62.79,-181.3,-0.5267171632508554,0.8043871355494349,-0.21676481241910633,-0.16894786828029745,-116.62356531781438,30.009691368243104,-11.372368522607449,26
1767366967.266072,1,left_wrist,-0.0966,0.3494,-0.2513,-36.68,53.27,203.63,0.44417340909139397,0.7420029757619129,-0.4183507050319398,-0.2777125388164426,116.84263984556719,2.320342221476644,-60.25612780945173,26
1767366967.266072,2,right_wrist,0.2503,-0.4953,-0.2596,-40.67,136.99,-270.41,-0.5146774355659234,0.8427567473746993,-0.14663860954166444,-0.05801138048167273,-118.58886503573265,14.401907407150047,-11.15878838064728,26
1767366967.3209732,1,left_wrist,0.3933,0.8355,-0.3748,44.87,112.63,285.11,0.5256408656795654,0.650487208999602,-0.54168077736766,-0.08455771216105996,119.18411675781479,-27.351731403730167,-63.316066249100594,26
1767366967.3209732,2,right_wrist,0.2503,-0.4953,-0.2596,-40.67,136.99,-270.41,-0.49308267636906444,0.8651543405454691,-0.07379940017858318,0.05413954038719159,-120.52988582724335,-1.197552093908059,-10.435343880128405,26
1767366968.222729,1,left_wrist,0.3255,0.7452,-0.0722,149.94,-14.0,-250.32,0.3703176352616791,0.8063808115194091,-0.31316659990457013,-0.3384398270471545,121.53920897302004,18.293245962622017,-52.74496641021863,27
1767366968.222729,2,right_wrist,-0.0444,-0.6876,-0.2713,36.61,-67.97,208.67,-0.49591559225756005,0.7923506337454128,-0.27134906187348673,-0.22938588705379154,-121.3485358216837,39.24520861441591,-15.157369618088943,27
1767366968.2771049,1,left_wrist,-0.2679,0.0932,-0.2167,13.16,-23.38,-160.37,0.33394676377145155,0.8263980775387862,-0.2599472363881739,-0.371447453485582,123.91872668273851,26.12365221487361,-49.01111424398669,27
1767366968.2771049,2,right_wrist,-0.0444,-0.6876,-0.2713,36.61,-67.97,208.67,-0.49494855272496646,0.7506262914635029,-0.32880865320212166,-0.28891343045731943,-121.81537038055562,49.3953745037843,-18.60373648671119,27
1767366968.3627589,1,left_wrist,-0.2679,0.0932,-0.2167,13.16,-23.38,-160.37,0.29562171208601384,0.8419640332530772,-0.20517001202001808,-0.40200701016182633,127.14127261873142,33.755184451790214,-44.541176606430994,27
1767366968.3627589,2,right_wrist,-0.529,-0.0844,-0.246,-16.87,-15.33,51.8,-0.4610740788210268,0.7199663594264152,-0.3785281914910935,-0.35464847860959087,-129.2667738319696,59.286171149686965,-25.268173848609916,27
1767366968.4197462,1,left_wrist,-0.5778,0.0947,-0.2908,4.76,6.02,34.37,0.2502387663651278,0.8533340536263374,-0.1939543371689676,-0.4142261071239337,132.12767473807745,37.58058796822469,-42.78737013254565,27
1767366968.4197462,2,right_wrist,-0.5558,-0.2782,-0.246,-60.06,-4.13,0.49,-0.44161449007016235,0.7333289757206802,-0.368254670186004,-0.3627585332073196,-132.3425630508779,59.01430730995153,-25.26193127467237,27
1767366968.508648,1,left_wrist,-0.5353,0.2445,-0.2557,38.85,14.28,75.25,0.24814858844389612,0.8529518502128134,-0.22530806499142414,-0.4001645850417808,132.67742787675013,34.80760040456293,-45.23414575683275,27
1767366968.508648,2,right_wrist,-0.3787,0.082,-0.1542,8.82,24.5,-122.5,-0.4389590282651133,0.7656374779791214,-0.32467020811802316,-0.3401521421054371,-130.33684219480583,53.69729140211507,-19.592718923552006,27
1767366968.5661728,1,left_wrist,-0.5353,0.2445,-0.2557,38.85,14.28,75.25,0.24588643678099203,0.8514786715642538,-0.2564952955571718,-0.3856605961663179,133.32859412780647,32.04776870529637,-47.654040488018346,27
1767366968.5661728,2,right_wrist,-0.3787,0.082,-0.1542,8.82,24.5,-122.5,-0.453324014124361,0.7832579574069268,-0.2918254522367535,-0.30958393983493265,-126.885304199545,48.551511165486744,-15.461204893562902,27
1767366968.658803,1,left_wrist,-0.1484,0.1781,-0.2235,-28.56,67.2,202.65,0.33889814584467576,0.8117119105813121,-0.3772380552389939,-0.2897641638349689,128.0795447735315,12.399070993873293,-55.907520448120614,27
1767366968.658803,2,right_wrist,0.1039,-0.2479,-0.2474,107.8,76.58,-233.03,-0.5345840551614572,0.8126681762437715,-0.17690003715031202,-0.14998900007658045,-115.17435111815828,25.652915573930564,-8.109346056864926,27
1767366968.713293,1,left_wrist,0.1357,0.4636,-0.222,1.05,100.87,266.14,0.38885507826797516,0.7731754324791232,-0.454642130815033,-0.210456673935264,127.53462059486247,-1.6125128275209326,-60.11806824688698,27
1767366968.713293,2,right_wrist,0.7681,-1.0316,-0.3855,77.7,129.71,-288.54,-0.5655768810126467,0.8173622954380921,-0.10644125641994712,-0.02668199002928287,-111.33054703981513,9.44025865138378,-8.38332942101436,27
1767366969.716714,1,left_wrist,0.1562,0.5627,-0.243,43.4,-62.86,-208.04,0.28021365651621477,0.7941825913400004,-0.28663002530700976,-0.45672480434808665,121.06040210123463,34.38913190335298,-59.527375425146886,28
1767366969.716714,2,right_wrist,-0.1591,-0.2157,-0.2172,-75.95,-32.69,138.39,-0.4150811305445862,0.8286475984320326,-0.3139621463381167,-0.20610333171837808,-135.60713837869457,37.028599183750536,-25.941062266982648,28
1767366969.767728,1,left_wrist,-0.3709,0.3445,-0.2562,7.07,-30.03,-112.84,0.24716250555114738,0.8034096052601064,-0.250035794849535,-0.4805473996594303,123.1264234621937,40.4326566135394,-57.130013590875826,28
1767366969.767728,2,right_wrist,-0.4324,-0.143,-0.2259,-43.68,-22.96,83.23,-0.39370252373985865,0.8209937623195597,-0.3373233972413386,-0.23912442515728605,-139.87672042784573,41.16650357314085,-29.0546996585934,28
1767366969.822773,1,left_wrist,-0.5373,0.1776,-0.3255,-1.05,-5.88,-7.49,0.2194752901440506,0.8116850424786994,-0.23066465799107141,-0.4896854136957716,126.0699884439745,43.92294002151498,-54.91526176237857,28
1767366969.822773,2,right_wrist,-0.5266,-0.0307,-0.2826,11.55,-13.09,7.35,-0.39718581971506267,0.8155582378805623,-0.3407569003433967,-0.24696744747190144,-139.55167068752147,42.33934738836948,-29.112983801298956,28
1767366969.914021,1,left_wrist,-0.5373,0.1776,-0.3255,-1.05,-5.88,-7.49,0.213451628446137,0.8125837572304248,-0.22614300869621806,-0.4929557580724671,126.57775726959666,44.79679339455415,-54.53617242976853,28
1767366969.914021,2,right_wrist,-0.4046,-0.1928,-0.2669,91.35,29.47,-113.61,-0.4390777217461022,0.8115162486490743,-0.32051985144294814,-0.21428755744507608,-132.25241147419487,38.99568943308725,-25.29157525164837,28
1767366969.966518,1,left_wrist,-0.3797,0.164,-0.1396,-27.93,34.37,137.9,0.25336571563693483,0.8021334809183512,-0.26307774682450846,-0.472416968424434,122.99224235609331,38.65086622782058,-57.8809245368522,28
1767366969.966518,2,right_wrist,-0.1976,-0.1908,-0.2704,97.93,57.82,-177.66,-0.4770601342006484,0.8214579499967238,-0.2773773638488385,-0.14381329134648235,-125.57074003993074,30.061183817933276,-21.591742797014984,28
1767366970.017977,1,left_wrist,0.1562,0.751,-0.3206,21.63,66.22,251.58,0.34341923819117,0.7661269018030343,-0.3812482317622203,-0.3869917091515792,119.4968530522755,19.336378207813663,-64.26106847800372,28
1767366970.017977,2,right_wrist,-0.1976,-0.1908,-0.2704,97.93,57.82,-177.66,-0.5104686346620858,0.8244427048343577,-0.23263346744818936,-0.07481757343476421,-120.0951119238476,21.153621933708664,-19.23223840655956,28
1767366970.073376,1,left_wrist,0.4309,0.6686,-0.2699,-15.82,141.47,269.08,0.41655391239062034,0.7350292043833119,-0.4453046997961833,-0.29651076053852454,118.56376282919992,3.7211864852585235,-64.62927374201567,28
1767366970.073376,2,right_wrist,-0.0288,-0.8233,-0.2381,29.61,60.2,-232.82,-0.5214795795587401,0.8381154874588859,-0.15999391845183755,0.004839818511065334,-117.5116779944143,9.13460854515623,-16.065980409586444,28
1767366970.163852,1,left_wrist,0.4309,0.6686,-0.2699,-15.82,141.47,269.08,0.48211162575616123,0.6901994708527867,-0.5009982122028835,-0.2004840694788459,117.69397305657574,-11.907140331784616,-64.73553080414763,28
1767366970.163852,2,right_wrist,0.753,-1.4259,-0.2206,-36.68,98.42,-240.66,-0.4811826867660769,0.8551557937748808,-0.020845654724548926,0.1916696350727941,-119.14965567189617,-17.92390773303739,-13.375767017286476,28
1767366971.072157,1,left_wrist,-0.0815,0.4485,-0.1889,14.07,-22.33,-189.0,0.39591430746940887,0.7437907726721646,-0.34117474335827574,-0.4166856634480929,111.2300385851031,20.469087887114966,-63.3686919439017,29
1767366971.072157,2,right_wrist,0.1205,-0.6603,-0.2455,-41.09,-78.75,211.47,-0.5028734532900041,0.8165383582891125,-0.23766609330305982,-0.154590515597718,-120.83911784226578,29.438569301290595,-15.494171571989009,29
1767366971.159214,1,left_wrist,-0.0815,0.4485,-0.1889,14.07,-22.33,-189.0,0.3546480082693686,0.7674859285115874,-0.2882145410498784,-0.4495803800152807,113.18872799520753,29.055972256885138,-60.56250208489638,29
1767366971.159214,2,right_wrist,-0.4353,-0.449,-0.242,19.6,-27.16,90.37,-0.5014185651221685,0.771840511184531,-0.31050103347785935,-0.237551586091124,-121.52468142494209,42.69424435500736,-19.14863917764974,29
1767366971.21134,1,left_wrist,-0.2728,0.3436,-0.2523,21.77,-14.77,-139.37,0.3143755439022887,0.7861515917993651,-0.24719895436973072,-0.4711967413575526,116.22731627094993,35.83390516738402,-57.656193964253646,29
1767366971.21134,2,right_wrist,-0.4597,-0.2694,-0.2133,-8.05,-3.22,50.61,-0.49205176615448587,0.7650321495995934,-0.32841056522529705,-0.2544746945212377,-123.40272171638541,45.4429866929468,-21.05443494105517,29
1767366971.262502,1,left_wrist,-0.5183,0.3719,-0.2782,4.48,-10.29,-44.59,0.29861939281954764,0.7906512464135632,-0.23172862570684982,-0.48166265041497475,117.21620644136361,38.55437189529806,-56.76478616264263,29
1767366971.262502,2,right_wrist,-0.4597,-0.2694,-0.2133,-8.05,-3.22,50.61,-0.4824230516944807,0.7575969981032017,-0.34602356983278665,-0.27126090167765904,-125.49177165042319,48.14813873758729,-23.174498678169837,29
1767366971.3151941,1,left_wrist,-0.5256,0.1786,-0.2889,-10.5,18.13,61.67,0.29708907800758483,0.7930084209066424,-0.23069331542598548,-0.4792247054540523,117.74539091692552,38.53448262363583,-56.279683902576956,29
1767366971.3151941,2,right_wrist,-0.3899,0.0903,-0.3733,98.0,21.35,-70.28,-0.5154245673158487,0.7498740616465566,-0.34115389874507235,-0.23588222579923937,-120.28140581277694,44.865273875418,-22.259790280903488,29
1767366971.369869,1,left_wrist,-0.4817,0.243,-0.2401,12.04,20.3,111.44,0.3140757387809056,0.7881017636448873,-0.2663854671657201,-0.45748313994282624,117.47230043649832,33.62508167951331,-58.142422799913426,29
1767366971.369869,2,right_wrist,-0.3899,0.0903,-0.3733,98.0,21.35,-70.28,-0.5471947556359898,0.740318963605447,-0.335378042423981,-0.20006823883486516,-115.40779046773419,41.54919240385722,-21.774785419853732,29
1767366971.4204412,1,left_wrist,-0.4817,0.243,-0.2401,12.04,20.3,111.44,0.3305193729969582,0.7812954864988191,-0.301609618915119,-0.43516197516344185,117.3422875197358,28.724892259420983,-59.934896094006724,29
1767366971.4204412,2,right_wrist,-0.3689,-0.1464,-0.143,30.73,44.66,-152.04,-0.5608528138933714,0.7566421100642331,-0.30168097052007525,-0.14807238247390256,-113.29955679915395,34.226984359465916,-20.565002962818873,29
1767366971.475927,1,left_wrist,-0.2216,-0.1181,-0.1327,-30.8,62.02,205.03,0.3833613973725153,0.760039406735769,-0.35385580157706875,-0.38750511080962924,115.33575073415763,18.525639890109364,-61.71852700274276,29
1767366971.475927,2,right_wrist,-0.3689,-0.1464,-0.143,30.73,44.66,-152.04,-0.5722698459737539,0.7696515093679804,-0.26650666225802855,-0.09548809605836017,-111.490001174802,26.872881699288275,-19.71717482543535,29
1767366971.563167,1,left_wrist,0.225,0.3314,-0.2225,15.12,93.17,283.36,0.4385401976135899,0.7276220420952351,-0.43355186058415784,-0.3004687057219243,115.81775377787046,3.267370470367105,-63.62624780207797,29
1767366971.563167,2,right_wrist,0.4563,-0.7691,-0.2245,-25.41,115.99,-296.1,-0.5601745603189079,0.809769769404989,-0.1363412830255565,0.10903410967332428,-110.40972461847376,-1.3657865739416204,-20.063649579439762,29
1767366971.61921,1,left_wrist,0.893,0.6964,-0.3035,62.44,145.6,297.36,0.5146328881882626,0.6433599282425593,-0.5640013559284318,-0.056066600018430106,122.60482998993677,-30.55500348283937,-65.47013207681944,29
1767366971.61921,2,right_wrist,0.4563,-0.7691,-0.2245,-25.41,115.99,-296.1,-0.5245468483557906,0.8197380561930414,-0.05793921239088328,0.2225380209680708,-111.5974253407104,-17.701746920073244,-20.168223239213745,29
1767366972.507214,1,left_wrist,0.1957,0.6573,-0.2089,21.77,-33.32,-235.27,0.40216584315512754,0.7692333147975461,-0.31321697232147444,-0.38527635569117596,113.81750568115957,19.925894962830917,-57.37122680572685,30
1767366972.507214,2,right_wrist,-0.1845,-0.4202,-0.2664,7.7,-63.35,173.95,-0.5210931698370433,0.7857004043871866,-0.2774731257178522,-0.1847848678852212,-118.48229498460122,35.41888364135803,-17.380982609343462,30
1767366972.562391,1,left_wrist,-0.0727,0.3045,-0.1386,67.97,-29.61,-186.83,0.34482321102110824,0.7985047594843453,-0.26895657123768874,-0.4137021452808848,118.5039949086888,28.372459216378672,-54.33357086012279,30
1767366972.562391,2,right_wrist,-0.2425,-0.1308,-0.3455,-54.6,-51.38,120.26,-0.4941042040698147,0.7796186106262333,-0.3037582773849214,-0.23619222342384963,-122.54852778023258,41.94802433272108,-18.843825255028325,30
1767366972.61652,1,left_wrist,-0.469,0.1454,-0.2806,9.66,-12.6,-95.9,0.31848226251967654,0.8095952836926615,-0.23674767459251891,-0.43252174934675996,120.41683205648846,33.33513615926651,-52.053595236879204,30
1767366972.61652,2,right_wrist,-0.4953,-0.5427,-0.3123,-39.13,-25.48,70.28,-0.4788875810664721,0.7763858706575162,-0.31536874170623563,-0.26159935263356293,-124.95499337025454,45.093230177418484,-19.800732457411147,30
1767366972.673656,1,left_wrist,-0.5168,0.4494,-0.2972,37.03,-15.26,-44.03,0.26638956452536733,0.8222416871468681,-0.21841646097941733,-0.4530446527695518,125.1362530840884,38.95108328823637,-50.555128754688965,30
1767366972.673656,2,right_wrist,-0.5632,-0.2816,-0.3055,-7.28,-5.11,5.25,-0.47374873746850754,0.7761203725143591,-0.31792164756217967,-0.26856121672072614,-125.77762963157713,45.89796838859598,-20.088071475876493,30
1767366972.7609541,1,left_wrist,-0.5344,-0.0322,-0.2494,53.41,9.73,65.8,0.2573502490750622,0.8245695209677518,-0.24915705155609452,-0.43792318738779934,126.9847618583592,36.43816987934004,-52.27158386889425,30
1767366972.7609541,2,right_wrist,-0.4104,0.0244,-0.2328,83.09,29.26,-101.43,-0.5010193322324676,0.7751631756405674,-0.30429276053450793,-0.2356005003102753,-121.42235122515575,42.08024669537722,-18.51355892084887,30
