timestamp,node_id,node_name,ax,ay,az,gx,gy,gz,qw,qx,qy,qz,roll,pitch,yaw,rep_number
1767650276.0269032,1,left_wrist,-0.0307,-0.669,0.5461,-106.47,-109.83,-49.35,0.1805774705461709,0.6341606313041578,-0.7382504227298279,0.14219136462629972,178.77754388866924,-26.54926332084374,-98.38611335735736,1
1767650276.0269032,2,right_wrist,0.2586,0.5807,0.3011,112.7,-177.66,0.84,-0.03533467399499858,-0.9460818796613027,-0.30242663282777194,-0.11053809093095207,172.17544280861495,-10.823481943802259,36.19662831464174,1
1767650276.0779788,1,left_wrist,-0.3196,-0.3343,0.6032,-67.48,-9.24,-12.04,0.19662286153274738,0.6329163049655172,-0.7396103801785829,0.11718740019115777,175.17633016008259,-26.052099849555447,-97.77338994659917,1
1767650276.0779788,2,right_wrist,-0.1449,0.2191,0.7344,56.7,-146.51,1.54,-0.0315981029477983,-0.9519733073133009,-0.30159292307064645,-0.0423094647422906,175.07543762242963,-3.525653349658585,35.30891016897077,1
1767650276.164178,1,left_wrist,-0.2733,-0.0542,0.5144,13.44,52.36,25.69,0.20843678016427247,0.6228421603573523,-0.7412909093694215,0.13823725851735102,176.4225036959627,-28.765410936548648,-99.00750884886011,1
1767650276.164178,2,right_wrist,-0.0996,-0.1108,0.7764,-74.9,99.89,-19.67,-0.03724991777247276,-0.9444053082117625,-0.31124158426697485,-0.09919543170112985,172.3036723113423,-9.449250199178728,37.11770932677792,1
1767650276.222794,1,left_wrist,0.0742,-0.2181,0.4285,55.44,89.95,58.73,0.21889282975556304,0.6022475765162414,-0.7446308328890108,0.18683872289473144,-178.9977562306392,-33.43804980260444,-102.37010884873979,1
1767650276.222794,2,right_wrist,0.326,0.1737,0.2982,-108.29,146.86,-15.19,-0.06277126423186648,-0.930945754005236,-0.3141052978106994,-0.1753215142919071,166.2915450593468,-16.678200017167377,39.308088204205326,1
1767650276.2766159,1,left_wrist,0.6461,-0.4236,-0.3743,145.11,146.51,65.59,0.2276757037924645,0.5493009967730946,-0.7167153888290301,0.3643504360671782,-156.66400377066077,-46.60490398115093,-115.23163864007614,1
1767650276.2766159,2,right_wrist,0.8233,0.7149,-0.1181,-173.67,204.4,-2.38,-0.10593787905778762,-0.9031394586527063,-0.30502036324510745,-0.28298208779188977,155.99675109603982,-26.52051108474684,43.05904975725456,1
1767650276.327619,1,left_wrist,1.2132,-0.6788,-0.6105,164.64,158.41,62.23,0.22678391713145155,0.5165122879304805,-0.6850421895620253,0.4609786436131301,-139.9190858909993,-51.89817523417937,-126.09978926226904,1
1767650276.327619,2,right_wrist,1.0624,1.0106,-0.4387,-182.63,189.84,-10.01,-0.15438132577142974,-0.8627938746072649,-0.2928972942533259,-0.38205275972347,143.41434388669853,-34.66866555035646,49.28419583538834,1
1767650276.415004,1,left_wrist,1.2029,-0.9072,-0.57,153.37,177.38,58.24,0.23053614245086257,0.4735503421872675,-0.6458535475617108,0.5526991546403436,-119.70672213820083,-55.20981056751692,-141.2861635800771,1
1767650276.415004,2,right_wrist,1.2512,1.0892,-0.2098,-172.48,143.36,-17.15,-0.23299184198484843,-0.7635035972832461,-0.2601933471295442,-0.543209426108913,115.26172600468456,-45.09180317613034,67.12335220128115,1
1767650276.966301,1,left_wrist,0.7081,-0.6393,-0.1581,-119.0,-185.99,-73.99,0.14441427626188647,0.6236750034105564,-0.7047961257791099,0.3056737280489688,-161.9938289687442,-35.79220824735751,-102.84639373877654,2
1767650276.966301,2,right_wrist,0.3201,0.4412,0.181,113.54,-192.22,20.02,-0.012969109142405254,-0.9544685089029138,-0.2883278799682381,-0.07542348012205428,176.04945183601666,-7.845364356297153,33.888256338058824,2
1767650277.0291562,1,left_wrist,-0.327,-0.7139,1.0219,-105.0,-46.06,-35.7,0.15301594363243584,0.6595021552685296,-0.7124155567502297,0.18468108373815534,-176.03683116362745,-27.49150035047437,-95.38731778636041,2
1767650277.0291562,2,right_wrist,-0.0351,0.164,0.9033,81.76,-136.5,6.02,0.003919507551041153,-0.9578716674242697,-0.28705346172677093,-0.00817412485125961,-179.83863192314232,-1.0262074730427846,33.36323199262986,2
1767650277.1160262,1,left_wrist,-0.3231,-0.1767,0.9755,-154.28,79.8,2.66,0.22165315627724436,0.6399208445410318,-0.7182539296531207,0.15963233874149096,176.34354720590875,-31.51425100047035,-95.5697448202974,2
1767650277.1160262,2,right_wrist,-0.1518,-0.2411,0.529,-26.11,143.5,-25.48,0.052667760215178515,-0.9504837077346443,-0.29407831751572516,-0.08558487910863716,-177.09138400946338,-11.167095173475982,34.09957766236043,2
1767650277.174229,1,left_wrist,0.3592,-0.1137,0.0434,101.01,124.32,87.08,0.25695625778136605,0.5796415378364185,-0.7203557027224684,0.2812060290193772,-171.40745398022423,-44.122695631413386,-105.84328821746087,2
1767650277.174229,2,right_wrist,0.2118,0.0922,0.1776,-166.32,125.65,-44.73,-0.0021580330439241956,-0.9395115300086145,-0.30226543224947006,-0.16108704585190692,173.89311603391107,-17.54060871024865,36.61170903557291,2
1767650277.227066,1,left_wrist,0.8769,-0.1752,-0.427,143.57,131.95,83.09,0.2526660232897052,0.5498621527603114,-0.7047565665235851,0.37031024233559834,-157.79751571873356,-49.76266304484472,-114.47560389480321,2
1767650277.227066,2,right_wrist,0.9594,0.5827,-0.3431,-207.97,156.24,-47.46,-0.0707231764805612,-0.9150966065395004,-0.30510429310555165,-0.25398386432399905,161.7193166239259,-24.94092939220464,40.9537959433284,2
1767650277.278307,1,left_wrist,1.0063,-0.5436,-0.5197,168.91,149.66,83.44,0.24289744729724005,0.5138069873441176,-0.6765197401043346,0.46832067123073884,-139.09948364281306,-54.086426251008376,-127.12280520364064,2
1767650277.278307,2,right_wrist,0.7193,1.0228,-0.2806,-259.28,122.99,-40.46,-0.16335496716425507,-0.8797762402211533,-0.2939376144384808,-0.33602023847279133,146.06690176510736,-29.683790537253397,46.193805442303585,2
1767650277.3663611,1,left_wrist,0.9941,-0.5973,-0.4577,178.57,168.7,84.07,0.232612197838503,0.4679388776230368,-0.6363546267194082,0.5674306664945387,-116.16288505676228,-55.80131098276072,-143.84936444607325,2
1767650277.3663611,2,right_wrist,1.2205,1.486,-0.508,-161.14,217.42,39.34,-0.2154942471101758,-0.7759384206397058,-0.26946712233192005,-0.528080738921362,119.44110500475733,-44.69873745434694,65.29909205911136,2
1767650277.426707,1,left_wrist,1.4879,-0.8672,-0.7793,141.89,150.57,53.2,0.2316497162113241,0.37740409429876925,-0.5443160091483212,0.7124778177393196,-78.46855565454726,-52.1822771715892,-172.43106964904305,2
1767650277.426707,2,right_wrist,1.3215,1.1863,-0.59,-120.61,177.87,2.87,-0.23550266778536172,-0.7182752137284686,-0.25600237707576834,-0.6025628545976398,104.13677368973104,-48.16197132193579,77.64157076909778,2
1767650277.963522,1,left_wrist,0.7662,-0.8477,-0.0678,-70.77,-200.13,-106.33,0.1885543559518716,0.6672004678521766,-0.6571306057812824,0.2957535418130047,-169.69458575808994,-39.975761181794354,-92.88587977078647,3
1767650277.963522,2,right_wrist,0.2479,0.447,0.2791,163.73,-111.16,10.99,-0.012360330147517931,-0.9580288779056756,-0.28632812354269677,-0.006640557653882474,178.42495257563718,-0.32346342117019655,33.28432426593152,3
1767650278.028791,1,left_wrist,-0.1854,-0.6251,0.6588,-68.25,-32.48,-20.86,0.1865800076322077,0.7028456651999109,-0.6551009300040246,0.20503327332294688,-179.5693529048193,-32.18609962849214,-86.0969198891065,3
1767650278.028791,2,right_wrist,-0.3279,0.1806,0.4548,120.89,-51.73,14.63,0.03125955262560808,-0.9590578736985464,-0.2797955072750661,0.03074588387342542,-175.57057682761234,2.3774027062042395,32.62010488370021,3
1767650278.125216,1,left_wrist,-0.426,-0.1986,0.631,-43.82,40.74,30.38,0.2086877855871553,0.6865156905849381,-0.6648660982178856,0.20760223064297703,179.27374090614907,-34.2318631911339,-87.94071132159192,3
1767650278.125216,2,right_wrist,-0.3279,-0.1669,0.5885,-34.51,58.59,-12.53,0.034321380551525,-0.9590708302231443,-0.28098755314076024,0.007154050048353006,-175.99435543280472,-0.3188687043915632,32.64779536921465,3
1767650278.176812,1,left_wrist,0.1176,-0.0522,0.0337,98.14,102.69,50.4,0.2170685181893324,0.648306323470559,-0.6603539391586001,0.3106651644405826,-169.75308803579742,-43.590264363405915,-95.1615678435484,3
1767650278.176812,2,right_wrist,0.0805,0.2391,0.3597,-94.64,136.29,-22.26,0.01079321391945538,-0.9555859540196412,-0.28782455258192935,-0.06241808988324599,179.1161662506116,-7.209908493433307,33.58051338016787,3
1767650278.2284238,1,left_wrist,0.3416,-0.3806,-0.1283,188.3,112.0,70.77,0.18416759005470695,0.6258568790420241,-0.6409850911275222,0.40438048751325834,-154.55769427335105,-47.924801597253655,-102.82719081121543,3
1767650278.2284238,2,right_wrist,0.3831,0.3338,0.0322,-150.71,169.82,-27.02,-0.032390434040404786,-0.943172777603191,-0.2927248320239861,-0.15390953215277203,170.96134730317928,-15.745424706018898,35.73707421061546,3
1767650278.281937,1,left_wrist,0.8179,-0.4241,-0.3924,118.72,153.16,70.77,0.18140925567456295,0.5843918700790508,-0.6236218557652701,0.48649008741493516,-139.417266795642,-52.64234186011595,-114.45046243858019,3
1767650278.281937,2,right_wrist,0.8345,0.7842,-0.4451,-135.59,178.22,-20.3,-0.06807737312475617,-0.9213882516638452,-0.29298711023004215,-0.24610508772336387,162.77127350719383,-24.43276148621273,39.0368614897427,3
1767650278.366944,1,left_wrist,1.2063,-0.6744,-0.6656,118.65,181.72,48.02,0.18728623304901854,0.5370696506537495,-0.5936055273455557,0.5693088223115581,-120.67818687064876,-56.49786625716908,-129.75138012971118,3
1767650278.366944,2,right_wrist,0.9755,1.3605,-0.4685,-189.84,156.73,-10.36,-0.16014105471088985,-0.8507923226530335,-0.2721442099130946,-0.42005332437860515,139.93396676539666,-38.87278774498379,50.13927835359077,3
1767650278.425353,1,left_wrist,1.3942,-0.8316,-0.8423,79.87,171.78,73.92,0.1757841269218018,0.4277807807856126,-0.5426114185073638,0.7011964010305658,-85.77049087801855,-52.249257204551554,-159.16868026348817,3
1767650278.425353,2,right_wrist,1.4235,1.0956,-0.3924,-133.49,178.92,0.0,-0.18852936901398978,-0.8030286345187119,-0.2583069260184481,-0.5028709786148927,126.94937465731962,-45.254666071979216,59.16772838722468,3
1767650279.020298,1,left_wrist,0.3211,-0.4221,0.0942,-45.71,-164.01,-47.11,0.09530193408916908,0.7127944961667522,-0.5774478314877406,0.3865172046666946,-155.55249168594955,-41.38217443548091,-87.37857393588129,4
1767650279.020298,2,right_wrist,-0.0727,0.222,0.7637,103.6,-133.49,-0.28,0.0458491487539748,-0.9595951596065271,-0.27720700056299563,-0.01520736851420875,-175.42977321402117,-3.130206935422824,32.10086421088323,4
1767650279.0785222,1,left_wrist,-0.1649,-0.2455,0.6276,-59.92,19.04,-9.45,0.14666245279090756,0.7244136818119847,-0.5898136563274954,0.3253225988992317,-167.05823198984461,-40.11645757484938,-83.04738719606004,4
1767650279.0785222,2,right_wrist,-0.3167,-0.0844,0.731,60.83,-6.58,-6.51,0.07067531615340078,-0.9572788004258439,-0.2803576832255844,-0.004676259002360463,-172.36587217090536,-2.784622646872326,32.46156391629297,4
1767650279.166792,1,left_wrist,-0.1742,-0.1225,0.4275,-27.86,73.29,26.39,0.17038457848650065,0.7046095169805292,-0.597069329475528,0.3435152686476778,-166.452720454837,-43.43656587386686,-85.97166170653409,4
1767650279.166792,2,right_wrist,-0.0156,0.0732,0.51,-97.79,100.17,-24.5,0.05319920874736188,-0.9525370397312974,-0.28978939406619325,-0.07658419690340748,-176.6822773380885,-10.179448200781092,33.546982876115074,4
1767650279.2174048,1,left_wrist,0.042,-0.0195,0.2211,38.5,101.64,39.27,0.17940971203779407,0.6805997160557495,-0.5947159556022634,0.3884702226470331,-161.03156160852117,-47.91754331088373,-90.78588572727946,4
1767650279.2174048,2,right_wrist,0.3104,0.4133,0.305,-153.65,174.23,-37.73,0.009106826791503797,-0.9402532996458037,-0.2948161290144548,-0.17007130352855013,174.95527361320885,-18.977079657775192,35.66129066671944,4
1767650279.275541,1,left_wrist,0.6983,-0.9916,-0.2357,113.61,192.5,54.46,0.15166164590883974,0.6031444016470776,-0.5417348398794676,0.5654546305255429,-126.20199228438796,-57.82465437995328,-115.16415588617483,4
1767650279.275541,2,right_wrist,0.6232,0.7593,-0.1127,-113.26,202.72,-44.31,-0.016156169413774027,-0.914316658020974,-0.30229828961746413,-0.2690348883501663,167.32665819696874,-28.82906829298104,39.86046550646525,4
1767650279.3673542,1,left_wrist,1.1785,-0.4319,-0.4524,208.6,172.76,59.36,0.1255947740004081,0.5588257235290257,-0.48946716423357656,0.6575421344698665,-101.64499198549636,-59.07624919002614,-132.00230772804522,4
1767650279.3673542,2,right_wrist,1.1629,1.1336,-0.6007,-186.2,217.14,-18.76,-0.11594491636222164,-0.8225926817823817,-0.2777506761225226,-0.4824444197638816,137.8944018482807,-46.827988872077164,56.24115907579246,4
1767650279.418709,1,left_wrist,1.5143,-1.1644,-0.7652,107.31,207.06,49.56,0.12713628721770961,0.49358972042491545,-0.459595527659918,0.7273083962930383,-80.56052756642578,-56.59985123751306,-150.77492494040226,4
1767650279.418709,2,right_wrist,1.5582,1.157,-0.7686,-150.43,181.16,-9.31,-0.15120968327292522,-0.7693654068390035,-0.2572723815657206,-0.5648215861026012,121.14425150413358,-52.3075612118497,67.94621628419753,4
1767650279.979008,1,left_wrist,0.2582,-0.5505,0.3821,-111.23,-110.18,-59.92,0.12372650530104987,0.7237250922232843,-0.5518067177154845,0.3955035891827677,-158.59236286896345,-45.15507128358863,-83.63550693077693,5
1767650279.979008,2,right_wrist,0.2123,0.3972,0.2567,174.09,-155.68,17.71,0.0304484125324408,-0.9606206636842324,-0.27096693854027554,-0.05345795446170489,-178.295764488507,-6.846318762015716,31.402900921991503,5
1767650280.0660632,1,left_wrist,-0.0908,-0.3665,0.7032,-107.17,-55.93,-31.85,0.14916566877683857,0.7337159087108983,-0.5624801113492743,0.35075161139958727,-166.09078673504973,-43.04005828691059,-80.45632808896961,5
1767650280.0660632,2,right_wrist,-0.4104,-0.0913,0.7188,39.13,47.74,6.02,0.08112249640197244,-0.960836753062684,-0.2644829119393718,-0.016145086978434947,-171.50314245297756,-4.240125130931097,30.465409054444077,5
1767650280.117298,1,left_wrist,-0.2435,-0.1376,0.5695,-64.33,19.81,-8.82,0.1758676967775138,0.7280426781268594,-0.5679917662801385,0.3411887534694119,-169.43853438992065,-44.153476899081255,-80.21378722745087,5
1767650280.117298,2,right_wrist,-0.1049,0.1059,0.4597,-34.65,85.19,-5.04,0.07616415628106078,-0.9601202578896672,-0.2631114786224781,-0.05603982070783663,-173.21992142448653,-8.493039557058616,30.146199811684014,5
1767650280.1687622,1,left_wrist,-0.1649,-0.0722,0.3582,42.49,66.43,23.45,0.1751497143588823,0.7148124706382966,-0.5636025182666322,0.37512386058938846,-165.29775989081813,-47.19883652852318,-82.96060276251372,5
1767650280.1687622,2,right_wrist,0.1293,0.1947,0.1649,-90.86,103.46,-26.46,0.0484128499854216,-0.9556439265826198,-0.26814918140193317,-0.11178952569679562,-178.0770221313401,-13.864449625277697,31.113913739172606,5
1767650280.230798,1,left_wrist,0.3582,-0.5485,-0.0937,135.17,135.31,54.81,0.15703144854078635,0.6561718187128881,-0.5339612941952021,0.5095733556590137,-141.9096815153918,-56.76532533736228,-99.40480601972119,5
1767650280.230798,2,right_wrist,0.4778,0.5353,0.0063,-171.29,139.58,-33.39,-0.009801658611428574,-0.9435633059364266,-0.26961675878787456,-0.19209117251843588,172.48981512162771,-20.929256642890444,33.282907388310164,5
1767650280.315098,1,left_wrist,0.7759,-0.5534,-0.1737,174.79,144.97,58.31,0.12565680296598364,0.6167881387364323,-0.49906661439207994,0.5955797798629858,-120.51239195927535,-59.32953328240113,-114.01098083186157,5
1767650280.315098,2,right_wrist,1.1019,1.1341,-0.3167,-183.19,213.78,-15.75,-0.12344416587330606,-0.8745886496940605,-0.2566184777112459,-0.3924324000835387,147.75306107226456,-38.54123719765133,44.24738917719527,5
1767650280.367815,1,left_wrist,1.3825,-0.8364,-0.6276,105.42,197.05,56.49,0.12274973976354604,0.5573999595043796,-0.4761760084416383,0.6689500695246892,-98.51300212876974,-59.61503699420953,-133.54698332447944,5
1767650280.367815,2,right_wrist,1.486,1.3093,-0.5519,-208.46,211.89,9.73,-0.17793134239593533,-0.8193449794471431,-0.22651111018250678,-0.4956883688486439,130.78432428495614,-47.0268063741566,53.44697604983037,5
1767650280.429058,1,left_wrist,1.4928,-0.9579,-0.8594,48.58,197.26,64.47,0.09835201407497593,0.43045103926059425,-0.413573615925179,0.7962384368626289,-63.405402751357215,-50.070512129248876,-161.89838855605058,5
1767650280.429058,2,right_wrist,1.3674,1.2468,-0.7906,-111.16,171.43,-8.26,-0.20553559417115316,-0.7679518422569255,-0.2195979298543697,-0.5654925611416837,116.06917664785983,-51.102607523727094,65.13924661367317,5
1767650280.9644868,1,left_wrist,0.7315,-0.9292,0.1137,-139.3,-157.64,-57.47,0.07048362246217625,0.717018938732794,-0.4747812524304359,0.5054687555167914,-141.65922845087954,-52.35310079509653,-86.41727924149824,6
1767650280.9644868,2,right_wrist,0.4699,0.4285,0.2816,190.68,-151.9,22.54,-0.013268270299573854,-0.9695657609068198,-0.22088770995614618,-0.10476071721197033,175.78764558725464,-11.378133522262734,26.088121149376015,6
1767650281.017932,1,left_wrist,0.2542,-0.3445,0.2684,-113.26,-111.51,-49.56,0.09296486241109087,0.7454265591572918,-0.4863630382908693,0.44625976095126674,-153.1781331406204,-49.08981786401216,-78.67446520224127,6
1767650281.017932,2,right_wrist,0.1264,0.039,0.2977,65.66,-123.06,21.21,0.0036239849634358626,-0.9757550826624575,-0.21375056198538808,-0.04689970833913935,179.25318490212126,-5.340506594372872,24.747089639051726,6
1767650281.078351,1,left_wrist,-0.2401,-0.3221,0.4714,-73.99,-20.65,4.55,0.11590116480353355,0.7623932040444401,-0.50869762009517,0.382818826252768,-162.62731617677676,-44.55826651285737,-74.58879689253014,6
1767650281.078351,2,right_wrist,0.1264,0.039,0.2977,65.66,-123.06,21.21,0.02054531560921071,-0.9783064054541799,-0.2058330919277074,0.011278533651130107,-177.42963006449898,0.7798145786281334,23.78066139508279,6
1767650281.167284,1,left_wrist,-0.2645,0.0063,0.5187,8.54,50.61,23.38,0.12035516910381933,0.7486702546096967,-0.5122901746311724,0.4031950645890966,-160.1720539647591,-46.63830372525539,-77.38225397088644,6
1767650281.167284,2,right_wrist,-0.1127,0.0508,0.4358,-44.94,112.21,-18.06,0.006836054351211821,-0.9739420207651589,-0.2188323229067712,-0.05918296207535442,179.27373265896554,-6.792468740721799,25.36975047834335,6
1767650281.227978,1,left_wrist,0.2328,-0.1581,0.0425,43.4,129.22,48.23,0.13370039569499292,0.6847930761914685,-0.5127325400246731,0.5002879065009219,-144.5672766225365,-55.31494221103594,-92.6555152304581,6
1767650281.227978,2,right_wrist,0.1,0.1557,0.1908,-87.22,161.14,-21.56,-0.016151104415959672,-0.964669355892105,-0.22457724738330306,-0.1368109483433058,174.50142092481016,-14.874360349912376,26.928639505309278,6
1767650281.315818,1,left_wrist,0.549,-0.5963,0.0005,213.92,153.16,44.66,0.0920189071521835,0.6473832957376083,-0.46721849954888267,0.5950918104004799,-122.16667799626033,-58.92483162533318,-106.29829275356408,6
1767650281.315818,2,right_wrist,0.9633,1.1961,-0.4519,-152.11,193.06,-23.73,-0.10410585070609253,-0.9151298625123491,-0.22685798926198208,-0.31659873546004585,156.7503721040063,-32.15580625888234,34.63205938530404,6
1767650281.374123,1,left_wrist,1.404,-1.3513,-0.669,123.83,215.11,44.87,0.08279313293481183,0.5203376511487581,-0.40946091024470777,0.7448058733102253,-76.76576840795057,-57.44786365998147,-145.75520824681996,6
1767650281.374123,2,right_wrist,1.2063,0.9945,-0.528,-162.4,161.07,-21.28,-0.15691402020972248,-0.8774473950817838,-0.21901400821038677,-0.39685882040523635,144.75657422955015,-38.88157346794359,40.82333201786554,6
1767650281.426833,1,left_wrist,1.6738,-0.7237,-0.6417,90.65,182.84,73.15,0.07135977860199878,0.4523062805215838,-0.3895488758249409,0.7991110585782983,-62.75521897144801,-51.121811286041584,-157.68322486298237,6
1767650281.426833,2,right_wrist,1.3674,1.2293,-0.6027,-106.47,168.07,-22.05,-0.18668021480784447,-0.8338925699603134,-0.21968362560871738,-0.4706514461931351,133.24214655422807,-44.66209562851671,49.65626523889418,6
1767650281.965287,1,left_wrist,1.1405,-0.8516,-0.1132,-109.41,-213.92,-116.41,0.11562734452336547,0.6847341606472314,-0.4673098500381393,0.5471662914494444,-136.6875629878901,-59.02528386455582,-93.95960674896043,7
1767650281.965287,2,right_wrist,0.6939,0.7666,0.0639,154.14,-197.68,15.4,0.0018562278968221224,-0.9644101552349778,-0.2621155910034043,-0.034713453452189624,179.16050731489744,-3.8950505703827885,30.438632306059553,7
1767650282.0160902,1,left_wrist,0.5651,-0.6798,0.0874,-69.58,-195.79,-101.29,0.11848653221265948,0.7434499773930213,-0.46174180201205445,0.46908163583026263,-154.20813647447304,-53.79393920795527,-76.93655053450304,7
1767650282.0160902,2,right_wrist,0.1552,0.2786,0.3806,95.13,-191.1,5.95,0.019484324221846,-0.9637537940634362,-0.26010162489215033,0.056090375880476044,-176.15501877320386,5.6227935773784745,30.395637242386197,7
1767650282.0718431,1,left_wrist,0.2137,-0.6544,0.4158,-77.14,-138.32,-64.19,0.12746145737435097,0.7777232731201137,-0.4628939649069812,0.4057453198547554,-164.46894274711389,-48.51398513405451,-68.55430017843005,7
1767650282.0718431,2,right_wrist,-0.1,0.0278,0.5788,92.19,-89.39,10.29,0.04785431686856808,-0.9603819968590908,-0.2538263241235903,0.10463547031429758,-171.52640432841693,10.176827026075319,30.365084677315195,7
1767650282.1305358,1,left_wrist,-0.3392,-0.2928,0.6168,-23.8,46.76,31.71,0.15517950180261383,0.773398764205263,-0.4897246924083893,0.3714073227489911,-169.62599440639795,-46.592305833186686,-69.1617817079668,7
1767650282.1305358,2,right_wrist,-0.2064,0.019,0.6295,3.78,16.59,-6.02,0.05154222045432757,-0.9603129575626566,-0.2557842252890793,0.09857409974819206,-171.28932117872853,9.378549534107337,30.54537268703875,7
1767650282.218548,1,left_wrist,-0.0864,0.1332,0.1786,-6.23,107.87,49.21,0.17296573174404067,0.7438565077218285,-0.4990730731312061,0.40949532260760624,-165.94462457106692,-51.430879649898486,-74.51265385660797,7
1767650282.218548,2,right_wrist,0.0561,0.0122,0.1103,-99.82,134.4,-24.43,0.01680442923279075,-0.9611202696587595,-0.27513941178102935,-0.016240150677337525,-178.66003342346067,-2.319083824560546,31.922480569792295,7
1767650282.275208,1,left_wrist,0.6583,-0.224,-0.3328,148.54,114.52,68.95,0.12081343733307591,0.679350150859542,-0.47743032470457186,0.5440108187705199,-136.84160493521776,-58.70538576763637,-95.27719207924015,7
1767650282.275208,2,right_wrist,0.5256,0.591,-0.2323,-137.62,158.34,-26.46,-0.023671552003238665,-0.953457822406937,-0.2829106676794875,-0.1015844113529556,174.01152504971944,-10.388343186093355,33.59829686066858,7
1767650282.327258,1,left_wrist,0.7135,-0.5671,-0.3831,114.94,145.25,79.24,0.09370211919852385,0.630471191114279,-0.4664940709222972,0.6132774835480189,-116.88794618166659,-59.39870677011841,-111.60655935755963,7
1767650282.327258,2,right_wrist,0.832,0.6739,-0.3645,-162.05,171.71,-19.53,-0.07173011444019753,-0.9360803267678066,-0.2839884709837969,-0.19483059531027944,164.99415904881695,-18.90579610540922,36.26595720303276,7
1767650282.422204,1,left_wrist,1.0048,-0.6354,-0.3631,192.64,162.96,65.52,0.05323279712954236,0.5781084859440532,-0.42641168679755453,0.693635294049909,-93.46300538409791,-57.92903183959886,-127.86542781021534,7
1767650282.422204,2,right_wrist,1.3508,1.1663,-0.5768,-171.5,172.2,-5.32,-0.15128400540791265,-0.8724427271064198,-0.27001385193357075,-0.3782186634618226,144.9773432290434,-35.327599342595164,45.86874619484796,7
1767650282.479583,1,left_wrist,1.3088,-0.713,-0.527,164.57,138.18,61.88,0.02060903158035358,0.4573056551629819,-0.3783856192472195,0.8045316207087043,-63.40441307853394,-48.714404852609235,-151.68963632135973,7
1767650282.479583,2,right_wrist,1.2922,0.9516,-0.4943,-98.56,171.71,-11.62,-0.17070699070893094,-0.8314628128977226,-0.2678788630770035,-0.4558175389428094,134.89664266319616,-41.80004663472991,53.73706212536579,7
1767650283.068029,1,left_wrist,0.3997,-0.6056,0.0878,-113.61,-167.58,-89.39,0.06747459046548085,0.7572610816211642,-0.4542108621524054,0.4644301094957438,-150.2558725637977,-49.878983286268614,-75.9909413270198,8
1767650283.068029,2,right_wrist,0.3245,0.4065,0.205,136.85,-150.22,36.26,0.022360705260836562,-0.9584089535336696,-0.2833044594753379,0.02628421366753977,-176.68672213931143,2.1612667778831174,32.99773903420212,8
1767650283.124663,1,left_wrist,0.1913,-0.2899,0.2176,-81.69,-120.47,-74.76,0.08486279597227084,0.7912417135533958,-0.44848427828824267,0.40693575502913093,-160.57952685863145,-46.061775080310994,-67.41122170861483,8
1767650283.124663,2,right_wrist,0.0161,0.1132,0.3626,95.76,-117.46,11.55,0.04748186595155283,-0.9554542092967762,-0.2778825811694464,0.08737274990199874,-171.91226969935514,8.080978963284046,33.00513601234832,8
1767650283.18165,1,left_wrist,-0.3235,-0.1835,0.4221,-12.95,3.36,4.69,0.10816647785680843,0.8029924507616888,-0.45637316717386844,0.3677317899930349,-167.0843560276261,-43.5747437760738,-64.40367727056508,8
1767650283.18165,2,right_wrist,-0.3362,-0.0259,0.6437,43.75,-47.88,5.88,0.05970673030932414,-0.9529606685151673,-0.2745636659119559,0.11364798273565173,-169.67345471143537,10.592198913776828,33.1049580262408,8
1767650283.265067,1,left_wrist,-0.1527,-0.0254,0.3963,15.47,54.32,28.77,0.10888682658319852,0.7886553929047527,-0.4611996536536792,0.39174125351897376,-164.18555186769257,-45.917172143292,-67.37198324248537,8
1767650283.265067,2,right_wrist,-0.0024,0.062,0.3333,-79.1,115.99,-23.87,0.0343882782613014,-0.9557580319588981,-0.2907258139058415,0.028679815080700218,-175.27003684617654,1.9958326457020494,33.92022682747963,8
1767650283.320419,1,left_wrist,0.0761,-0.1937,0.3728,83.23,105.07,53.34,0.0917704635952365,0.7615843363680467,-0.4593129043128411,0.44788294959962494,-154.9770838048327,-50.0409802032909,-74.01486444108346,8
1767650283.320419,2,right_wrist,0.2562,0.4304,-0.0273,-140.07,137.13,-28.84,-0.007944221208280684,-0.9522442928094269,-0.3013514113367799,-0.04852857968866631,177.44666325697128,-5.0275143635225845,35.23356374038176,8
1767650283.380339,1,left_wrist,0.6251,-0.4875,-0.3518,80.92,178.57,58.38,0.0319257537420667,0.6606498642176025,-0.4348527265513523,0.6110855990514904,-117.16793929112067,-56.63596483876806,-103.142429107319,8
1767650283.380339,2,right_wrist,0.6539,0.6344,-0.0293,-175.63,171.22,-21.0,-0.05978226714233426,-0.9394062423780252,-0.305126324019517,-0.14436037789801773,168.10158462239133,-13.57652076237505,37.40975176054438,8
1767650283.472799,1,left_wrist,1.0853,-0.7515,-0.3065,225.54,200.55,30.8,-0.006710686705702067,0.596700165046537,-0.3790484985850965,0.7072666508734577,-89.9429029956722,-57.03097682874423,-121.92967768374518,8
1767650283.472799,2,right_wrist,1.484,1.0936,-0.8023,-170.87,221.97,0.0,-0.15077056243998893,-0.8801333462532379,-0.28829670278141883,-0.3457145375594867,146.99536003497568,-31.44074393485268,45.8069727540981,8
1767650283.5297642,1,left_wrist,1.5596,-0.8794,-0.7623,165.62,188.37,71.82,-0.02346471957047527,0.4437000164217799,-0.33118604912164723,0.8324034497946202,-55.93469509641857,-46.31371252095104,-151.18040675429572,8
1767650283.5297642,2,right_wrist,1.2259,1.321,-0.8623,-150.78,174.79,0.84,-0.18768199159366097,-0.8379182715398208,-0.2750933428262506,-0.43242582367827515,135.16172396045985,-38.4195291548365,52.710819594188294,8
1767650284.067563,1,left_wrist,0.7788,-0.7993,0.0649,-138.67,-184.1,-64.75,0.014957667492141372,0.7368172421489281,-0.39118113363106927,0.5512294808392909,-133.75750044785033,-55.488560613028625,-81.24405559895742,9
1767650284.067563,2,right_wrist,0.425,0.5348,0.2338,195.51,-161.21,20.16,0.0022585511978470293,-0.9570531115097126,-0.28795945877716317,0.033520005919263296,-178.643410981939,3.6039951074994256,33.53380696757353,9
1767650284.124595,1,left_wrist,-0.0298,-0.242,0.2342,-41.93,-80.71,-61.74,0.0610060177593245,0.8001761930326673,-0.3933114096103715,0.4486674280257028,-156.5995049013619,-49.99735018582502,-63.38230584107731,9
1767650284.124595,2,right_wrist,0.1479,0.4065,0.4314,135.31,-124.53,14.91,0.042155676820156356,-0.9539476037056425,-0.2789260519484192,0.10201532159712519,-171.9872153475181,9.85282306706992,33.2887075924986,9
1767650284.1772952,1,left_wrist,-0.2674,-0.1059,0.5866,-43.96,-15.82,-27.37,0.07878469002596399,0.80621372222938,-0.39269115807833904,0.43543778094425123,-160.5406753157725,-49.81703769656782,-61.04453948829263,9
1767650284.1772952,2,right_wrist,-0.2362,-0.2655,0.7871,34.02,-58.59,-9.59,0.05001452535112521,-0.9489876960298184,-0.28235001807604043,0.13114635843353936,-170.02283493431474,12.748350570030476,34.25574192525558,9
1767650284.265412,1,left_wrist,-0.1488,-0.3528,0.4377,-65.87,42.63,-0.28,0.10858089350617448,0.794811862796164,-0.40371781083491637,0.43988205412196024,-162.78977721446913,-51.89851515497001,-62.279262951533084,9
1767650284.265412,2,right_wrist,-0.0307,0.059,0.3382,-63.0,97.44,-27.02,0.04986401503265796,-0.9512122649933933,-0.2986508507551519,0.05929988426789273,-172.48799858715552,4.76273406089547,35.17415576464,9
1767650284.318261,1,left_wrist,0.0913,-0.2508,0.326,56.07,94.57,47.6,0.09594044506843402,0.7688679881682702,-0.40447461479889757,0.4858371473584859,-154.27505075194296,-55.558108911441344,-69.21222182971293,9
1767650284.318261,2,right_wrist,0.2479,0.1703,0.0527,-102.83,136.08,-25.48,0.02488786396344093,-0.950922850608475,-0.3081450409982227,-0.01315143057590223,-177.7500035446091,-2.3125202678043766,35.86425110213964,9
1767650284.37288,1,left_wrist,0.3406,-0.12,0.0766,88.97,136.78,72.24,0.07489317032253616,0.7270280566324243,-0.4022446890495259,0.5513804748445218,-138.6837331872371,-59.5406364573323,-82.25023171134798,9
1767650284.37288,2,right_wrist,0.7208,0.5978,-0.2928,-113.89,175.98,-34.51,-9.530116568668445e-05,-0.9421406848170516,-0.3185607716304812,-0.10435495056937673,176.10128218703738,-11.336650208448624,37.75041657716017,9
1767650284.4282959,1,left_wrist,0.9331,-0.4748,-0.366,104.72,191.94,60.13,0.01796795581219109,0.6137109391119141,-0.3599659930255733,0.702467450949449,-91.47251255459669,-61.063872723478,-120.5697886208969,9
1767650284.4282959,2,right_wrist,0.713,0.8164,-0.2933,-199.99,148.54,-31.64,-0.06449163513461305,-0.9247576963894502,-0.3205187840062033,-0.19476072772847686,165.07389612227064,-18.594685846226657,40.68945514560914,9
1767650284.515272,1,left_wrist,1.3708,-0.9287,-0.6578,102.97,182.77,48.16,0.003657780603378456,0.5508923025072634,-0.34045486397558206,0.7619677009392664,-72.61141032641477,-57.35350379907163,-136.76329461653015,9
1767650284.515272,2,right_wrist,1.32,1.1258,-0.7242,-153.44,171.64,-15.61,-0.1533134826510797,-0.8602101881850279,-0.31266287117718683,-0.37252561947779367,143.66948683213823,-33.02670002241455,51.06148580105773,9
1767650284.56555,1,left_wrist,1.5162,-0.7686,-0.5802,171.78,169.61,58.52,-0.03122415062726839,0.4864314920972638,-0.2968243195188794,0.821160629387326,-55.9042922339582,-51.291771541531745,-147.05931335894965,9
1767650284.56555,2,right_wrist,1.3196,1.3503,-0.6676,-159.81,127.26,1.61,-0.1965633945700023,-0.8240465828662943,-0.2929817185224229,-0.44325136637482426,132.22853270605617,-37.97667199559008,56.47303703807049,9
1767650285.174741,1,left_wrist,0.3709,-0.5168,0.1942,-33.53,-152.04,-58.8,0.023172285439000084,0.8186783682647608,-0.32800100042946956,0.4707909496158026,-154.00867908482246,-51.8182470444902,-56.46018320670139,10
1767650285.174741,2,right_wrist,0.0024,0.2069,0.4275,82.67,-128.24,-5.32,0.04191558250736907,-0.9394297293221374,-0.3004642210837441,0.159487051064789,-169.5389826278514,15.930163321895591,36.94007951850294,10
1767650285.229409,1,left_wrist,-0.2796,-0.1342,0.4865,-74.69,4.55,8.96,0.07377931455873263,0.8294988984432909,-0.3607137572715715,0.41996877924392934,-164.1579966751082,-48.58636801239821,-54.19147928648733,10
1767650285.229409,2,right_wrist,-0.2972,-0.2362,0.6803,10.43,-43.61,0.07,0.040783743967047204,-0.9358304724212742,-0.30040233083298434,0.17976777449230225,-168.81244212355907,18.177464894838984,37.388604642319976,10
1767650285.321287,1,left_wrist,-0.326,0.0903,0.5714,-54.81,68.46,39.27,0.09732536063157274,0.8079906023913256,-0.38243933601712377,0.437514702486692,-163.485061566743,-51.39422892371191,-58.647991847084235,10
1767650285.321287,2,right_wrist,-0.0893,-0.0181,0.2137,-93.31,109.9,-7.56,0.02611898848311821,-0.9466934533354915,-0.3054148794114924,0.09905077125597651,-173.59176107375913,9.880113767482474,36.315137681028986,10
1767650285.375274,1,left_wrist,0.3343,-0.2142,-0.082,101.15,140.7,69.51,0.0419792378991556,0.7371681890782185,-0.3827032810454249,0.5553008223239115,-136.28145447990215,-58.30221110850657,-80.09776758353853,10
1767650285.375274,2,right_wrist,0.2889,0.386,0.0195,-129.22,122.71,-22.68,-0.011217890376408734,-0.947588971059118,-0.3179872700778435,0.02886861498349927,179.83351217395037,3.5457463392417496,37.09578822995419,10
1767650285.429483,1,left_wrist,0.6037,-0.3806,-0.2489,161.7,161.49,72.38,-0.004224147566334356,0.6830018705350962,-0.3635084307270971,0.6335236556066559,-112.9276041376452,-59.578605872944074,-97.60141712547576,10
1767650285.429483,2,right_wrist,0.507,0.6315,-0.1942,-178.57,160.58,-19.6,-0.06378162702414701,-0.9405874064259055,-0.32721637626663086,-0.06447230436455352,170.6367763779844,-4.562291493992548,38.73786280459387,10
1767650285.521109,1,left_wrist,1.0892,-0.609,-0.5392,94.85,185.01,35.0,-0.012906114893440684,0.6259456350689749,-0.3480240242012836,0.6977856208859561,-92.94950318834648,-59.83346448963143,-115.46370952147467,10
1767650285.521109,2,right_wrist,1.0321,1.3,-0.5549,-120.33,213.92,8.47,-0.14506364690654983,-0.8924552984776329,-0.32580436914084276,-0.27628172508167853,151.4045672861315,-23.491526424793694,46.17730360216168,10
1767650285.574311,1,left_wrist,1.2956,-0.7632,-0.447,191.24,161.84,19.11,-0.09749973165966856,0.5038591499644102,-0.2227300243129199,0.828861324705768,-49.94431074490044,-52.356528901288705,-140.79186479264055,10
1767650285.574311,2,right_wrist,1.34,1.321,-0.5236,-171.64,168.98,12.32,-0.1866248817361359,-0.8568961219648171,-0.3087106659327479,-0.36823622094789904,140.30209831308017,-31.054567765819613,51.07950132095388,10
1767650286.1141582,1,left_wrist,0.7984,-0.8301,-0.0098,-145.04,-192.92,-35.35,-0.04444179181644335,0.7673377829058534,-0.2690875106017473,0.5803529664811128,-130.27489082555718,-60.0815351368509,-68.65228461426283,11
1767650286.1141582,2,right_wrist,0.5002,0.5319,0.1635,172.13,-162.26,4.9,-0.02812567059877307,-0.9605686804073216,-0.2730692145399265,0.04415836211244624,178.27697051778443,5.750387388990435,31.652100078970747,11
1767650286.176356,1,left_wrist,0.3889,-0.4241,0.2674,-78.68,-146.23,-30.94,-0.028563236841961572,0.806009872679879,-0.27541863780964393,0.5231412816732736,-143.46087021679324,-55.85098091959096,-57.581785469919694,11
1767650286.176356,2,right_wrist,0.1342,0.2948,0.2782,157.43,-131.32,9.52,0.021278592336248507,-0.9573455273796069,-0.2632968500349035,0.11709624877060566,-173.9838278091584,12.298098903209999,31.404230322105448,11
1767650286.229528,1,left_wrist,-0.1366,0.0498,0.3558,-75.95,-49.84,-22.54,0.016341671111003226,0.8398674784215204,-0.28901388342279627,0.4591585169242219,-157.61700155710875,-51.325678920264345,-48.83916011033765,11
1767650286.229528,2,right_wrist,-0.2157,0.021,0.57,76.3,-68.39,0.49,0.04522376191229767,-0.9521235428990755,-0.2594935770011301,0.15517298060864465,-170.02722508363553,15.78433403363871,31.876347428920436,11
1767650286.3148842,1,left_wrist,-0.2191,-0.2123,0.4973,3.01,11.83,13.37,0.013431501140337355,0.8352988917333486,-0.2934175464326143,0.464759614953388,-156.20496662668967,-51.65676432022894,-50.355648258462196,11
1767650286.3148842,2,right_wrist,-0.0571,-0.0176,0.3255,-41.51,66.01,-23.38,0.04877078233132486,-0.95405379820851,-0.27099972782586335,0.11816051977295199,-170.77510557714857,11.480197839610444,32.643753441623986,11
1767650286.376765,1,left_wrist,0.1981,0.1362,0.1493,133.91,135.94,51.8,-0.032078730485960424,0.7742784631708213,-0.2876760957760519,0.5627666305310648,-134.3063142475432,-58.54163210503333,-67.33853437141276,11
1767650286.376765,2,right_wrist,0.163,0.205,0.2533,-144.97,114.45,-52.85,0.0039653979647039225,-0.9534657438346245,-0.2970997704427985,0.051176922100732436,-177.81395550988307,5.464825302159675,34.718394589513686,11
1767650286.42686,1,left_wrist,0.4255,-0.4846,0.1835,270.69,168.07,23.31,-0.10892782313812546,0.717207706231982,-0.22933831650239475,0.6489620728915486,-106.44326149262801,-61.75336710610085,-83.63049614454587,11
1767650286.42686,2,right_wrist,0.3919,0.4577,-0.0015,-176.12,147.14,-50.96,-0.05021223992229059,-0.9453356523302442,-0.3203058342088974,-0.03497724927835623,173.25738406950364,-1.9463644427613593,37.55026838915357,11
1767650286.51668,1,left_wrist,0.7837,-1.0687,-0.0625,144.48,217.84,-5.18,-0.13350223509500062,0.6434142754426699,-0.19848139180734783,0.7271866063724233,-78.55202580477527,-61.97822005700502,-106.87660903727286,11
1767650286.51668,2,right_wrist,1.2317,1.0751,-0.508,-157.71,172.2,-5.11,-0.13788806371905638,-0.9083247568263062,-0.32013955292786556,-0.23117890187339238,155.01211122353322,-19.371031098160405,43.161667497086185,11
1767650286.571809,1,left_wrist,1.4904,-0.7818,-0.5505,46.41,223.23,-0.35,-0.1260776069161625,0.5702848371296522,-0.19663327949235915,0.787537297510651,-59.02568344158098,-58.066118688266236,-126.92341641647408,11
1767650286.571809,2,right_wrist,1.2834,1.405,-0.7549,-114.8,201.74,16.1,-0.15422664278505255,-0.8775751321692727,-0.31222092577483884,-0.32953622496113816,147.05502835663577,-28.821339869825724,47.858653929561385,11
1767650286.632242,1,left_wrist,1.6807,-0.854,-0.6461,-7.63,185.57,60.06,-0.14730907922136682,0.422318339221901,-0.2093422698866124,0.8695533736203482,-41.320026051017535,-42.28204033598143,-144.1782165998453,11
1767650286.632242,2,right_wrist,1.2903,0.8794,-0.6432,-114.8,162.12,-2.8,-0.17603412628058052,-0.8416686126496735,-0.3055908618631325,-0.4089256142756949,137.85441164404378,-35.50477968057821,53.97463499252818,11
1767650287.219379,1,left_wrist,0.2191,-0.4524,0.2708,-106.19,-142.87,-39.76,-0.04118238883482166,0.8096031226095814,-0.25334913302101475,0.5278835207772381,-142.74011640053416,-56.499940466832484,-55.28743647135731,12
1767650287.219379,2,right_wrist,0.0532,0.266,0.4343,113.05,-119.98,8.82,0.04477326915828523,-0.9343106770586888,-0.3010738933412726,0.18550855465811372,-168.1009596230495,18.643883452999066,37.68229507950701,12
1767650287.283361,1,left_wrist,-0.2567,-0.183,0.5763,31.01,2.52,11.27,-0.03942846907793915,0.8306096982844103,-0.2528635097481917,0.49456341391158015,-148.13295549153807,-53.28683391454846,-50.166237975856696,12
1767650287.283361,2,right_wrist,-0.285,-0.2157,0.7862,73.29,-26.11,-14.49,0.07277126697026841,-0.9280634486835715,-0.301322556583796,0.2064153453958857,-163.98861688148074,19.832881456721086,38.791993271203815,12
1767650287.3637109,1,left_wrist,-0.2913,-0.0185,0.5895,20.09,65.59,15.26,-0.04307237136468041,0.8134801391667804,-0.25508173128952055,0.5208916819921003,-143.4880865596537,-55.63882314613504,-54.567672095625745,12
1767650287.3637109,2,right_wrist,-0.0244,0.0971,0.3065,-61.81,121.8,-20.86,0.0748209255619607,-0.9409777611870447,-0.30721904608150674,0.12074410865229615,-167.37195333970425,10.443288907829269,37.32130648546279,12
1767650287.416702,1,left_wrist,0.0044,-0.0581,0.2996,55.16,112.77,31.85,-0.0576647972644496,0.7809752762628309,-0.2554410403619589,0.5670116964591161,-132.6939519801499,-58.89082077122353,-63.99978024587415,12
1767650287.416702,2,right_wrist,0.4797,0.4621,-0.0712,-126.77,155.75,-22.89,0.04359746578163893,-0.9466881199723627,-0.31708450502246666,0.03658252527190347,-173.92457356094997,2.3851284469377076,37.16219447425287,12
1767650287.4706821,1,left_wrist,0.4211,-0.2826,0.1786,122.43,166.46,36.54,-0.09041946570634848,0.7275293544529056,-0.24054811873295276,0.636130459265043,-111.72037634604803,-61.897547023925426,-80.84468812583832,12
1767650287.4706821,2,right_wrist,0.5651,0.6446,-0.5134,-184.66,154.14,-23.17,-0.012812962561619937,-0.9440126463055192,-0.324891567945674,-0.0558696758845698,176.51530402083824,-5.575522347480727,38.152583085223874,12
1767650287.527034,1,left_wrist,1.0507,-1.0858,-0.4856,117.46,210.91,20.58,-0.13314228914372395,0.5909284203806145,-0.2064610807710734,0.7684078051105944,-65.49546105338135,-58.5582165107233,-120.67930365150613,12
1767650287.527034,2,right_wrist,0.9004,0.8203,-0.6539,-150.5,144.55,-17.5,-0.0559845253091383,-0.9327556013832884,-0.32775476801831244,-0.13931810024283497,168.41446722629087,-12.897118098706162,40.03514155945602,12
1767650287.5771708,1,left_wrist,1.5611,-0.7818,-0.4455,96.95,200.06,30.03,-0.14884010697329486,0.5164544345416756,-0.19325171899100055,0.8208381160164526,-50.24031120681802,-52.215777391942844,-133.56388714854035,12
1767650287.5771708,2,right_wrist,1.0165,1.0912,-0.5344,-147.21,178.78,2.38,-0.09129613836999015,-0.9131472738459023,-0.32033637135123133,-0.2349716590911555,160.02541758413372,-21.754878007247992,42.538438652044306,12
1767650287.666461,1,left_wrist,1.5972,-1.2581,-0.6407,75.81,191.45,35.07,-0.16171121009798078,0.4414908273046698,-0.18753640198520122,0.8624183624349205,-40.8174699562695,-44.494927454628,-141.4518308153668,12
1767650287.666461,2,right_wrist,1.4132,1.3664,-0.5958,-100.66,190.33,-2.8,-0.14233036596914636,-0.8446549210606631,-0.3124233629740215,-0.41072104099875,141.37405376183852,-37.221677503512645,54.05817198291264,12
1767650288.1873531,1,left_wrist,0.2933,-0.4934,0.0425,-148.19,-149.38,-49.98,-0.07597307964687194,0.7993050855738266,-0.23273986374213862,0.548791059666681,-135.69159267066686,-57.34544760806177,-57.574394200675826,13
1767650288.1873531,2,right_wrist,0.5427,0.8115,0.0244,167.37,-164.99,19.11,0.005902257748120247,-0.9489827882072362,-0.30847813897785514,0.06510045170852356,-177.03420515140792,6.887311364998873,36.19324587968193,13
1767650288.270449,1,left_wrist,0.0664,-0.1659,0.2162,-64.54,-113.54,-41.93,-0.05580192240175898,0.8304479979779763,-0.2296266377501804,0.5044936821667708,-146.21115235658715,-54.31971996820167,-48.62650093761831,13
1767650288.270449,2,right_wrist,-0.0844,0.0156,0.5592,103.04,-68.88,4.13,0.06487904852829984,-0.9375490958592098,-0.28930741927429915,0.18191651675558698,-166.2224497891074,17.672233619295742,36.45009249499211,13
1767650288.3241441,1,left_wrist,-0.3518,-0.5807,0.7369,-95.48,7.0,-10.01,0.005551523745525239,0.8461467587969941,-0.25121419533541217,0.4699960331996703,-157.89074514321504,-52.9547987618823,-44.18755964356236,13
1767650288.3241441,2,right_wrist,-0.2064,-0.0176,0.751,49.0,-5.25,-19.39,0.08596015323698605,-0.9328857078506921,-0.2933592921960619,0.19046110843322414,-163.3971129745071,17.753499728573196,37.523892366738416,13
1767650288.375073,1,left_wrist,-0.0376,0.1479,0.6661,70.84,88.2,44.94,-0.019972491598785214,0.8215089278631632,-0.2524155767487077,0.5108919236346077,-148.64754712397468,-56.02913510433049,-51.14426609102187,13
1767650288.375073,2,right_wrist,-0.3484,-0.3123,0.852,-96.74,84.14,-30.8,0.060151914609204805,-0.9378607014723309,-0.3102949523115391,0.1432344035930409,-168.03333540693342,13.375867945711807,38.0222642805188,13
1767650288.434716,1,left_wrist,0.1688,-0.2113,0.1122,62.02,183.05,78.82,-0.04090653978318686,0.7665747080343885,-0.2677410701357946,0.5822410079747887,-130.3932094871144,-60.54681350041782,-68.69935363604253,13
1767650288.434716,2,right_wrist,0.264,0.0737,0.1654,-122.36,132.58,-19.6,0.02918552005498055,-0.9438010154736635,-0.3216304042543713,0.07029745137038555,-174.20511125995856,6.54131955131696,37.96780862747873,13
1767650288.516883,1,left_wrist,0.6925,-0.265,-0.284,126.91,187.04,80.08,-0.07889880003693647,0.7062753314517798,-0.2633533804332665,0.6523765266698222,-106.6809672748506,-61.637341283372145,-88.7817820233657,13
1767650288.516883,2,right_wrist,0.8072,0.712,-0.6354,-159.6,145.18,-26.88,-0.06594527451537578,-0.9320623721930583,-0.33727706798938056,-0.11469583479546035,168.2738990505756,-9.748499072972015,40.78988585532247,13
1767650288.5760891,1,left_wrist,1.222,-0.9292,-0.7759,157.57,187.67,66.08,-0.15176224362859894,0.5758343901932557,-0.24263419765535751,0.7658404681183386,-68.15163744976215,-53.93494985389784,-119.59784033743499,13
1767650288.5760891,2,right_wrist,1.0531,1.2298,-0.7208,-153.37,149.24,-1.96,-0.10767588912050555,-0.9151546099382684,-0.3329737391087296,-0.2000660687742832,159.77914649454232,-17.126135699294597,43.06329942435754,13
1767650288.6677172,1,left_wrist,1.4298,-0.73,-0.4704,139.86,173.39,74.69,-0.19140733529395074,0.501620082898695,-0.22560986200840294,0.8129210998571296,-54.749285372638404,-46.81839232307905,-128.23155452142225,13
1767650288.6677172,2,right_wrist,1.2024,0.9692,-0.6974,-126.07,152.74,-23.45,-0.15549400855416687,-0.8520537899003222,-0.3329176797193729,-0.3728160014679137,142.6988461643553,-32.12615076070057,53.78521061348409,13
1767650289.2282398,1,left_wrist,0.3118,-0.4397,0.325,-52.78,-142.45,-55.79,-0.11134108490231676,0.8116824754726124,-0.20463858800243992,0.5356283880861754,-135.10317627838478,-55.48228118515027,-52.81932108020129,14
1767650289.2282398,2,right_wrist,0.4368,0.608,0.0693,116.48,-173.18,19.39,0.020301658596096388,-0.9367281026045415,-0.3317712425173867,0.10980048764742463,-173.51176917664242,11.083267942633293,39.63652210503379,14
1767650289.278427,1,left_wrist,-0.0381,-0.5641,0.4441,-93.87,-92.12,-23.38,-0.08219412664289254,0.8376079278994147,-0.21418317687244048,0.49576471376076175,-144.72801253712856,-52.68395132049696,-46.57844245185942,14
1767650289.278427,2,right_wrist,0.103,0.4407,0.2523,124.39,-157.85,1.61,0.04704924369316336,-0.9248596546950021,-0.3252130730194867,0.19146134054311054,-167.08027919715371,18.877609841225297,40.90365281359181,14
1767650289.361932,1,left_wrist,-0.3172,-0.083,0.4841,-51.66,-14.77,-1.33,-0.06488460067909121,0.8421301058334986,-0.22450355340836284,0.4860092879262635,-147.75534030327492,-52.132505528436354,-45.95080855963457,14
1767650289.361932,2,right_wrist,-0.4636,0.0117,0.7632,-28.42,34.23,-7.07,0.05227563479576988,-0.9187254103503448,-0.33174422463407033,0.2077417815588123,-165.55877966951687,20.305826618518225,42.30794016003461,14
1767650289.415467,1,left_wrist,-0.344,0.0703,0.426,-59.57,62.72,-2.24,-0.036429957974552576,0.8298078792655498,-0.23800743000002067,0.5034324234051363,-148.53836745404038,-54.90134167483223,-48.65691298600546,14
1767650289.415467,2,right_wrist,-0.0688,-0.1035,0.2513,-21.91,116.76,-18.55,0.06252039928441733,-0.9256890970703814,-0.33805305331065205,0.1578322792893914,-166.7175221182456,14.473773342595713,41.817573679396965,14
1767650289.4759722,1,left_wrist,0.2386,-0.1952,-0.019,44.03,121.45,40.18,-0.0589645918818192,0.7619141130259045,-0.24942526148933716,0.5948084567380794,-126.4428390393198,-61.27915551147532,-69.53941485360087,14
1767650289.4759722,2,right_wrist,0.225,0.3543,0.0234,-120.4,137.83,-28.35,0.03480094259830497,-0.9314404581954446,-0.3529158907453907,0.08159620879867636,-172.90992229202666,7.321708252119948,41.956861919910644,14
1767650289.534394,1,left_wrist,0.5729,-0.3157,-0.0693,173.25,146.51,54.88,-0.11590207803374905,0.7072506637391422,-0.22542540190629878,0.6599595405200117,-102.46816733647394,-61.79462301025316,-86.69187639495158,14
1767650289.534394,2,right_wrist,0.5514,0.4943,-0.1484,-141.54,163.03,-33.04,0.0025199873277961297,-0.9300509020744993,-0.3672967041935692,-0.009596890268190494,179.86461922847414,-1.1289350630626362,43.10155016831385,14
1767650289.612038,1,left_wrist,1.037,-0.629,-0.0078,135.03,167.72,27.58,-0.15030551873516398,0.6436978734195182,-0.20315708412381336,0.7223492908304493,-79.6707368693635,-60.328533042009646,-104.7605333604419,14
1767650289.612038,2,right_wrist,0.9243,0.934,-0.447,-216.44,163.52,-32.27,-0.1113115022431745,-0.8965873150943154,-0.37406987669397657,-0.20931474680606685,158.13406918115643,-16.981405447821732,48.596826808860826,14
1767650289.671138,1,left_wrist,1.181,-1.1756,-0.0361,172.48,245.21,42.56,-0.19148696403673418,0.5470295142873669,-0.17891212253549138,0.7950357888248599,-55.658286450462455,-53.25417456684026,-123.26804856306052,14
1767650289.671138,2,right_wrist,1.1873,1.3405,-0.6725,-165.83,203.63,-1.61,-0.1435455461396092,-0.8628684582771228,-0.36654108514396316,-0.3170178745677102,147.6423496184977,-26.222538166256122,53.76268612807949,14
1767650289.7274702,1,left_wrist,1.7202,-0.7618,-0.9941,109.2,167.37,73.78,-0.23740394936693265,0.3779320845494726,-0.17690051735897086,0.8772188502598435,-36.92588088237975,-35.3847738405058,-137.55460762453708,14
1767650289.7274702,2,right_wrist,1.303,1.3186,-0.692,-131.67,189.21,2.03,-0.16286650836333202,-0.823137755957809,-0.3569204152039627,-0.41051985625656395,137.38264951227424,-34.0259289136227,60.49606407588931,14
1767650290.266093,1,left_wrist,0.5305,-0.6573,0.3318,-92.96,-155.54,-60.06,-0.1240721955290104,0.7812020718462338,-0.16246943541101447,0.5898585388014562,-125.33793671255002,-61.79734406296003,-57.870418752399395,15
1767650290.266093,2,right_wrist,0.2987,0.4675,0.3338,142.59,-153.93,-1.05,-0.01074797262313987,-0.9471097181953179,-0.2772093410761259,0.16131535576199182,-175.83122462439644,18.15119183620609,33.29462387839563,15
1767650290.329546,1,left_wrist,-0.2674,-0.2108,0.4314,-72.38,-31.57,-24.36,-0.04945639022341187,0.8265988397705498,-0.1802144605426472,0.5308589000547821,-147.66926251392084,-59.29292120836918,-43.3348991527752,15
1767650290.329546,2,right_wrist,-0.0259,-0.0659,0.4372,48.37,-123.9,-2.73,-0.0053821193157499786,-0.9365310227534471,-0.2738664627301814,0.21881004730978734,-173.07815209061266,24.380392695755447,34.09768714461597,15
1767650290.382897,1,left_wrist,-0.2538,-0.0156,0.2952,-2.03,37.73,6.51,-0.04762172707195767,0.8168229733841836,-0.18395801041867393,0.5446942735749184,-145.32071757378228,-60.728992557641995,-46.115848005248715,15
1767650290.382897,2,right_wrist,-0.3148,0.0454,0.5827,41.51,-16.24,-18.97,0.01123915241250365,-0.9323565843128352,-0.2774448024379001,0.23153674166694616,-170.4951903222588,25.183146705687683,35.270989051836764,15
1767650290.4654038,1,left_wrist,-0.1269,-0.1127,0.142,19.88,71.89,24.85,-0.055895091118455045,0.7961736345673471,-0.19003416911828053,0.5717257183092297,-137.98585156335838,-62.765619701532906,-53.21542406204004,15
1767650290.4654038,2,right_wrist,0.1708,0.1523,0.0961,-109.13,123.48,-38.71,-0.019753531104714214,-0.9400344314946997,-0.3125306803796151,0.13516523012515738,-177.18422777432403,15.45414692600906,37.16269293441617,15
1767650290.5190861,1,left_wrist,0.184,-0.2035,0.0102,72.8,102.62,51.38,-0.08800663765734927,0.7613945649464177,-0.19324024943203547,0.6125286558176265,-122.27251002329683,-63.99282322518281,-66.48735711957625,15
1767650290.5190861,2,right_wrist,0.1508,0.3636,-0.0683,-148.26,138.88,-32.9,-0.06141123051782064,-0.9387426797481897,-0.33443879193660575,0.056049410643274955,175.4887466510899,8.41306138317865,38.886177922887455,15
1767650290.57479,1,left_wrist,0.608,-0.4294,-0.3006,122.71,155.54,48.86,-0.18146712588881514,0.6590844545108624,-0.17600338068919474,0.7083079655275283,-81.9307673802181,-60.4344639527988,-97.61135692929547,15
1767650290.57479,2,right_wrist,0.5705,0.6954,-0.3992,-139.3,144.06,-22.68,-0.09801383702823273,-0.931481457275709,-0.3494000768736204,-0.02559626502505373,168.4322667920671,1.1922503181411754,41.00151604804461,15
1767650290.63202,1,left_wrist,1.0272,-0.8662,-0.2015,119.7,192.5,43.54,-0.21473614835930258,0.58590480255324,-0.16855191445168194,0.7630165142823144,-63.238122519102426,-55.25751600277438,-112.84003503813041,15
1767650290.63202,2,right_wrist,0.9755,0.9882,-0.5344,-158.48,185.08,-7.63,-0.13469780921668728,-0.9158520397723228,-0.3562430012686644,-0.12713168560274424,160.09193453695056,-7.868347257828973,43.892523864940706,15
1767650290.682174,1,left_wrist,1.3098,-0.8179,-0.4724,112.14,211.89,47.18,-0.24153782930379505,0.5020376813804022,-0.16318776128102735,0.8142403810039679,-48.94718656610827,-47.62306011981871,-124.23991001769903,15
1767650290.682174,2,right_wrist,0.8564,1.0848,-0.6266,-121.87,173.04,-6.3,-0.1576185101127095,-0.8934909626505851,-0.3601296972259061,-0.2171103546760443,152.90106539301442,-15.929006098633312,47.76691842179657,15
1767650290.7661529,1,left_wrist,1.5123,-1.018,-0.7618,92.54,182.07,55.51,-0.26680470369156,0.4256115578775504,-0.16209402059795713,0.8493500929390028,-40.65167285405057,-39.530697058093544,-129.9581693708143,15
1767650290.7661529,2,right_wrist,1.1409,0.9848,-0.4509,-103.88,171.85,-18.2,-0.193435879705505,-0.8263183509876086,-0.3626829915445702,-0.3850215460308134,136.38685723148015,-29.734982726706708,59.52077300943316,15
1767650291.323355,1,left_wrist,0.4987,-0.5754,0.0913,-120.61,-142.94,-56.77,-0.1315767376366417,0.7500426860702585,-0.1496156576147293,0.6306652726937818,-113.75168898734553,-65.05049226112716,-67.74536210755255,16
1767650291.323355,2,right_wrist,0.3279,0.5261,0.3431,137.06,-137.97,6.86,-0.04912103349542358,-0.9531604080463628,-0.2797653948142739,0.10394077383609512,177.9127355762947,13.03987963246012,32.47677058858365,16
1767650291.376161,1,left_wrist,-0.1552,-0.1527,0.2879,-19.18,-64.75,-27.09,-0.09061178658378341,0.8038918391513104,-0.1479493730123058,0.5689098330168713,-136.95862643693394,-62.60705322530636,-47.82472058647285,16
1767650291.376161,2,right_wrist,-0.1449,0.0166,0.4319,59.36,-99.82,-5.6,-0.03653236019226663,-0.9478671831017292,-0.27686237699673033,0.15349401962713646,-179.05112930691135,18.132332250114338,32.71650818561764,16
1767650291.426924,1,left_wrist,-0.3738,-0.08,0.4006,-18.62,-10.22,0.21,-0.08536950034883867,0.8066014627631515,-0.152522027631039,0.5646619871798089,-138.28695480531084,-62.23588575012505,-47.320261074520324,16
1767650291.426924,2,right_wrist,-0.3074,-0.1913,0.4846,60.06,-39.13,-2.8,-0.015966895609898512,-0.945175097975071,-0.273229397965339,0.1781426071996701,-175.89575024285173,20.21092628307886,32.97862968482168,16
1767650291.511712,1,left_wrist,-0.183,-0.1274,0.4265,8.54,60.9,17.22,-0.08922278420136517,0.7889336542243729,-0.15893703348854374,0.5868236561330805,-132.0614595265336,-63.84024345530797,-53.74031759701724,16
1767650291.511712,2,right_wrist,0.0093,0.0781,0.3377,-86.87,113.61,-11.55,-0.0362177095260805,-0.9529863036460924,-0.284865456548223,0.09673186778520768,179.18517740628516,11.82965353143829,33.2003627510112,16
1767650291.563563,1,left_wrist,0.0532,-0.2708,0.2977,83.44,113.89,45.71,-0.12292640886960873,0.7502482266933183,-0.15794886352140963,0.6301339959550256,-114.60698690851179,-65.05073443443267,-68.29975646211408,16
1767650291.563563,2,right_wrist,0.488,0.5612,-0.0112,-134.05,125.51,-11.76,-0.0769479747072963,-0.9516371605664616,-0.29630631963789056,0.025851281594845576,172.43062321913328,5.439948149274799,34.22937040351421,16
1767650291.628872,1,left_wrist,0.5544,-0.3192,-0.0727,63.91,148.33,58.45,-0.1525538381318881,0.697963852413847,-0.16917994445044718,0.6789344103745185,-94.07671939731537,-63.65333283438448,-87.30691140944148,16
1767650291.628872,2,right_wrist,0.8569,0.7881,-0.3884,-148.26,195.65,-10.08,-0.11364377564741232,-0.9418721362232632,-0.3066903892396146,-0.07683082982033336,164.81476066536047,-4.302528204890712,36.64612975369869,16
1767650291.721306,1,left_wrist,1.2156,-0.732,-0.4943,89.95,199.5,73.15,-0.24651137468697706,0.5515893110527124,-0.15114591304500716,0.7823913899399214,-55.77984420078293,-52.05478558345767,-116.0419887739786,16
1767650291.721306,2,right_wrist,1.3386,1.3332,-0.6422,-95.83,204.47,6.72,-0.16442219817762063,-0.8943044543475687,-0.31680588385804365,-0.26984980198892206,149.83822735978626,-22.239309554912545,45.076606230379724,16
1767650291.77791,1,left_wrist,1.5953,-0.4172,-0.6534,67.9,187.88,91.49,-0.2929672741111187,0.38916350510638076,-0.1780071982580104,0.8550060701314056,-40.0347789841964,-34.137009367857054,-129.4070498145492,16
1767650291.77791,2,right_wrist,1.3932,1.159,-0.4704,-123.48,180.6,-25.48,-0.19054915853245313,-0.8554942626490631,-0.32300509272870237,-0.357055030532315,140.37843336976434,-29.19742075443449,52.08983256180365,16
1767650292.361685,1,left_wrist,0.3928,-0.8062,0.2684,-84.7,-167.3,-41.51,-0.14833197150388466,0.7914599880901403,-0.11228647908290448,0.5822202848555609,-127.256428825563,-62.6599939453427,-49.73736832277889,17
1767650292.361685,2,right_wrist,0.0878,0.083,0.4255,149.38,-140.63,7.35,-0.004059275915395095,-0.9402925675016865,-0.29196162482992943,0.17490517261303767,-174.2520020283418,19.3473575129326,35.479828793766515,17
1767650292.41285,1,left_wrist,-0.0332,-0.284,0.5187,-78.19,-103.11,-35.35,-0.11814845863515858,0.8221344491844291,-0.11350010522554368,0.5452096984648586,-139.89261618709935,-60.418181321923015,-39.71782569539063,17
1767650292.41285,2,right_wrist,-0.1166,0.0659,0.5817,107.1,-69.44,10.71,0.03011879261501116,-0.9349403654505315,-0.278694590362455,0.21750562449128563,-168.88285683012913,22.94962662386549,35.46091618762518,17
1767650292.469056,1,left_wrist,-0.3118,-0.0781,0.304,-36.82,-37.94,-23.1,-0.10189945613115392,0.8335744909481604,-0.1123083182595592,0.5311844411599419,-145.12389639274656,-59.61830421279016,-35.75006353101609,17
1767650292.469056,2,right_wrist,-0.3411,-0.0966,0.5802,20.79,8.54,2.17,0.039527921584441995,-0.935448931810103,-0.2755948321342281,0.21776209011546957,-167.86347799109257,22.68243766800433,35.27422156874774,17
1767650292.5267751,1,left_wrist,-0.1703,-0.0483,0.3728,20.79,102.34,37.8,-0.12071338684480687,0.7937204978557184,-0.13461350220912072,0.5807884765929171,-130.4061030574462,-62.80648876197292,-50.75269737545835,17
1767650292.5267751,2,right_wrist,-0.2694,0.0781,0.4119,-75.04,76.79,-10.99,0.01870239190598703,-0.9415453380269351,-0.2854411330262178,0.17794930894344171,-171.68421469859462,18.930307565574672,35.119417287695775,17
1767650292.61871,1,left_wrist,0.2284,-0.1298,0.1366,85.54,155.54,48.09,-0.15383935626880998,0.7425377542423384,-0.13733952525389034,0.6372668128739946,-109.19150887986895,-64.70674967275295,-69.43825993692475,17
1767650292.61871,2,right_wrist,0.5578,0.5485,0.0332,-137.76,179.2,-31.01,-0.0408814348894677,-0.9457909731209053,-0.3216364122467511,0.018925162124193016,176.2569248099603,3.5601527535550184,37.44702572103997,17
1767650292.6746619,1,left_wrist,0.955,-0.7393,-0.1484,160.72,217.63,31.36,-0.2552561030513775,0.5917962532374431,-0.1023854964522726,0.7577194247380561,-58.64886098724149,-57.6250367875515,-108.42552095493062,17
1767650292.6746619,2,right_wrist,0.6608,0.8355,-0.0917,-179.34,180.95,-28.98,-0.09017303456611077,-0.9338890025679155,-0.33606666689354814,-0.08233680904008787,167.0122759048652,-5.346495010703142,40.1922764241755,17
1767650292.726978,1,left_wrist,1.544,-0.9931,-0.3738,99.89,231.42,19.25,-0.27506860994392485,0.5037285981627657,-0.10056847036246848,0.8126996628431963,-43.0109678819337,-49.767844505608494,-121.88730200652631,17
1767650292.726978,2,right_wrist,1.2132,1.0873,-0.0615,-228.62,180.18,-10.5,-0.15715481735898448,-0.9089361878949044,-0.3361808617961914,-0.19005209253758157,154.79231571225105,-13.876245307092022,43.71219803398189,17
1767650292.8164392,1,left_wrist,1.7954,-1.3147,-0.7354,114.31,252.21,56.91,-0.30665079120863026,0.3989343514095934,-0.10327116048730386,0.857992857154495,-32.57245490353279,-38.40595881828233,-129.04514913569167,17
1767650292.8164392,2,right_wrist,1.5006,1.5919,-0.9736,-160.37,163.66,5.25,-0.22307762436563214,-0.8346555640886292,-0.31861218416012244,-0.38996504836715096,133.844367713656,-30.58542861644437,55.07702946178399,17
1767650293.331017,1,left_wrist,0.2079,-0.4441,0.3875,-118.86,-127.05,-28.98,-0.1709112344807562,0.7934276518130354,-0.0666515244136262,0.5803615128177063,-127.54843283516225,-63.918132090776055,-43.77161484728167,18
1767650293.331017,2,right_wrist,0.3948,0.5324,0.2372,145.04,-147.0,-10.36,-0.03312700955193009,-0.940922470849887,-0.2930738237451402,0.16635876569418384,-177.8628048596645,19.419292966914643,34.96674022429817,18
1767650293.392929,1,left_wrist,-0.0678,-0.2347,0.385,-109.2,-65.31,-24.78,-0.12953386982633097,0.8166481199117371,-0.0813604346240623,0.5564955565772505,-138.96056994554073,-62.60359222412391,-37.02090959767111,18
1767650293.392929,2,right_wrist,-0.0215,0.0771,0.3743,121.8,-106.89,-2.73,0.0032319958643583385,-0.9321182647841496,-0.28297765583722606,0.22598393959613,-171.51631215121603,24.800395591030775,35.64360635103614,18
1767650293.465014,1,left_wrist,-0.3533,-0.0986,0.5309,-25.06,-10.29,2.45,-0.12214230971141671,0.8198283982716782,-0.08801244867037161,0.5524639919892517,-140.40712204351865,-62.17179155651125,-36.74349401363574,18
1767650293.465014,2,right_wrist,-0.2913,0.2328,0.6285,33.32,67.83,0.49,0.050118776199851514,-0.9338940072153515,-0.2693289777672367,0.22976508284405953,-166.2656131445364,23.713004179603356,35.07110737442865,18
1767650293.5230541,1,left_wrist,-0.2494,0.1313,0.4973,-13.65,69.79,27.44,-0.12120028902404971,0.8015449438778782,-0.10472382859052312,0.5760808212478858,-134.25638457342606,-63.91258967617256,-44.373161040956084,18
1767650293.5230541,2,right_wrist,-0.0395,-0.0917,0.3645,-77.42,126.28,-20.93,0.035752056171342396,-0.9436621210005803,-0.2823283097713509,0.16886182922691365,-170.17711781846907,17.368095534125054,34.81656267529061,18
1767650293.573911,1,left_wrist,-0.0712,-0.1737,0.3806,83.93,123.48,46.62,-0.15732797477038282,0.7608912196945548,-0.10656957865512182,0.6204316119054962,-115.9197067107193,-65.59244483106926,-59.87138009355415,18
1767650293.573911,2,right_wrist,0.2918,0.3265,0.1913,-111.72,165.41,-27.37,0.011281060165486264,-0.9506829397878457,-0.29811341766572536,0.08487093663641689,-175.81775871373753,8.896186679305295,35.14605320147831,18
1767650293.6289861,1,left_wrist,0.7993,-0.6739,-0.121,216.09,171.64,29.47,-0.26558113026611946,0.63981798785822,-0.06791400025123835,0.717974438423475,-68.52752333906037,-61.966453470234676,-94.9066371615938,18
1767650293.6289861,2,right_wrist,0.7881,0.7354,0.0888,-161.35,204.4,-23.94,-0.029014388518311465,-0.9496947079070657,-0.3109737422241725,-0.023096724428270484,176.0148598583043,-1.479784924780094,36.31314116360003,18
1767650293.690122,1,left_wrist,0.9902,-1.0829,-0.2001,215.67,215.88,24.43,-0.32566152554911354,0.5439500318111244,-0.03490913069598012,0.772556979299101,-45.17077986757205,-54.857967015512095,-109.92134233019063,18
1767650293.690122,2,right_wrist,1.0102,0.995,-0.3406,-251.44,189.77,-28.98,-0.10820329252686266,-0.9313041060998195,-0.31965550684352584,-0.13705862392629914,162.88411423843652,-10.72591078163725,39.50666845691275,18
1767650293.7699652,1,left_wrist,1.5182,-0.9448,-0.8047,46.97,202.72,38.22,-0.34456796946081025,0.4702001278054694,-0.05729547578719748,0.8104948998529806,-37.0995989369896,-46.27828406497268,-117.61492113677863,18
1767650293.7699652,2,right_wrist,1.4591,1.4469,-0.9145,-130.27,193.41,-4.62,-0.1824536072590308,-0.8678441467121144,-0.3161629275807408,-0.33704335246265393,143.12308682100564,-28.01041592553366,49.54160105310034,18
1767650294.3287911,1,left_wrist,0.306,-0.9267,0.407,-130.62,-167.79,-17.78,-0.25070246745377245,0.7691981392528605,-0.015183113504960986,0.5875814568609384,-114.48787345966112,-63.678517036405005,-45.81677517484356,19
1767650294.3287911,2,right_wrist,0.4773,0.4426,-0.0005,162.61,-159.32,22.96,0.010859069702349167,-0.951769305535123,-0.2838653401955334,0.11592125897376873,-174.92017480704345,12.385934919494927,33.76601056367688,19
1767650294.416845,1,left_wrist,0.1161,-0.1801,0.3675,-133.84,-98.42,-26.88,-0.1999733307490388,0.8058927106205898,-0.03009948033109756,0.5564545149799144,-130.20503084982914,-62.232709788860454,-35.57968482636695,19
1767650294.416845,2,right_wrist,-0.0132,0.0547,-0.0088,92.12,-73.85,11.69,0.08027319202256601,-0.93591326419629,-0.2553459831683456,0.2289563395578832,-163.15177387475543,22.803486127629608,33.94269285068027,19
1767650294.477866,1,left_wrist,-0.1791,0.1742,0.0361,-10.92,10.57,-19.74,-0.14302685104579005,0.8186681830168989,-0.046357825153,0.5542352190566913,-140.36240923111336,-63.40696387210399,-31.58225213887261,19
1767650294.477866,2,right_wrist,-0.2386,-0.0654,0.2167,28.63,-32.55,4.48,0.08803324705514902,-0.9315949243388253,-0.2515252446494578,0.2472166977837376,-161.50751416907218,24.602878664197934,34.28470024735252,19
1767650294.5645099,1,left_wrist,-0.2084,-0.0869,0.203,26.04,46.76,8.26,-0.15421401519271602,0.8047961314603035,-0.046373431873417865,0.5712886565659712,-134.85580294874092,-64.85548286678699,-36.182238163509716,19
1767650294.5645099,2,right_wrist,-0.0332,0.0688,0.3904,-80.22,84.63,-31.36,0.06973401463038385,-0.9415607762226025,-0.2715855057828642,0.18665954283477065,-165.81401555814435,18.27783305071606,34.473080910439734,19
1767650294.62275,1,left_wrist,0.001,-0.1791,0.284,59.78,91.91,28.28,-0.18145158559299326,0.7750572789195767,-0.04808135100284133,0.6033653289387051,-121.27020886469109,-66.611815437875,-47.67681117883177,19
1767650294.62275,2,right_wrist,0.1327,0.2899,0.3172,-121.31,146.44,-43.54,0.0399154201625155,-0.9486819606538291,-0.29386116690692976,0.10979486029570709,-171.79456273872572,10.653064813455089,35.18782490402302,19
1767650294.6774652,1,left_wrist,0.5031,-0.4851,0.3104,197.4,201.11,41.3,-0.3029796228927295,0.6388642630976206,-0.023942945552672745,0.7067407847342445,-66.55542240084296,-62.687158152080805,-90.01393569359801,19
1767650294.6774652,2,right_wrist,0.651,0.6349,0.2908,-101.99,213.01,-40.53,0.026058197242925837,-0.9503025561633297,-0.3101770007581836,0.006020822746792264,-176.94686873819717,-0.27055743108919833,36.145963811918556,19
1767650294.734278,1,left_wrist,1.2795,-1.0746,-0.2264,82.74,240.31,41.51,-0.3350114041119449,0.5527834677327341,-0.04364573557731962,0.7617695495897898,-48.607737366561494,-54.3845330855682,-106.3975569765745,19
1767650294.734278,2,right_wrist,0.9536,0.8657,-0.2816,-190.96,293.65,-30.52,-0.014387596823934494,-0.937696182978127,-0.31624589404495657,-0.143204050171735,173.00824207595687,-15.038245095390318,38.198202527878024,19
1767650294.8194308,1,left_wrist,1.6167,-0.978,-0.8091,110.25,242.06,43.61,-0.3682455720739996,0.45615850695241483,-0.053034752984917964,0.808394662376407,-36.104024491061686,-44.302985626971434,-115.90260430857035,19
1767650294.8194308,2,right_wrist,1.8646,1.3337,-0.7989,-184.94,209.72,-48.3,-0.1162855908337536,-0.8670529958910003,-0.31478225129647097,-0.36825113434938855,148.29483155021927,-34.42849012873539,49.96241424658997,19
1767650294.8728619,1,left_wrist,1.9666,-1.0009,-0.7637,125.16,182.98,70.07,-0.41063006669577573,0.372160381000852,-0.052112449990788075,0.8307610316418802,-28.661455270947833,-35.13849489576769,-118.14631638778852,19
1767650294.8728619,2,right_wrist,1.6475,1.1219,-0.7642,-140.77,156.17,-44.1,-0.15513957673298662,-0.8235513980117685,-0.31468015767043617,-0.4457254815830937,135.97017905947158,-39.532588102459044,58.35815824589586,19
1767650295.370316,1,left_wrist,0.4114,-0.6495,0.1362,-143.29,-159.6,-65.1,-0.22584990252999515,0.7467511802467298,-0.012599652103174508,0.6254564294131019,-108.12808747724964,-68.19129490810609,-54.20493885052531,20
1767650295.370316,2,right_wrist,0.1625,0.3987,0.3109,133.07,-128.1,21.98,0.028776391561780513,-0.9529007452677856,-0.24255688129754463,0.1797727684939819,-171.34947132565566,19.186940577669112,30.027045841675278,20
1767650295.420922,1,left_wrist,0.0146,-0.4006,0.305,-70.77,-112.63,-47.32,-0.19192434554672255,0.7822769504743036,-0.006713569398172465,0.5925898635051247,-126.00734566459695,-67.60236883486148,-38.64819479168176,20
1767650295.420922,2,right_wrist,-0.1757,-0.0132,0.4441,79.66,-56.42,5.67,0.055540586863661597,-0.9470009396284536,-0.23432824540392333,0.21259053826448776,-167.22598582247412,22.124314748662144,30.30388628715931,20
1767650295.4737868,1,left_wrist,-0.1713,-0.1586,0.4236,-96.25,-52.85,-37.38,-0.15012924221668597,0.802294712680627,-0.014919823612121172,0.5775480962651829,-138.11075321393614,-67.25693387612331,-30.696267521149192,20
1767650295.4737868,2,right_wrist,-0.3304,-0.2528,0.368,26.46,-13.44,5.18,0.06523089991467183,-0.9451854096934001,-0.22997142500841286,0.2224468805774567,-165.81327443356508,22.985901094255716,30.248362927120404,20
1767650295.529614,1,left_wrist,-0.1767,0.0566,0.1615,113.89,67.06,38.15,-0.15660753369892477,0.7733943311364088,-0.02631672030636503,0.6137122446123457,-125.75299802004727,-70.22700975148771,-43.51491424790194,20
1767650295.529614,2,right_wrist,-0.1064,0.0322,0.4133,-120.4,15.61,-30.66,0.019845974015917825,-0.945484603387323,-0.2534964253664149,0.2034811155840412,-171.27176482488764,22.006684165970647,31.71777052740551,20
1767650295.621127,1,left_wrist,0.1288,-0.0571,0.0903,110.74,102.41,63.28,-0.21026533547368895,0.73373374380387,-0.025166207996402568,0.6455927074222382,-102.88177017069063,-69.52143594986427,-61.831905235209675,20
1767650295.621127,2,right_wrist,0.224,0.4285,0.1415,-130.27,172.97,-5.6,-0.04967642967106031,-0.9560442987636402,-0.28385745867130896,0.05418942971965793,176.28538159387364,7.574604792890028,32.827195699777604,20
1767650295.674783,1,left_wrist,0.4421,-0.1781,-0.0303,139.79,146.65,65.52,-0.2741020428844206,0.6743200151307609,-0.022944988267560924,0.6852985588734584,-77.41732790327673,-65.73333349064734,-81.65058380027007,20
1767650295.674783,2,right_wrist,0.7574,0.7013,0.0215,-150.08,180.32,21.14,-0.09109829507693142,-0.9544983423063115,-0.2808074090463386,-0.042204433336582955,168.59782973481293,-1.6850809357974363,32.955340445678345,20
1767650295.728087,1,left_wrist,1.1927,-0.9296,-0.2923,187.53,198.8,60.48,-0.38280631364758044,0.5113125710039477,-0.017238541608328467,0.769234433477923,-41.25594536315191,-50.663849461293324,-106.87831592313579,20
1767650295.728087,2,right_wrist,1.3503,1.181,-0.3836,-189.56,211.05,9.8,-0.14412269925356053,-0.9365548779976879,-0.2791431163842967,-0.15547581366201965,158.5951589064272,-12.166984425270565,35.501581368048356,20
1767650295.778819,1,left_wrist,1.4767,-0.7906,-0.6354,93.1,196.7,71.96,-0.42323061111744165,0.4310569710588515,-0.03479725548297867,0.7961500414655377,-33.87819568635652,-41.06520714629861,-110.99474981585222,20
1767650295.778819,2,right_wrist,1.1912,1.5352,-0.6012,-138.46,192.85,1.82,-0.17788517582548896,-0.9091205812498745,-0.27926108653810094,-0.2527249067958765,150.13141595653846,-21.11014615025952,39.84192123661762,20
1767650296.336215,1,left_wrist,0.5144,-0.5929,0.2416,-146.23,-177.38,-73.36,-0.26959667426536305,0.7266593321393268,0.08624211906592226,0.6259761538101132,-104.03306334756492,-72.98809867877833,-46.489153511334784,21
1767650296.336215,2,right_wrist,0.6764,0.6822,0.2689,193.69,-162.54,17.22,-0.03795299643837206,-0.97291212955827,-0.21502909405356987,0.07592132065659757,177.6063387135083,9.442141195375015,24.728147982323087,21
1767650296.41779,1,left_wrist,0.0761,-0.6939,0.3274,-109.13,-108.43,-32.27,-0.22371061221341798,0.7655591642653216,0.07722467401952028,0.5982550273211742,-126.35236419461425,-71.9065415167136,-28.76098658758072,21
1767650296.41779,2,right_wrist,-0.0268,0.0717,0.2245,66.57,-105.21,22.26,0.03743160234504264,-0.9623017458583203,-0.18063716193236526,0.19986105371715618,-171.06348980789767,21.785336846533557,22.98603901362581,21
1767650296.4709408,1,left_wrist,-0.1854,-0.0859,0.2425,-64.68,-45.08,-17.78,-0.19658024059570992,0.7819323099378795,0.07004161179635106,0.5873944537527689,-135.9394939874802,-71.1101980811355,-22.024084752803507,21
1767650296.4709408,2,right_wrist,-0.3094,-0.1405,0.551,61.32,-29.82,-3.01,0.06143400640674255,-0.9577475348545892,-0.17690252288956165,0.2182911352576686,-167.74275773748116,23.353312870231385,23.472386212199225,21
1767650296.5240839,1,left_wrist,-0.326,-0.0112,0.4646,-51.87,15.96,1.47,-0.18010464728340717,0.7814080864752443,0.054557986649898714,0.594968187814043,-136.36859018747907,-71.70962299169584,-24.28040761849054,21
1767650296.5240839,2,right_wrist,-0.2972,0.082,0.5573,-33.53,49.98,-21.7,0.05312371854962054,-0.9611892877002515,-0.18766388676821694,0.19512890442164108,-169.18770627848377,20.804036383505842,24.085591455973542,21
1767650296.5791628,1,left_wrist,-0.0273,-0.0059,0.3655,96.6,121.8,56.91,-0.2355117309702015,0.7208026519272651,0.034716311023890375,0.6509781404155855,-98.03053783883404,-72.70866027871774,-59.68136690167156,21
1767650296.5791628,2,right_wrist,-0.0268,0.0468,0.4041,-71.96,132.37,-27.16,0.03590203407568011,-0.9697106811567014,-0.20168381493124204,0.13302585310613582,-172.69715420583321,14.093882866289764,24.402110060315024,21
1767650296.631312,1,left_wrist,0.4509,-0.2484,0.1518,133.84,150.99,67.27,-0.29978128049226643,0.6599457585233054,0.03457132912949528,0.6880462214675234,-70.02139321227298,-68.25997408694994,-82.1178708272874,21
1767650296.631312,2,right_wrist,0.2377,0.4182,0.2879,-201.88,162.54,-43.05,-0.03374342880503063,-0.9721540955042245,-0.22759766734254244,0.04446456372299633,177.38614558726303,5.843561469700894,26.21974834876253,21
1767650296.7239208,1,left_wrist,0.9345,-0.8442,-0.2625,113.68,185.43,32.06,-0.34463092568232945,0.5898747680520092,0.03261747538578565,0.7295295630599123,-49.93061616051456,-62.02399729884385,-98.15645278751536,21
1767650296.7239208,2,right_wrist,1.4215,1.1209,-0.3899,-173.04,224.14,-3.43,-0.15243087116938092,-0.9426409685903416,-0.24552503792770536,-0.1670637291580813,157.6325862624264,-13.893094128733484,31.9581501779335,21
1767650296.812958,1,left_wrist,1.5743,-0.894,-0.7315,108.85,197.96,68.53,-0.44369195707933534,0.4193884086949934,0.02150213603362751,0.7916997334983649,-27.57988733816911,-43.089506233090106,-110.39529940056332,21
1767650296.812958,2,right_wrist,1.5299,1.607,-0.591,-121.52,202.16,2.94,-0.21685203555373941,-0.8710566393373588,-0.24413618051980723,-0.3669237674282034,138.82219031536076,-32.23139823698828,43.70291155532194,21
1767650297.369364,1,left_wrist,0.7862,-1.0341,-0.019,-24.43,-270.34,-1.26,-0.3464613980226112,0.7190979279014057,0.17673262004845672,0.5758717311858003,-108.15975056285225,-71.93002352908586,-27.84083411706364,22
1767650297.369364,2,right_wrist,0.4465,0.6242,0.1215,121.38,-148.19,-25.55,-0.07570675362085333,-0.9645517321548294,-0.22798087624856306,0.1092390201267254,174.30291606317377,14.196771322375648,25.88665942817893,22
1767650297.435423,1,left_wrist,-0.0742,-0.4363,0.3933,-136.15,-68.25,-2.45,-0.23583941306489983,0.8081940399057678,0.13884539857846115,0.5214634410959085,-145.57323674213652,-65.28211906860405,-2.9521018855151686,22
1767650297.435423,2,right_wrist,0.1318,0.4319,0.1879,138.39,-121.94,-7.49,-0.030406643497446793,-0.9595356793115254,-0.21956121715608676,0.17366516081334943,-178.90607899295034,20.28121126460583,25.972764153821544,22
1767650297.5167518,1,left_wrist,-0.2913,-0.0015,0.4997,-90.58,3.57,-2.66,-0.2037106351424233,0.8153680129041773,0.11839184065139985,0.528829228323981,-149.94337221246667,-65.59064907950628,-3.105859683984704,22
1767650297.5167518,2,right_wrist,-0.2616,-0.1654,0.4207,66.5,-5.74,1.19,0.021669501637035946,-0.9539103129884555,-0.2073483487753518,0.2158522868380231,-171.7804231818502,23.754662583693097,26.258436102910228,22
1767650297.567383,1,left_wrist,-0.2289,-0.1327,0.7613,-28.07,82.74,10.15,-0.20085290956367488,0.7978683929185967,0.1004656477921698,0.559437923200601,-144.6507320780863,-68.91907101231665,-10.31619726469419,22
1767650297.567383,2,right_wrist,-0.1796,-0.222,0.3406,23.59,57.05,-8.33,0.03814300279200401,-0.957695417283095,-0.2080400230711732,0.19515108980867413,-170.4910620636517,20.972515006796623,26.275809528205148,22
1767650297.6199942,1,left_wrist,-0.0786,-0.1718,0.3489,14.77,131.67,54.46,-0.22577452580092103,0.7642587225042184,0.07266981506413034,0.59971123597456,-124.72094166307,-71.71051248917566,-30.59479744311728,22
1767650297.6199942,2,right_wrist,-0.0112,0.1196,0.4509,-117.11,117.6,-16.45,0.0008608280836522805,-0.965593660682101,-0.2223345611244718,0.13489063850074398,-176.33964913921838,15.07696351074642,26.418039759702953,22
1767650297.676578,1,left_wrist,0.6915,-0.6144,-0.3509,102.2,162.05,42.91,-0.32893680317897706,0.6560515164656413,0.06047402479292214,0.6765647637757025,-69.34134980339785,-68.04946902822535,-78.080312511048,22
1767650297.676578,2,right_wrist,0.4758,0.5427,-0.1523,-78.33,184.73,-7.21,-0.01519846324812264,-0.9722025739159513,-0.22889427197554285,0.046888956513031994,179.53441159481977,5.63142923948238,26.4738569756769,22
1767650297.730487,1,left_wrist,0.7627,-0.7642,-0.2582,193.2,165.06,47.46,-0.4012346519032573,0.5799724213790759,0.07730781500921302,0.7047455188153131,-48.504081171246874,-61.58247806448483,-90.63636640858817,22
1767650297.730487,2,right_wrist,0.7871,0.7032,-0.184,-189.42,189.77,-19.53,-0.07708536727207008,-0.9660210477444547,-0.240569819303111,-0.05465659619574209,169.8839610496124,-3.9284121144171507,28.315861764136226,22
1767650297.818975,1,left_wrist,1.0448,-0.5065,-0.4255,107.66,171.29,41.72,-0.44434539319142646,0.5114756584743353,0.0697399231530894,0.7321790528664441,-37.03644757630554,-54.18990611546188,-98.04641888085159,22
1767650297.818975,2,right_wrist,1.0848,1.4542,-0.5427,-160.16,213.85,26.95,-0.1655246412912731,-0.9216150445517671,-0.23401965895462057,-0.261652636149539,152.12203815993087,-23.87947017329751,34.503851946335445,22
1767650297.875912,1,left_wrist,1.5582,-1.181,-0.547,80.78,195.93,28.49,-0.5052645356792302,0.3427455921582145,0.046754455754731354,0.7905992846619869,-19.70425983324561,-36.09994464401769,-108.35703499636391,22
1767650297.875912,2,right_wrist,1.3371,0.9052,-0.5085,-101.29,220.85,9.94,-0.18222026732191543,-0.8838399130886063,-0.23245282542215873,-0.36275124556906735,143.795388411111,-33.814977868754085,40.81968891923169,22
1767650298.431872,1,left_wrist,0.2894,-0.3479,0.0547,-116.9,-139.65,-69.37,-0.25775374325997735,0.781143814513595,0.11820455989271007,0.5562418816514904,-132.47941721013174,-68.42626586975155,-16.11771313379276,23
1767650298.431872,2,right_wrist,0.4699,0.5266,0.1484,192.43,-160.09,23.24,0.02124012859423842,-0.9763889742547232,-0.18889066731344198,0.1026340279487881,-175.30920842438525,11.092723530109117,22.353942964490557,23
1767650298.519407,1,left_wrist,0.0449,-0.4426,0.3216,-91.98,-92.75,-56.21,-0.20931764277543807,0.8089483268105604,0.12395647515146711,0.5351855017107175,-148.75666754903804,-66.60184106968379,-3.392356646871897,23
1767650298.519407,2,right_wrist,-0.1732,-0.1293,0.3167,46.48,-65.66,-3.5,0.055485659456133006,-0.9630190386099099,-0.18370632653115468,0.18912339480347692,-169.17516961407972,20.112997978637633,23.525338434694387,23
1767650298.5748448,1,left_wrist,-0.2084,-0.0727,0.2762,-49.91,49.14,22.19,-0.17961964535380648,0.8050618687468433,0.0944568293834024,0.5573958000161537,-149.6498745704471,-68.65549896932586,-7.602112420179499,23
1767650298.5748448,2,right_wrist,-0.3362,-0.0878,0.508,-7.49,-0.84,-4.2,0.05277064618388431,-0.9625566969382207,-0.18603984985672936,0.18997115135199658,-169.41926679693736,20.247805427312407,23.77260761236944,23
1767650298.6365812,1,left_wrist,-0.1132,0.0146,0.2079,32.69,76.58,39.2,-0.2040615145192077,0.7840633332671552,0.08239803731806164,0.5803569170469638,-137.29526075856256,-70.68280078901245,-18.99070721886737,23
1767650298.6365812,2,right_wrist,-0.1718,-0.1088,0.3162,-49.77,76.37,-13.3,0.039464924524183244,-0.9680050553110043,-0.19385335610299398,0.1543684195431365,-171.83142349414152,16.472672868593065,23.83294996422943,23
1767650298.720361,1,left_wrist,0.0542,-0.0825,0.2001,98.14,105.0,52.71,-0.2554246189763087,0.7474597628115994,0.07912337085785426,0.6081131960272901,-114.45919913016294,-71.71367716815423,-37.814286696657454,23
1767650298.720361,2,right_wrist,0.568,0.449,-0.0366,-155.89,160.65,-22.89,-0.048495742555999956,-0.9742555690003815,-0.22000059854275125,0.0086015037357689,174.79176439398066,2.1834008161983482,25.350223259702105,23
1767650298.77653,1,left_wrist,0.772,-0.751,-0.181,156.03,169.75,54.39,-0.38441340036442856,0.6280284085538232,0.07127064784222974,0.6728500207518452,-62.549488594918266,-64.14921442824097,-78.84086823033634,23
1767650298.77653,2,right_wrist,0.833,0.7969,-0.0961,-185.43,174.51,-5.18,-0.1113335536992294,-0.964208663907024,-0.22504316418356896,-0.08521775942595507,165.24300019708272,-6.558966262508927,27.125207339025273,23
1767650298.827248,1,left_wrist,1.1673,-0.8916,-0.4494,153.65,205.8,44.03,-0.4428424426775819,0.5432049711141022,0.06829246818412474,0.7100387800040221,-43.80255839488863,-56.29222235440832,-91.82130243633114,23
1767650298.827248,2,right_wrist,0.9496,1.1136,-0.5388,-152.6,214.27,4.76,-0.15511739636062474,-0.9422986838673693,-0.22598093363769214,-0.19220926450190007,156.64037901603456,-16.98551468564048,30.50794230836897,23
1767650298.8801742,1,left_wrist,1.5294,-0.876,-0.7974,100.66,198.73,34.16,-0.47998026649985637,0.4648788608686929,0.052853114516293986,0.7421004896737912,-33.19535740050021,-47.79197999092171,-99.16553978915032,23
1767650298.8801742,2,right_wrist,1.504,1.1702,-0.7232,-115.64,182.35,14.35,-0.18370424330991653,-0.9154539119650158,-0.22120011264496336,-0.2815446611529609,149.22612499127465,-25.735132551567887,34.36227157446824,23
1767650299.471519,1,left_wrist,0.7047,-0.7247,0.1386,-112.35,-172.2,-82.04,-0.30145336376955045,0.7140125210970211,0.1801267067817087,0.6056949386388132,-111.70998014951056,-76.79203361411385,-28.194525855913636,24
1767650299.471519,2,right_wrist,0.3426,0.3904,0.1684,132.72,-145.74,19.67,-0.05517581107169117,-0.9809584711147816,-0.1768524202077317,0.058303767351682634,174.9270326860311,7.695196292761764,20.09821466029819,24
1767650299.525826,1,left_wrist,0.2772,-0.3065,0.062,-96.11,-133.0,-85.4,-0.24054993130718133,0.7526214576334681,0.1955548472767362,0.5809087482250171,-147.20720360919816,-75.57859541201513,3.425829419161912,24
1767650299.525826,2,right_wrist,0.0537,0.3167,0.1083,116.97,-120.89,27.02,-0.01658140769954687,-0.9801175748859275,-0.15875507444426212,0.11786187957361896,-179.7099532562241,13.66836975135094,18.435976786535814,24
1767650299.577909,1,left_wrist,-0.1776,-0.1576,0.1869,-26.74,-50.54,-46.2,-0.1654778842719626,0.7846571262834946,0.22037507336856552,0.5553063037884608,-177.3968339461337,-70.80141623278945,29.525172441271874,24
1767650299.577909,2,right_wrist,-0.2538,0.1464,0.2738,17.36,-72.87,11.27,-0.015498340204716776,-0.9765623579074753,-0.15230539426754658,0.1512905464531689,-179.0500329264388,17.470232691215156,17.874925373542187,24
1767650299.628627,1,left_wrist,-0.2786,-0.2508,0.2674,-8.47,4.83,-4.13,-0.1629665403666528,0.7834876427453455,0.2187136477296603,0.5583487804975058,-178.02920531740054,-71.12113024042557,29.785600584701395,24
1767650299.628627,2,right_wrist,-0.2918,-0.142,0.4255,21.42,-4.83,-3.85,-0.006167278815196464,-0.975899397069483,-0.15251733605030451,0.15595125416473385,-177.86082508944583,17.83438807013816,18.1007887859698,24
1767650299.680446,1,left_wrist,-0.2186,-0.1488,0.2952,66.01,68.11,30.87,-0.20025741068896036,0.7638849634365005,0.21867037884775675,0.5732015330704795,-168.11905373759933,-74.4294772756801,22.912052052627892,24
1767650299.680446,2,right_wrist,-0.2474,0.1562,0.368,-26.6,66.01,-7.28,-0.013236928639641241,-0.9792534711252544,-0.15744331000335682,0.12688194175892908,-179.16922428328238,14.63540530757496,18.374259890524108,24
1767650299.736664,1,left_wrist,0.0947,-0.3738,0.1484,43.26,126.77,56.56,-0.24279261686232825,0.7318047736293884,0.19736002177124454,0.6054440851943605,-142.00525764182242,-79.10307375725677,-1.557040301358661,24
1767650299.736664,2,right_wrist,0.0937,0.0937,0.1601,-96.88,115.08,-24.22,-0.04598251425749208,-0.9812524445089399,-0.17344148531595494,0.07033704357722714,176.17915111853003,8.85807020248793,19.751533527111896,24
1767650299.816372,1,left_wrist,0.4329,-0.4695,-0.0917,135.1,168.77,81.97,-0.3237838065151457,0.6772206675743703,0.1850886970082315,0.6342541984791915,-86.00547796166661,-78.21406221162354,-51.58047752175335,24
1767650299.816372,2,right_wrist,0.6676,0.7325,-0.2679,-162.75,168.42,1.75,-0.14505594316860926,-0.966784718386972,-0.189185456051368,-0.09216802516884155,161.47155869446064,-7.084229007348105,23.301029571013487,24
1767650299.877855,1,left_wrist,1.242,-0.7505,-0.59,75.25,191.8,61.11,-0.44816055924262505,0.5510798710175856,0.1425273514091281,0.68931055627988,-40.199566662156215,-62.55835027215214,-88.87180012644154,24
1767650299.877855,2,right_wrist,0.9272,0.8355,-0.2816,-206.71,188.58,7.42,-0.2162935567043699,-0.9389107470444219,-0.18787635649519321,-0.19069919004219799,150.1818446626371,-16.07087022168192,26.93602364758299,24
1767650299.9698071,1,left_wrist,1.1927,-0.8394,-0.6944,109.97,178.78,50.19,-0.4981060282586541,0.4806724746067008,0.12774705695070662,0.7102992652454966,-30.478785211823368,-54.106266659007595,-94.07755588884277,24
1767650299.9698071,2,right_wrist,1.7563,1.282,-0.7261,-121.94,179.27,18.69,-0.2684028329527092,-0.8725099850199706,-0.1770401665113899,-0.36788996282180664,134.35164433107514,-33.15727941454363,37.223235189527145,24
1767650300.566014,1,left_wrist,0.5768,-0.7457,0.1386,-98.21,-171.85,-84.49,-0.33535909643570694,0.7189060448346223,0.1777971126883512,0.5823199823617184,-109.39862658428632,-73.0419312758893,-27.55642857709846,25
1767650300.566014,2,right_wrist,0.4216,0.4085,0.1108,121.66,-156.38,0.63,-0.060406132757033944,-0.9834507948462194,-0.16620903195444003,0.03937246421608355,173.90189621908965,5.596485467048744,18.887021260880775,25
1767650300.6300118,1,left_wrist,-0.0464,-0.0473,0.0747,-140.42,-62.72,-66.99,-0.19870129945935217,0.7870447638404008,0.18106395382919216,0.5552424496814997,-159.8513888674487,-71.0772398174665,11.446350523567554,25
1767650300.6300118,2,right_wrist,0.1835,0.1947,0.2621,34.3,-142.94,-13.16,-0.05643753031444446,-0.9789318312531216,-0.16708840983404785,0.10290159488824956,175.52482753022807,12.728263952902385,18.87292241047594,25
1767650300.720552,1,left_wrist,-0.1069,-0.2352,0.1142,-34.86,-14.91,-26.32,-0.18068677693251595,0.7913589481404697,0.18174191761150155,0.5550434030079475,-165.1898830291378,-70.76126965005736,15.321760891085383,25
1767650300.720552,2,right_wrist,-0.2952,-0.1503,0.3353,13.16,9.03,-0.63,-0.03524529048805634,-0.9764766461587054,-0.16585763350746974,0.13320050454994795,178.53237125453475,15.772939424441127,19.076427061562423,25
1767650300.781771,1,left_wrist,-0.0181,-0.0903,0.0956,45.43,67.48,36.61,-0.22146196050540312,0.7646329924926174,0.16581849738590038,0.5820611761366414,-147.00594547151658,-74.48733053937679,-0.9058461405010543,25
1767650300.781771,2,right_wrist,-0.1127,0.0337,0.1923,-6.23,84.63,2.24,-0.032265723552200865,-0.9807071554345062,-0.1664177089705829,0.09735268103239139,178.19304875430257,11.635692924704179,19.07760779993504,25
1767650300.870162,1,left_wrist,0.1205,-0.0791,0.0078,124.39,87.71,58.1,-0.2864423061608293,0.7316322505248151,0.16683440114976536,0.5956772094232405,-119.8048936585249,-75.28700537601216,-22.484993530668504,25
1767650300.870162,2,right_wrist,0.5744,0.4382,-0.0649,-195.37,139.16,-26.6,-0.1339940282629113,-0.9719273684933094,-0.18918803295133782,-0.040133264900231905,163.99309087908213,-1.565120213433795,22.250119874483378,25
1767650300.927606,1,left_wrist,0.7408,-0.6222,-0.3997,100.45,161.28,36.05,-0.4103102247465734,0.6255007957842121,0.15982087681864127,0.6440897152374462,-61.57256474959295,-69.53886687884207,-70.0608929034666,25
1767650300.927606,2,right_wrist,0.6886,0.774,-0.3572,-120.89,171.36,-11.13,-0.17231274802696447,-0.9563322437017687,-0.2006224823816155,-0.12444909034129177,157.35364022902297,-9.72327207331416,25.647258165661235,25
1767650301.01885,1,left_wrist,1.0741,-0.6193,-0.5266,151.55,185.57,50.61,-0.47551261996861366,0.5501835115025807,0.1542914042193166,0.668864720631389,-42.39980497719165,-61.97366328323652,-82.95519939546166,25
1767650301.01885,2,right_wrist,1.0599,1.0365,-0.6876,-121.24,169.89,-1.19,-0.2529426199407826,-0.8979903272545758,-0.21152818541582127,-0.29135756374153454,140.5660828376967,-24.598914184643256,35.44532142889803,25
1767650301.071342,1,left_wrist,1.2883,-0.6012,-0.6969,98.14,181.79,65.1,-0.5268552651176425,0.4827527656582173,0.12967072139359268,0.6874291242596767,-33.442698053758654,-53.16373156536072,-87.96843364026763,25
1767650301.071342,2,right_wrist,1.0663,0.9228,-0.5588,-116.76,150.22,17.15,-0.28231140445601,-0.8632194147751371,-0.204816348522102,-0.3649695552336078,132.03627233628623,-30.960941828702758,40.74291495223074,25
1767650301.123466,1,left_wrist,1.4742,-0.6207,-0.6388,86.03,171.29,57.96,-0.6110251950936808,0.3388228306743188,0.07999010048960692,0.710949283843956,-21.623870585941727,-35.41704436437912,-91.66609351500009,25
1767650301.123466,2,right_wrist,1.2825,1.423,-0.4738,-122.85,153.51,27.37,-0.3108133429957683,-0.8211657219793524,-0.19245748087776524,-0.4382260157910623,121.8987658030998,-36.87531653353916,47.36361818641609,25
1767650301.684747,1,left_wrist,0.0859,-0.3606,0.2342,-59.85,-111.09,-37.8,-0.26923131007045875,0.7646990815866097,0.27503481259943163,0.5168226660632597,-158.33013784621613,-69.8050746615925,24.352291321987924,26
1767650301.684747,2,right_wrist,0.1527,0.163,0.2738,117.6,-134.61,-5.18,-0.06673982681481597,-0.9791942143633869,-0.15224730938391617,0.11638403180572363,174.35625986796316,14.373806400283247,16.963199747189677,26
1767650301.765208,1,left_wrist,-0.1552,-0.2596,0.2816,-48.65,-35.91,-18.27,-0.24568445569995723,0.7757804423424386,0.27337074991827215,0.5129057287606635,-164.07377730061125,-68.4551439162545,27.950818828324422,26
1767650301.765208,2,right_wrist,-0.1981,-0.1059,0.3309,44.73,-13.37,-0.21,-0.0198623565134694,-0.9762252271534178,-0.14134060720787509,0.16313376541077806,-179.5557731238374,18.91259055472952,16.550385409125855,26
1767650301.821434,1,left_wrist,-0.2157,-0.0771,0.244,-30.59,5.25,3.92,-0.23742174686566753,0.7779658346510253,0.2641475196520987,0.5182915801868987,-164.72294202332296,-68.72584916168707,27.029485004086514,26
1767650301.821434,2,right_wrist,-0.2025,0.103,0.3933,-27.02,47.81,-14.35,-0.027874711234257474,-0.9780825605063814,-0.14971112024360245,0.14200030205000672,179.28186597056086,16.62594831078374,17.300042997764326,26
1767650301.8735528,1,left_wrist,-0.02,-0.2206,0.1903,74.06,116.76,46.97,-0.3105373329903367,0.7295978970552531,0.23839559184133102,0.5607325701458965,-133.82122503541706,-75.07862177310173,-0.0869914600907337,26
1767650301.8735528,2,right_wrist,-0.0434,0.0527,0.2455,-80.08,115.5,-11.69,-0.054174299532387706,-0.981593949179228,-0.16076879371280137,0.08770324494015544,175.43452980802044,10.92926784402033,18.166036574080398,26
1767650301.966423,1,left_wrist,0.3802,-0.2962,-0.08,67.34,154.56,58.31,-0.3644566731124774,0.687478723288944,0.21172799480269433,0.5913675630820637,-97.9279757270893,-75.33817136439293,-33.56409721072083,26
1767650301.966423,2,right_wrist,0.7017,0.7281,-0.0937,-127.26,182.28,0.56,-0.13110816189487332,-0.9724520180478946,-0.17890475090664798,-0.0716994601245743,163.62893747720824,-5.309565581835817,21.6128928581364,26
1767650302.027414,1,left_wrist,1.1175,-0.5334,-0.5373,88.41,170.17,57.12,-0.48376542397240474,0.5755865625516985,0.1691075993181603,0.6372391571706556,-50.62026344907589,-63.79105240309382,-72.79192142741395,26
1767650302.027414,2,right_wrist,0.9765,0.8428,-0.4685,-212.45,174.44,0.28,-0.20767433370412045,-0.947288695780283,-0.18042782900158294,-0.1641989539833168,152.2325736035882,-13.659254018952643,24.958943294670448,26
1767650302.078055,1,left_wrist,1.2054,-0.7774,-0.5163,145.74,200.76,69.09,-0.550159973698061,0.4947355383354124,0.1489524719243634,0.6560288953667668,-36.81937752332403,-54.391755960460706,-80.62158439997317,26
1767650302.078055,2,right_wrist,1.26,1.179,-0.5983,-138.18,199.15,18.06,-0.24776333540270232,-0.9156598568328832,-0.17950128957204659,-0.2606907042011364,143.56078357831655,-22.85873171172227,29.79707063234828,26
1767650302.168104,1,left_wrist,1.4396,-0.8325,-0.6207,138.81,179.97,50.89,-0.6022473692492175,0.415025378332816,0.13441745695525667,0.6685686119148739,-27.33502895001185,-45.795101576859814,-84.24651821430948,26
1767650302.168104,2,right_wrist,1.3503,1.343,-0.5573,-110.18,158.48,9.24,-0.3128192858401909,-0.8324796464072172,-0.1745974791584884,-0.4226552412967911,123.77304691295974,-36.47477717463019,43.65819664158652,26
1767650302.727884,1,left_wrist,0.1825,-0.4348,0.1767,-156.66,-116.69,-32.2,-0.3387856979349763,0.717958230331821,0.3163363496656189,0.519318345770436,-145.65141421927225,-73.74761861558444,21.452703422167062,27
1767650302.727884,2,right_wrist,0.3265,0.5114,0.2777,104.58,-177.52,-5.46,-0.05893243511596527,-0.9854260125434962,-0.13788175272642228,0.08031913943150613,174.52200099729026,10.052387789196613,15.44818642453874,27
1767650302.817514,1,left_wrist,-0.0273,-0.1132,0.042,-73.01,-75.88,-25.62,-0.3010498678449202,0.7418715292289063,0.3171624151545726,0.5083341554562693,-157.634914405882,-70.94413373488611,30.25864286811087,27
1767650302.817514,2,right_wrist,-0.2108,0.2152,0.2987,68.53,-43.26,0.14,0.01085260316626181,-0.9803565785315994,-0.12391912048229856,0.15305963384650165,-176.4442692901272,17.302488881443452,14.949377929200425,27
1767650302.872714,1,left_wrist,-0.2103,-0.0908,0.2323,-59.78,-23.8,-20.44,-0.2744189728093142,0.7515856834988935,0.31295389907148347,0.5117353268807396,-164.19151153907282,-70.21795356479706,34.06304184421149,27
1767650302.872714,2,right_wrist,-0.304,-0.1615,0.4831,-18.9,7.63,-14.07,0.004404103445080657,-0.9799663291239785,-0.13120749966337059,0.14977045666020314,-177.12689438328474,17.000755017722412,15.681431021881714,27
1767650302.9303381,1,left_wrist,-0.021,-0.1376,0.1381,27.16,77.14,42.35,-0.3129072579784132,0.730268228378958,0.28917770126767983,0.5340164975112934,-147.6406213053304,-73.92957407373824,18.570607603810398,27
1767650302.9303381,2,right_wrist,-0.0932,-0.0059,0.3109,-38.01,76.86,-24.08,-0.0059373986343403545,-0.982869249188472,-0.14377672303845157,0.11515658995242471,-178.73808778424328,13.183769023777035,16.79053583463081,27
1767650302.981893,1,left_wrist,0.1035,-0.1591,0.0781,93.1,125.86,63.07,-0.3746977347916377,0.6935234552371411,0.2708915373103381,0.5524894565433756,-116.25580739403287,-75.77394205166749,-8.964670983773352,27
1767650302.981893,2,right_wrist,0.0625,0.1635,0.0673,-111.37,118.65,-17.64,-0.04683470581826664,-0.9849223717754348,-0.15673698740968592,0.05628453326540358,175.68679789406983,7.2127065791984295,17.812076490964465,27
1767650303.064957,1,left_wrist,0.5163,-0.2538,-0.2323,75.11,138.53,60.97,-0.4274855654735056,0.6562247598095639,0.24650019732120612,0.5708439442135511,-86.47739875989318,-73.73046949487004,-35.96570702276391,27
1767650303.064957,2,right_wrist,0.7486,0.7881,-0.5632,-154.42,156.66,-10.85,-0.15830154398085083,-0.9656227768668985,-0.18171976751568356,-0.09742279026585528,159.87471803610865,-7.505091274021935,22.649253517062494,27
1767650303.1256871,1,left_wrist,1.0716,-0.345,-0.6339,85.89,174.09,57.05,-0.5508499392782782,0.5324497464793272,0.19860297308255936,0.6112433811126182,-44.15464987553479,-60.42537942079036,-69.37234370203103,27
1767650303.1256871,2,right_wrist,0.852,0.975,-0.5475,-184.31,169.47,7.84,-0.2227439414236927,-0.9397734140107128,-0.1807820953695797,-0.18581953845457663,149.7087394574482,-15.588130908185365,26.02129098672396,27
1767650303.21866,1,left_wrist,1.382,-0.8789,-0.5397,126.07,174.72,31.22,-0.5999492098997723,0.45997247004407527,0.182530238454148,0.6286246768876187,-32.291093344289,-52.874732452092374,-76.29203621304364,27
1767650303.21866,2,right_wrist,1.2298,1.1424,-0.6246,-88.83,175.0,23.17,-0.29166209861936454,-0.8736033350113616,-0.17905428495270917,-0.345962420395697,132.98795796881308,-30.001399379220622,36.4612209662844,27
1767650303.81952,1,left_wrist,0.7178,-0.6324,-0.0005,-137.2,-178.22,-49.91,-0.40274538116691794,0.675306839447925,0.3291703875754979,0.5228801836816585,-122.8150248109989,-76.25259524382199,5.65259290144776,28
1767650303.81952,2,right_wrist,0.3875,0.368,0.2338,133.42,-168.84,-1.26,-0.08800937490076019,-0.9881248178073044,-0.10984902697140363,0.061618874026508764,170.67629798514417,8.112068687087925,12.024360792886418,28
1767650303.874943,1,left_wrist,0.2806,-0.4124,0.1225,-80.43,-130.2,-46.27,-0.35149215818593926,0.7110181961753002,0.3442014646140379,0.5024258544292522,-148.17164342732545,-73.0257545162948,27.8247964249118,28
1767650303.874943,2,right_wrist,0.1152,0.2011,0.3099,121.66,-108.78,9.66,-0.041557822463573944,-0.9878240106858828,-0.09784223755633978,0.11359387243382324,176.470473272884,13.447467274045502,10.896957021944797,28
1767650303.930285,1,left_wrist,-0.1732,-0.1552,0.2372,-109.27,-32.2,-7.63,-0.2787471360743804,0.7491293731002105,0.3361091439357413,0.498132371816568,-166.6314264435358,-69.02074281310709,39.11478660040499,28
1767650303.930285,2,right_wrist,-0.1937,-0.041,0.4177,-1.89,-45.92,4.9,-0.044612649683176075,-0.9853942765792048,-0.09497751744416334,0.13411600334537074,176.27844166179102,15.830277270895078,10.493337946219341,28
1767650304.013618,1,left_wrist,-0.205,-0.2518,0.3436,-15.89,42.56,31.01,-0.2876046128762152,0.745835195752292,0.316390979337827,0.5107936918395856,-161.31129177827333,-70.72183446130349,32.65359655446729,28
1767650304.013618,2,right_wrist,-0.2386,-0.0703,0.2855,-49.21,84.98,-21.98,-0.09235388429460038,-0.9850035714304585,-0.12010155982847372,0.08254901363256159,170.5056384168242,10.649812521332011,13.016586559397055,28
1767650304.078305,1,left_wrist,0.1586,-0.1527,-0.0317,100.52,109.41,74.2,-0.384583153613674,0.6988073738863897,0.2734089062543933,0.5375980116586604,-117.38774327273634,-74.08129661512754,-6.570093599164759,28
1767650304.078305,2,right_wrist,0.285,0.2533,0.0752,-77.7,136.22,-15.75,-0.11901960222278601,-0.9835396060754107,-0.13465962421258226,0.018734011174385036,166.72522155688154,3.9511282751621293,15.132207079710053,28
1767650304.173804,1,left_wrist,0.4841,-0.2991,-0.0976,166.74,129.71,77.84,-0.4694833861627747,0.6481557366201842,0.26287504562324776,0.5388656619158964,-86.20419196221783,-70.97363673082785,-30.448997704153662,28
1767650304.173804,2,right_wrist,0.6842,0.771,-0.3811,-130.97,168.49,-13.65,-0.21055733241846444,-0.9525848379055926,-0.16226790984753106,-0.14804344561955346,152.62474136527095,-12.340120001568078,22.35084325345727,28
1767650304.230422,1,left_wrist,1.2342,-0.7525,-0.7954,161.35,203.91,51.73,-0.5902732178798985,0.5200848220985929,0.20895517719524226,0.5808847045668268,-44.96356200603484,-58.309685621529006,-63.082283535483114,28
1767650304.230422,2,right_wrist,1.1336,1.0507,-0.529,-135.38,174.23,12.46,-0.2538909447406342,-0.9244401025735707,-0.16301243786357883,-0.23318840029951604,144.41650144080606,-20.387200358032153,26.60601115093235,28
1767650304.280502,1,left_wrist,1.3684,-0.3401,-0.7105,161.42,150.78,54.6,-0.6493944137906889,0.44638286549842654,0.19968836833540143,0.5823691168652458,-33.64061164168417,-51.19398804682504,-67.2901109465822,28
1767650304.280502,2,right_wrist,1.0609,1.0038,-0.3982,-123.9,183.12,4.2,-0.29035815470119847,-0.8868949169678341,-0.16756854401694102,-0.3178526880666198,135.35566827543235,-27.806959289412514,33.00518638554241,28
1767650304.884119,1,left_wrist,0.3128,-0.7193,0.2338,-82.11,-154.49,-23.66,-0.4138604294489504,0.6949650655037677,0.38549174061073066,0.4440036267718806,-138.48867530918398,-69.42509900384346,28.612645315096618,29
1767650304.884119,2,right_wrist,0.4168,0.4441,0.3016,108.99,-178.78,-18.83,-0.11968924091784076,-0.9876327098807801,-0.09380815059818283,0.038159492441679946,166.68151384147586,5.614270689247274,10.195680559672518,29
1767650304.9740522,1,left_wrist,-0.0444,-0.2152,0.304,-82.39,-84.56,-17.71,-0.37211109264659015,0.7219506862525282,0.3885891216128429,0.43510807383111566,-149.96517282618748,-66.55606089583866,36.61045415108331,29
1767650304.9740522,2,right_wrist,-0.2723,-0.1279,0.4163,57.4,-90.16,-4.06,-0.11236322951798494,-0.980142794286915,-0.09720610001389843,0.13132243365021357,168.29910618525116,16.2168948714533,9.654884307892331,29
1767650305.044996,1,left_wrist,-0.2645,-0.0508,0.4704,-47.81,38.57,13.23,-0.35743511960315216,0.7298155705761054,0.36628596829610205,0.4532592609625763,-150.37772484956082,-67.43402539758652,33.28838745578572,29
1767650305.044996,2,right_wrist,-0.2425,-0.0971,0.3601,11.06,17.43,-3.36,-0.10667450419850942,-0.9813580259579522,-0.09897601005046736,0.12554172404584513,168.95965160541044,15.516697412930064,10.009568014900905,29
1767650305.1157749,1,left_wrist,-0.0503,0.1269,0.1,0.07,89.53,22.12,-0.3754892495817621,0.7142360991608415,0.34535951534052484,0.47916742717737765,-141.56284675602797,-70.70588915484238,23.829123262273214,29
1767650305.1157749,2,right_wrist,0.225,0.204,0.0083,-71.47,133.56,9.45,-0.14218893541850566,-0.9836354255395979,-0.10830922259987247,0.022644393741000076,164.00208243311877,4.321240905342785,11.959667765003752,29
1767650305.170172,1,left_wrist,0.2162,-0.1996,0.0512,75.04,114.52,40.88,-0.4267052666875459,0.6821514644755328,0.326713587599122,0.49583286153007977,-119.17656763096251,-72.80168193484792,4.381155150274858,29
1767650305.170172,2,right_wrist,0.3723,0.4978,-0.1459,-124.6,155.47,-4.76,-0.18959692370489056,-0.9730683631445602,-0.12043126569610993,-0.05183895650610063,157.5392464614374,-3.1654200608452814,14.739273444756773,29
1767650305.235532,1,left_wrist,0.4992,-0.4407,-0.0737,193.55,161.14,59.78,-0.5772027012815212,0.5701825061170555,0.29149811235192685,0.5067127409555165,-63.63282516569304,-66.11280493198025,-38.58290889586568,29
1767650305.235532,2,right_wrist,0.7047,0.6686,-0.2547,-184.59,158.27,-6.51,-0.259997319203912,-0.9477818032753306,-0.13091615692229308,-0.13027665655688037,147.61607430279372,-10.30406326982884,18.728333041808085,29
1767650305.318526,1,left_wrist,0.935,-0.834,-0.022,131.88,231.42,33.39,-0.6431534664863926,0.4899502877151227,0.2503855562037097,0.5325499106740741,-42.66044387068458,-57.55626162351074,-55.04065500950187,29
1767650305.318526,2,right_wrist,1.1775,1.4006,-0.3758,-59.71,194.32,46.13,-0.3576186340401778,-0.8689493661015982,-0.13345753670035077,-0.31499999624879743,127.7219113869133,-26.871065392606035,30.83589437795913,29
1767650305.375392,1,left_wrist,1.6343,-1.2298,-0.6398,123.55,218.96,35.42,-0.6964138874591964,0.409652102189523,0.20946494548230618,0.5507424889544738,-30.5145803867006,-47.985394511832276,-62.831804830953935,29
1767650305.375392,2,right_wrist,1.3991,1.4879,-0.3675,-143.78,179.41,41.86,-0.3950429218648568,-0.8182398293142226,-0.12419403049810855,-0.3987486857620267,116.38765232743097,-33.670786661807135,38.518215266238535,29
1767650305.930867,1,left_wrist,0.5412,-0.6071,-0.0122,-105.21,-156.45,-50.26,-0.4709346409882672,0.6492418090765447,0.41026394638943314,0.4340381683184508,-125.12890154853766,-71.80631303278666,23.382447987677114,30
1767650305.930867,2,right_wrist,0.57,0.5529,0.0449,168.98,-181.09,-5.53,-0.1503785094384178,-0.982293397293448,-0.11171016723653826,0.002612291859768723,162.83830236447776,2.219602966959485,12.64107691669248,30
1767650305.982198,1,left_wrist,0.1332,-0.1957,0.1732,-91.63,-138.6,-52.15,-0.4110860547109804,0.6826505949995167,0.433399658791881,0.4209051633421093,-147.447956493808,-68.58989223454556,42.2973268310757,30
1767650305.982198,2,right_wrist,0.3235,0.4568,0.1464,140.35,-160.02,5.46,-0.09892558607480514,-0.9873042386402869,-0.09801449896052439,0.07640174589757268,169.4534292047106,9.802693220626605,10.43195604908901,30
1767650306.069907,1,left_wrist,-0.1503,-0.1996,0.0581,-52.01,-105.84,-52.08,-0.3665333567103872,0.7011179996926984,0.45668656030147103,0.40684669663834827,-160.4205927932378,-64.86058921257626,53.6454337446502,30
1767650306.069907,2,right_wrist,-0.1972,0.0815,0.3167,-10.15,-32.34,-12.04,-0.05422389117604043,-0.9850202154453646,-0.09123260609527944,0.1359101040201207,175.1020545070621,16.11954447084196,9.889293376346803,30
1767650306.131022,1,left_wrist,-0.244,-0.3055,0.3343,-11.13,62.16,7.7,-0.3695306543455158,0.6946365267942802,0.4461209092396949,0.42650126082029577,-159.90479453733684,-67.25539966985319,51.978165581552055,30
1767650306.131022,2,right_wrist,-0.3128,-0.0722,0.3821,-20.02,19.95,-25.27,-0.060539615752580565,-0.9844255974072222,-0.10385352802332168,0.12827954946550327,174.492033658479,15.375144001663351,11.300413301032789,30
1767650306.185548,1,left_wrist,0.0395,-0.2191,0.2338,11.69,128.24,37.8,-0.4062155629317854,0.6745830938094418,0.4141169095769879,0.45654545357598236,-146.1245168559961,-72.25025494416165,38.026287555485155,30
1767650306.185548,2,right_wrist,-0.0195,0.0293,0.2172,-60.27,84.84,-15.96,-0.08203956432561936,-0.9857591604103653,-0.11623771659678603,0.08965032511195677,171.73899484577018,11.292597063226655,12.632035347414513,30
1767650306.23584,1,left_wrist,0.2411,-0.2006,0.042,98.28,154.91,74.06,-0.47903779541691405,0.6368630374855636,0.38061563862628517,0.46910552936399014,-111.7427409176626,-74.19000852038052,7.457558207303395,30
1767650306.23584,2,right_wrist,0.1508,0.2547,0.0264,-100.66,137.06,-16.24,-0.11926942711632377,-0.9838095896541051,-0.13149273050125607,0.024559252539306062,166.7649623050197,4.570711609743465,14.69514829734109,30
1767650306.318476,1,left_wrist,0.671,-0.3699,-0.449,108.22,138.25,75.67,-0.5445803844176655,0.599494474112431,0.35197116879619994,0.4692066461085182,-84.08198046255293,-71.07196855648814,-15.930300713277214,30
1767650306.318476,2,right_wrist,0.5807,0.6207,-0.4363,-151.76,144.69,10.29,-0.2241394794113833,-0.9558715441051749,-0.14585728954762356,-0.12164183501165876,151.92651886214009,-9.6229213131764,19.762915645913374,30
1767650306.373478,1,left_wrist,0.8589,-0.916,-0.6481,175.84,167.37,4.76,-0.701303613376527,0.4424172801847711,0.34059438553813837,0.44321062329194516,-40.23898681095556,-60.44565295569998,-40.49101883533823,30
1767650306.373478,2,right_wrist,0.8501,1.2761,-0.428,-156.87,157.01,41.51,-0.27818661491686836,-0.9292280940429704,-0.1344696540610189,-0.20264567268775485,143.16968934628343,-17.56531403090828,22.357765957249,30
1767650306.429944,1,left_wrist,0.8589,-0.916,-0.6481,175.84,167.37,4.76,-0.701303613376527,0.4424172801847711,0.34059438553813837,0.44321062329194516,-40.23898681095556,-60.44565295569998,-40.49101883533823,30
1767650306.429944,2,right_wrist,1.2293,1.3479,-0.57,-107.24,176.82,28.56,-0.3090077437043287,-0.8971837217527995,-0.13364684039119873,-0.2858567924783396,135.66064660713948,-25.488904775515433,27.476350354724026,30
1767650306.482145,1,left_wrist,1.2337,-0.9672,-0.5017,46.62,194.25,-3.29,-0.767302031238364,0.3302541487100804,0.247323721382519,0.4909284743817196,-21.81356368464465,-44.73318881997863,-56.15606850417693,30
1767650306.482145,2,right_wrist,1.1946,1.1634,-0.4124,-118.65,162.54,12.25,-0.34433788576983587,-0.8567206302326444,-0.13465158146647224,-0.3596249904635632,126.28159750665382,-31.564966198541644,34.15619205253742,30
1767650307.1210501,1,left_wrist,0.2342,-0.3367,0.1235,-75.11,-135.45,-48.93,-0.4741394814863116,0.6422119383109617,0.45591022881565896,0.393575204564544,-133.8855881634708,-69.69315313354515,37.727929337707,31
1767650307.1210501,2,right_wrist,-0.0137,0.2904,-0.019,116.48,-93.17,-0.77,-0.0257382437006748,-0.9844438437097913,-0.10090200361222755,0.1415155364620244,178.6783070503014,16.488463341947504,11.512847102083926,31
1767650307.178725,1,left_wrist,-0.1425,-0.1488,0.144,-83.3,-13.93,-29.47,-0.3938182151758923,0.6735228359949322,0.4632552710333294,0.42031982661879613,-157.2552292275212,-68.60171409460887,53.415728111632404,31
1767650307.178725,2,right_wrist,-0.1893,0.0478,0.0063,62.3,-54.81,2.1,-0.002252019709301864,-0.98081096963882,-0.09535067971868105,0.17003828427907677,-178.2971958765506,19.510541971335996,11.398031757675302,31
1767650307.229019,1,left_wrist,-0.205,-0.0893,0.1015,8.47,22.89,4.27,-0.4024129068718607,0.6688480679820784,0.45905903584667357,0.42422979144221185,-154.79593890408444,-69.54601033035561,51.28034543377143,31
1767650307.229019,2,right_wrist,-0.2181,0.0395,0.2362,43.68,2.03,-1.19,0.01641477724767019,-0.9805567368562497,-0.09252288756256037,0.17227465330343558,-176.10120863618593,19.561146216424962,11.452983290410172,31
1767650307.31207,1,left_wrist,-0.144,-0.103,0.0947,31.22,54.67,16.87,-0.4264908874540047,0.6564445822490702,0.4493475529780275,0.4304332816909004,-146.91182678116158,-71.51315176857543,44.63762311393737,31
1767650307.31207,2,right_wrist,0.0405,0.0264,0.1884,-79.31,114.8,-12.53,-0.01535439024673696,-0.9898394766042574,-0.10814670610634652,0.0910293535861268,179.37587983214726,10.575437272495238,12.41268182152711,31
1767650307.36737,1,left_wrist,0.0239,-0.1386,0.1347,83.44,98.49,41.37,-0.4786486372637977,0.6289131487005681,0.43257970639936505,0.43386464599974695,-126.10086446932344,-73.70580745546222,27.320603563566188,31
1767650307.36737,2,right_wrist,0.1659,0.0874,-0.0195,-120.75,134.47,-7.14,-0.061713290303239104,-0.9909622442237566,-0.11649151620955356,0.02479973738093591,173.29432888214285,3.642416920713352,13.195686240565259,31
1767650307.421793,1,left_wrist,0.3079,-0.4504,0.0605,94.64,149.8,45.36,-0.5424542396085916,0.5879119403307782,0.4028841837322697,0.44473282186673235,-93.2586361656962,-73.7438759735018,-1.796047807664483,31
1767650307.421793,2,right_wrist,0.7837,0.5363,-0.1908,-212.31,147.56,12.25,-0.14668293423915735,-0.9808958623147788,-0.11651517913219492,-0.05245604949412528,162.50057680851435,-3.9408314956897303,14.154978347449843,31
1767650307.4729788,1,left_wrist,0.5949,-0.4143,-0.2508,174.3,163.24,40.18,-0.6198123747223206,0.5225085927502512,0.3852227978672851,0.4409317256067322,-62.96424983585914,-69.77014063802486,-24.6147345063163,31
1767650307.4729788,2,right_wrist,0.7818,1.0321,-0.2933,-186.48,172.48,33.88,-0.2177479190629055,-0.9599607473123576,-0.10779021356678478,-0.13943628373741604,152.64807364874562,-12.753941410834782,15.928882245346836,31
1767650307.52447,1,left_wrist,1.2873,-0.8735,-0.3884,91.35,183.26,10.71,-0.6699562913044691,0.46602897761292567,0.34969208132844604,0.4600989111297612,-43.309068871506184,-63.817823599831726,-41.18751454547791,31
1767650307.52447,2,right_wrist,1.0087,1.3376,-0.6139,-133.35,179.13,40.39,-0.2636031692868408,-0.9325365575870166,-0.09891251246826814,-0.22606470928233038,144.74586357259864,-21.683545446332943,19.07378906335098,31
1767650308.1671429,1,left_wrist,0.8242,-0.8111,0.2211,-102.97,-209.65,-40.53,-0.5600810040762044,0.541553965994774,0.48103134213605736,0.40204156336267666,-102.65059380635778,-76.97897202354952,18.276421562660413,32
1767650308.1671429,2,right_wrist,0.5827,0.6266,0.1108,154.77,-170.73,-3.78,-0.06065213217225118,-0.9941709644605664,-0.06933958280305368,0.05601280695703098,173.47437137335095,6.879625215414732,7.586729092917144,32
1767650308.222542,1,left_wrist,0.2928,-0.5583,0.4621,-84.98,-165.06,-44.59,-0.4978170924324724,0.5800475674861076,0.5133687153471981,0.39009681367360105,-138.49381384244484,-74.50995231415395,50.86713284642408,32
1767650308.222542,2,right_wrist,0.1464,0.2425,0.2435,98.7,-167.86,-14.0,-0.02334718927260079,-0.9886851490706476,-0.06821637177950336,0.1315412915455105,178.32376763557556,15.26543817658376,7.669323023736738,32
1767650308.27667,1,left_wrist,-0.1113,0.0234,0.264,-65.87,-10.15,-7.84,-0.43237711136255896,0.617397081107648,0.5100794924364291,0.41435466596301335,-158.53114051696548,-72.31407082257923,63.351595884668406,32
1767650308.27667,2,right_wrist,-0.1513,0.0425,0.4275,92.68,-107.73,0.91,0.013323663953984075,-0.9814124302165356,-0.061235202011024704,0.18139010951533158,-177.03509509254454,20.756998665111176,7.683809300498361,32
1767650308.33088,1,left_wrist,-0.285,-0.1396,0.2401,0.07,28.14,9.94,-0.44129683467664976,0.6144068302238992,0.5013848716308478,0.4199697145965511,-154.82846618725588,-73.45243725838716,59.51758059416404,32
1767650308.33088,2,right_wrist,-0.3304,0.1981,0.5388,10.36,13.93,10.43,0.016879697018558917,-0.9825242366314213,-0.05573156852440399,0.17679138137990236,-176.76993418346925,20.213674221552505,7.0689090577453735,32
1767650308.382321,1,left_wrist,-0.2142,-0.0224,0.344,5.04,64.82,29.89,-0.46295841733055615,0.6072664964635238,0.4809091814680915,0.43084018530702745,-143.53190802293528,-75.59271355637644,48.08739930063334,32
1767650308.382321,2,right_wrist,-0.223,-0.1449,0.408,-9.87,87.15,-6.51,0.01567181158191642,-0.9883017173617336,-0.05866154986625801,0.1399032964189103,-177.17492778931458,15.943819363190386,7.189419920771934,32
1767650308.46418,1,left_wrist,0.1869,-0.2899,0.0459,102.55,115.01,40.95,-0.5233489755308065,0.5726880770149434,0.46263339524827485,0.4290740703617908,-112.53769006509917,-77.34022158728467,21.628020235162825,32
1767650308.46418,2,right_wrist,0.4324,0.3216,-0.1039,-112.56,140.84,-17.22,-0.0611013587256314,-0.9951096935975119,-0.07579745675793478,0.016675347647852126,173.15495146426184,2.4329515515579843,8.566085995528926,32
1767650308.527607,1,left_wrist,0.8301,-0.5427,-0.3245,138.39,172.2,45.78,-0.6607589438763194,0.46986987761674115,0.39995435396131557,0.42738323661939087,-49.48029737783833,-68.4622435727534,-30.97519692937573,32
1767650308.527607,2,right_wrist,0.7218,0.8745,-0.447,-147.14,194.04,-6.86,-0.12010367690961378,-0.9863701208255221,-0.08437576915334755,-0.07436276699543233,165.4336859629266,-7.263386873099348,10.708067067354031,32
1767650308.583796,1,left_wrist,1.0531,-0.7676,-0.5505,136.64,188.65,30.17,-0.722325823951033,0.4020958354050699,0.3639313105993144,0.42909013548300723,-33.11522920271553,-60.55461456485319,-41.730007230678076,32
1767650308.583796,2,right_wrist,0.6852,0.7769,-0.5392,-189.42,174.79,-14.84,-0.196779974627501,-0.9632273121293327,-0.09300174844871818,-0.15754828319973074,154.92744710892873,-15.480348748266715,14.492115950273783,32
1767650308.662106,1,left_wrist,1.2137,-0.8779,-0.5217,118.65,190.4,18.97,-0.7720363845663085,0.3342235797214659,0.32258981047167445,0.4338089831294424,-22.56162452554748,-52.00649361007094,-47.54837895092819,32
1767650308.662106,2,right_wrist,1.14,1.1073,-0.4695,-140.7,180.67,11.27,-0.28879551677781706,-0.8973229759996307,-0.09244280807915287,-0.32072254904611963,137.37052941946231,-31.479219461015393,24.31451871109773,32
1767650308.7157319,1,left_wrist,1.342,-0.9213,-0.4978,132.09,165.41,17.5,-0.8133118992923891,0.263597327939679,0.2897767640102602,0.430197199214744,-14.515934930301068,-44.279201796623994,-49.820259863415686,32
1767650308.7157319,2,right_wrist,1.3449,0.974,-0.4577,-150.36,150.85,12.74,-0.33918489304849575,-0.8524254887894259,-0.08418827386531165,-0.388891667348849,125.98422862517711,-37.293025033930974,30.798870379114653,32
1767650309.320833,1,left_wrist,0.0869,-0.4202,0.1728,-95.06,-106.68,-45.22,-0.47853685936738793,0.5907343458617108,0.49826095842762647,0.41685899792725656,-142.3609567214041,-75.78435322265778,50.58276694289019,33
1767650309.320833,2,right_wrist,-0.0137,0.2362,0.244,111.58,-105.21,5.53,0.017483980681815586,-0.9899291552623756,-0.04802467048732481,0.13201594224040228,-177.1927492379817,15.051878411167083,5.925800172933348,33
1767650309.375988,1,left_wrist,-0.202,-0.1484,0.4128,-39.55,10.36,-10.99,-0.4334010775686968,0.609058511044484,0.4990123893055493,0.43840377667868613,-159.3558293249133,-75.1437450788851,62.70449537353297,33
1767650309.375988,2,right_wrist,-0.1806,-0.0454,0.3904,33.95,-35.7,0.35,0.031594849112168755,-0.9872439211395891,-0.04616901845722828,0.14906249500529672,-175.43427965812973,16.942070758000163,6.0353813364022635,33
1767650309.426677,1,left_wrist,-0.202,-0.0468,0.3245,-43.68,54.25,27.72,-0.43952425556206254,0.6121831820816035,0.47201883962830027,0.45743676654266663,-151.42097328349868,-77.1608256351712,52.2970507398982,33
1767650309.426677,2,right_wrist,-0.2445,-0.1684,0.4363,-50.19,14.84,-18.97,0.011893722394432768,-0.9880805695176732,-0.05747352981761277,0.14230994652356121,-177.62032770844752,16.251863431609625,6.997751787138464,33
1767650309.514858,1,left_wrist,0.0181,-0.0473,0.2113,81.9,85.19,50.19,-0.4896697551601711,0.5878866351175078,0.45681153044433925,0.4538017857883468,-123.97232016581827,-78.79599923509116,28.489082935332036,33
1767650309.514858,2,right_wrist,0.2494,0.204,-0.103,-124.04,122.43,-12.67,-0.055751892886740595,-0.9945996927155751,-0.07565736608583487,0.044035674703392653,173.98882785037756,5.510710273661641,8.410448616791708,33
1767650309.56592,1,left_wrist,0.4182,-0.263,-0.1215,80.29,118.72,56.7,-0.5452807620448707,0.5600746122496317,0.43008127965522713,0.45168065283705944,-89.3058551478924,-77.1562317324334,-2.7926067830430807,33
1767650309.56592,2,right_wrist,0.5241,0.5334,-0.1854,-110.95,165.06,-2.03,-0.09990327189747843,-0.9910306745133459,-0.08219147519019174,-0.033497758788627464,168.24217440086673,-2.8643902210737573,9.776992102706492,33
1767650309.618386,1,left_wrist,0.5622,-0.3767,-0.2074,160.37,161.63,63.91,-0.6239660611032213,0.5027781809678765,0.4049125547134853,0.4403706147886835,-58.41281610542121,-71.46341558729465,-26.60868716535068,33
1767650309.618386,2,right_wrist,0.6808,0.8091,-0.4929,72.24,182.14,7.14,-0.06377695730393483,-0.9877563865907916,-0.0875992306710893,-0.11223277262897828,171.4313097656509,-12.154213482268018,11.04999176514958,33
1767650309.6711528,1,left_wrist,1.0868,-0.2904,-0.5261,92.05,170.31,59.5,-0.680916419998908,0.4563695459201359,0.3640065073680375,0.44224306566213406,-43.24717549999197,-64.07518966590055,-38.142556037935236,33
1767650309.6711528,2,right_wrist,1.0838,0.8525,-0.6637,-181.3,174.02,-4.27,-0.1366756292845041,-0.9673587227183928,-0.08484561088573393,-0.19580116509804218,161.42934966468238,-20.831893533513295,13.467864029361396,33
1767650309.7266612,1,left_wrist,1.3752,-0.9399,-0.5622,207.83,148.68,40.95,-0.8043998712268422,0.2822424729699001,0.32394625148339795,0.4102911890010922,-16.616562786717125,-48.83070942822936,-46.46330862146597,33
1767650309.7266612,2,right_wrist,1.0765,1.015,-0.6232,-113.68,189.35,-20.3,-0.18069374926355464,-0.9380595051925678,-0.09455573282162497,-0.2800952464529163,153.25397494245937,-29.42742810989834,18.656505188764385,33
1767650309.780711,1,left_wrist,1.3366,-1.2449,-0.5876,41.09,147.0,52.22,-0.8365936152585396,0.25231236180140354,0.2740242142535444,0.4016968072982057,-15.621430778060992,-41.391452623282674,-45.36365187362326,33
1767650309.780711,2,right_wrist,1.3527,1.0995,-0.651,-150.64,190.96,-23.52,-0.23787229078483055,-0.8951909133451392,-0.10014999347066283,-0.36334553905187644,141.31633265204297,-37.076545035867326,26.19355187708725,33
1767650310.286025,1,left_wrist,0.6007,-0.5344,0.0146,-134.19,-181.72,-64.19,-0.5471707721076757,0.5141856959438151,0.5277147874460908,0.3971578015708509,-120.85386100927177,-80.37594583651614,40.267861111068186,34
1767650310.286025,2,right_wrist,0.8628,0.8935,0.0576,158.13,-197.12,-4.34,-0.09590017185767775,-0.9948791402209489,-0.031063519363396713,0.007328789508032657,169.0236953191056,1.1769674939452452,3.4636898108784235,34
1767650310.366612,1,left_wrist,0.2987,-0.4919,0.2533,-99.33,-129.99,-41.58,-0.4885602982780776,0.5500929075020341,0.547353885236049,0.3988863903160855,-153.73970759999509,-76.82536607228704,68.75541323055151,34
1767650310.366612,2,right_wrist,0.0996,0.163,0.5065,78.26,-124.04,-0.84,-0.0013683596958597069,-0.9903420671532531,-0.023448805788663315,0.13664139609009354,-179.7799094953339,15.706378581758011,2.7430894952207527,34
1767650310.419016,1,left_wrist,0.0098,-0.3006,0.4743,-119.0,-91.7,-28.28,-0.43361902441881767,0.583279334602051,0.5505297086737632,0.4107028114778899,-169.4002034561317,-73.04797612007096,78.83056630273123,34
1767650310.419016,2,right_wrist,-0.3333,-0.0927,0.5217,86.52,-5.88,-8.61,0.036817976289581195,-0.9890757859089087,-0.02200797110695942,0.1410289883618611,-175.2811373378244,16.102473888358993,3.2172280545231313,34
1767650310.471013,1,left_wrist,-0.2255,-0.1742,0.4265,-40.88,7.14,5.39,-0.4268289420687044,0.590712566957327,0.5395773573741427,0.42158272362649396,-170.01747356299342,-73.47241623185464,77.36040358431403,34
1767650310.471013,2,right_wrist,-0.1972,-0.1308,0.2528,-11.48,54.67,-11.2,0.033667145491316976,-0.9920674907473982,-0.02672642386773136,0.11812838517422337,-175.6886623788647,13.449194933391524,3.594943544155219,34
1767650310.528105,1,left_wrist,0.0127,-0.0473,0.1254,85.82,93.87,36.61,-0.5010347750787414,0.5553817832136686,0.5144843917487851,0.41931019506217987,-139.46970532166642,-78.90326423972652,51.8201067328742,34
