timestamp,node_id,node_name,ax,ay,az,gx,gy,gz,qw,qx,qy,qz,roll,pitch,yaw,rep_number
1767650133.116004,1,left_wrist,0.4109,-0.244,-0.6242,-60.9,-55.65,-28.07,0.24351968605818963,0.16665654348013792,-0.9387798038263332,0.17780955808157498,-162.8373460476127,-31.097032437777234,-164.6754087946172,1
1767650133.116004,2,right_wrist,0.2591,0.3411,-0.6285,63.84,-69.58,4.9,0.008460660800116628,-0.5413640499533169,-0.8215533667371534,-0.17861536395231103,163.1039341094407,-11.963799744503444,115.01733902851026,1
1767650133.1722019,1,left_wrist,0.3016,-0.0752,-0.6632,-38.92,-40.88,-19.25,0.2112744622581297,0.18260811788433998,-0.9515302355966355,0.128870429601552,-169.15633564424286,-26.688113467428362,-160.8523104319283,1
1767650133.1722019,2,right_wrist,0.222,0.4504,-0.7071,93.59,-61.04,8.54,0.00795307521062459,-0.5476691327354495,-0.8257960955604147,-0.1343729072420085,167.52509425831505,-9.225413996776329,113.9056734654306,1
1767650133.2606468,1,left_wrist,0.2172,-0.0234,-0.6617,-28.7,-31.99,-18.06,0.19846998942285293,0.18984916424440798,-0.9553529056699948,0.10893935818651819,-171.5835395759577,-24.871327835970913,-159.38019303417934,1
1767650133.2606468,2,right_wrist,0.1152,0.1718,-0.7427,68.39,-41.86,5.04,-0.002346072306783721,-0.5541002218888439,-0.8283891553443107,-0.0820904827334129,172.002248080314,-4.9959765719272475,112.7932332315467,1
1767650133.3147252,1,left_wrist,0.1986,-0.0356,-0.6329,-49.63,-26.39,-13.16,0.18872477858459102,0.19267895465850138,-0.9594693809020364,0.08170853989251843,-174.75295259905502,-23.18107690809525,-158.366874120505,1
1767650133.3147252,2,right_wrist,0.0644,0.2362,-0.7379,31.57,-34.86,4.41,-0.009860298369740334,-0.556530503056221,-0.828130821844393,-0.06615070366503804,173.0653989181721,-3.2847632704172356,112.39434119553285,1
1767650133.3648791,1,left_wrist,0.1405,0.1088,-0.6251,-2.03,-16.59,-7.77,0.1802390512444604,0.1971750911460006,-0.9607857350656521,0.07434136891675783,-175.55814601107704,-22.065033521677464,-157.67169558278033,1
1767650133.3648791,2,right_wrist,-0.0054,0.0503,-0.6368,34.86,-19.46,-0.07,-0.010420855607475903,-0.5570933964391187,-0.8292044834648777,-0.0442524351203443,175.12150062273838,-1.8351216089802889,112.28854816006219,1
1767650133.41748,1,left_wrist,0.0908,0.0839,-0.5451,16.24,5.11,0.91,0.17500007443324472,0.20026521297984104,-0.9624036366987321,0.055209224659947695,-177.7788177016012,-21.035995441074963,-156.90274607499015,1
1767650133.41748,2,right_wrist,-0.0259,0.0551,-0.6188,21.63,-6.86,-1.12,-0.01194436341671015,-0.5567364911607331,-0.8299796309991754,-0.03218110810828584,176.17394713467317,-0.9170946505684023,112.32453294615463,1
1767650133.471731,1,left_wrist,0.0761,0.2176,-0.4821,13.79,4.69,3.71,0.1747506712527654,0.20048262927547975,-0.9622930637443378,0.05710497110615072,-177.5536733900448,-21.052290674599178,-156.91748330919904,1
1767650133.471731,2,right_wrist,-0.0498,-0.0117,-0.5261,-12.39,3.15,-9.94,-0.015441076253424639,-0.5530058321073218,-0.8323949668904731,-0.03263038330808456,175.90533359380146,-0.5949377639359299,112.82471215469499,1
1767650133.562943,1,left_wrist,0.1093,0.0317,-0.4597,42.84,21.7,7.7,0.1768120043084229,0.20058339342608517,-0.9607595918774895,0.07378905087825927,-175.6271029073612,-21.675497133811888,-157.2523805704609,1
1767650133.562943,2,right_wrist,-0.001,0.1186,-0.4641,-68.88,49.07,-15.26,-0.0190527512766601,-0.5422794293789042,-0.8353185417133071,-0.08839087628954521,170.28897241036597,-3.67144010756654,114.32962575960134,1
1767650133.618329,1,left_wrist,0.1537,-0.1547,-0.5339,53.9,61.18,23.24,0.2015397573707692,0.187595105993665,-0.9531076889214725,0.12560069953995742,-169.53926744883918,-25.550238198970902,-160.10833148431234,1
1767650133.618329,2,right_wrist,0.0903,0.1708,-0.55,-57.47,65.52,-13.86,-0.009063029035603349,-0.5335804607945714,-0.8357440345846483,-0.12938957461529427,166.83996793274576,-7.061275017278638,115.70317912979071,1
1767650133.672836,1,left_wrist,0.3997,-0.0283,-0.5939,82.18,66.43,22.54,0.22496375821885112,0.18242383151507593,-0.9428147301334032,0.16496435320058622,-164.8266923337434,-28.972196880252245,-162.04016065882195,1
1767650133.672836,2,right_wrist,0.246,0.3933,-0.673,-73.71,86.03,-8.68,0.004823499835680503,-0.5242350617130318,-0.8322347546801993,-0.18038749131372028,162.4761726124276,-11.370901139807817,117.34353058116926,1
1767650133.7231748,1,left_wrist,0.4172,-0.4138,-0.5475,76.72,89.95,42.07,0.25285574036289044,0.16484419132730532,-0.9295875344790263,0.2115594074778673,-158.39342472344927,-32.67354858261276,-166.29122219997203,1
1767650133.7231748,2,right_wrist,0.3743,0.3919,-0.6788,-97.37,92.68,-12.11,0.016762691122053433,-0.5115367739826516,-0.8247482367597244,-0.24049841374007808,156.7577191434593,-15.884412592829456,119.66971322140398,1
1767650133.773748,1,left_wrist,0.5739,-0.1005,-0.7008,80.92,84.21,36.26,0.28034142173345317,0.15268668319295775,-0.9139831967390427,0.25045993714500536,-152.57602006129397,-36.08171649075151,-170.1195568146147,1
1767650133.773748,2,right_wrist,0.4592,0.53,-0.7193,-93.52,93.8,-8.12,0.029887832152041657,-0.49813936013706633,-0.8135486156546794,-0.2985004947028398,150.92657694904503,-20.244078887506923,122.34219778355136,1
1767650133.826102,1,left_wrist,0.612,-0.5261,-0.6681,101.43,101.36,33.67,0.3097231200322825,0.1388780428564,-0.8897445218272461,0.30518709672633537,-143.68537286784985,-39.487990675922944,-175.6836556210677,1
1767650133.826102,2,right_wrist,0.569,0.7276,-0.751,-93.17,96.88,-5.25,0.04381690352807394,-0.4833161411514015,-0.7986706216771368,-0.3558241486149946,144.70061802542267,-24.45268519000372,125.52747312375334,1
1767650133.916137,1,left_wrist,0.852,-0.2211,-0.853,54.6,78.75,38.15,0.33300135058454705,0.12292182708547524,-0.8740361725435948,0.3317545689514759,-138.2532460026054,-41.580388028268985,179.5348123652409,1
1767650133.916137,2,right_wrist,0.6856,0.7618,-0.8106,-63.28,62.16,-17.36,0.06179781529331474,-0.4537686619311148,-0.7691367104093436,-0.44576199050043785,133.37849541394635,-29.974041140273712,132.0814399500463,1
1767650133.974991,1,left_wrist,0.6978,-0.6041,-0.6183,62.86,69.44,34.23,0.3576628599872784,0.11022252234583205,-0.8275954054555751,0.41834688838602013,-122.71340876532027,-43.17451364196948,170.78265380571662,1
1767650133.974991,2,right_wrist,0.6529,0.8169,-0.6207,-78.68,58.52,-12.88,0.06384790977653124,-0.4388402310577428,-0.7524456927591051,-0.4869991534598652,127.40134448066796,-31.568247553550943,135.40258231801698,1
1767650135.27438,1,left_wrist,0.4426,-0.1401,-0.6339,-27.86,-53.41,-41.44,0.254084459196109,0.27333999465409375,-0.9119803939345608,0.17034698704844797,-168.06559624610816,-33.818602050771204,-150.27082347876683,2
1767650135.27438,2,right_wrist,0.3216,0.3416,-0.6661,77.77,-72.87,26.74,0.06770182591879707,-0.5590469304719564,-0.816500918769113,-0.12731552123106862,172.14584257125716,-14.649654214329582,112.21334751272937,2
1767650135.324487,1,left_wrist,0.3636,-0.264,-0.6651,-44.66,-58.52,-36.19,0.235030163472948,0.28568006146792513,-0.9177416101445923,0.14456161920362212,-171.21196598524577,-30.93001352314325,-147.85450736568913,2
1767650135.324487,2,right_wrist,0.2879,0.2533,-0.7354,80.01,-61.95,22.68,0.06605350072299364,-0.567148846426812,-0.8162990511137493,-0.08737837369604923,176.03034432935527,-11.943785782343394,110.83376707133617,2
1767650135.380451,1,left_wrist,0.2767,-0.0547,-0.6188,-9.45,-52.29,-23.94,0.2133731334931209,0.2980234719956321,-0.9214429840034272,0.12882834809876012,-172.8255956336826,-28.034951945033306,-145.9476436026381,2
1767650135.380451,2,right_wrist,0.2235,0.2162,-0.7818,59.64,-56.35,16.73,0.060051669852551136,-0.5727288495764079,-0.8156107098550482,-0.056166108825063045,178.6740869366868,-9.340042678937571,109.9545955660518,2
1767650135.4668028,1,left_wrist,0.2006,0.0571,-0.6041,-46.48,-49.07,-16.52,0.1987556857199424,0.3039205877774135,-0.9265963587230854,0.09771203467406658,-176.177015658191,-25.32333191826986,-144.54051816220186,2
1767650135.4668028,2,right_wrist,0.1152,0.181,-0.7369,62.3,-37.59,6.79,0.047072565898488045,-0.575978117232877,-0.8160794231155575,-0.006910656696856841,-177.5297027650463,-4.863988200808017,109.46718523678216,2
1767650135.52661,1,left_wrist,0.063,0.1991,-0.509,-8.61,-14.42,-1.33,0.17917575637121783,0.3063156832574827,-0.9317702982367657,0.0766215494692734,-177.95354616945139,-22.38585157360944,-144.00885026136993,2
1767650135.52661,2,right_wrist,0.0425,-0.0395,-0.6871,13.16,-20.86,4.2,0.041003406531270846,-0.5774304109251374,-0.8153733040312603,0.007695210510724483,-176.56000905446615,-3.323831418388268,109.28949758795787,2
1767650135.608924,1,left_wrist,0.0512,0.0976,-0.469,6.58,6.44,5.25,0.17822662654368002,0.3052690411510233,-0.9323169367077817,0.07636237053295587,-177.9208789221774,-22.26862993550471,-144.14918924980046,2
1767650135.608924,2,right_wrist,-0.0127,-0.0478,-0.3914,-21.14,8.33,-9.8,0.03361555864038407,-0.5739050681386362,-0.8180390232224689,0.017751717305976432,-176.11994179732838,-1.984095378572059,109.82870756294956,2
1767650135.66719,1,left_wrist,0.1186,0.0166,-0.3958,47.39,29.96,14.98,0.18529058125713138,0.2999963245102434,-0.9304677254675707,0.0994958172032604,-175.35991653884858,-23.860460596832475,-145.24073617366855,2
1767650135.66719,2,right_wrist,0.0278,-0.0298,-0.405,-33.95,39.34,-14.28,0.043750181627771195,-0.5692129671555166,-0.820998930537869,-0.006578425740636805,-177.7575648667439,-4.549868658926856,110.44240811535326,2
1767650135.721612,1,left_wrist,0.1742,0.0107,-0.3904,43.75,50.61,21.77,0.20075929573362364,0.2934215480079082,-0.9267989941090866,0.12100878009288105,-173.17786299754752,-26.304410169311815,-146.46066228056284,2
1767650135.721612,2,right_wrist,0.0673,-0.0166,-0.429,-69.23,54.04,-19.88,0.049852195926394643,-0.5625527262541432,-0.8238592783427361,-0.048011230289727216,178.66853125619951,-7.825707343133367,111.43850184121824,2
1767650135.775681,1,left_wrist,0.2933,-0.0112,-0.6012,42.77,61.25,25.34,0.21976882940089135,0.28472137684021714,-0.9219656813552715,0.1435781376013877,-170.80254151771913,-29.14347002915225,-148.07225133987436,2
1767650135.775681,2,right_wrist,0.1923,0.143,-0.569,-136.92,64.89,-6.16,0.03986743889690155,-0.5602444204803728,-0.8189467283464267,-0.11774138086117956,171.30667681296725,-11.374820173859433,112.11508329949547,2
1767650135.855254,1,left_wrist,0.327,0.0254,-0.6671,59.5,71.05,20.37,0.23956189018478977,0.27885076464826086,-0.9136733230817469,0.17335919506887648,-167.48278734859187,-32.306301168219875,-149.69464482024233,2
1767650135.855254,2,right_wrist,0.4412,0.5402,-0.8272,-81.69,81.34,-10.64,0.04949315526881531,-0.5448334979841375,-0.8047918150967555,-0.2302542538351367,160.39428270418938,-19.30300146006338,115.17116944303486,2
1767650135.9067142,1,left_wrist,0.5065,-0.3479,-0.5856,92.96,95.27,23.1,0.2645744621702612,0.270481240084158,-0.8971107950096787,0.2281062783155152,-160.6039550845761,-36.7340947482315,-152.93867489502236,2
1767650135.9067142,2,right_wrist,0.5441,0.5802,-0.7691,-101.43,86.1,-17.43,0.054126460340828284,-0.5305587009961138,-0.7945936424913512,-0.29017018179098897,153.94630494366754,-23.19874095614368,117.97484212277152,2
1767650135.958564,1,left_wrist,0.7061,-0.3231,-0.7603,89.04,105.56,38.01,0.2936772198471216,0.25423700567103547,-0.8772422666328256,0.2820695678785536,-152.66059414241266,-41.19906523985526,-158.12178770683488,2
1767650135.958564,2,right_wrist,0.6198,0.6788,-0.8076,-66.5,93.45,-17.15,0.06921947950301532,-0.5128007934355084,-0.7858521818166068,-0.3386448851574811,148.78095827036753,-27.136201846690675,121.4625238077997,2
1767650136.009043,1,left_wrist,0.6422,-0.2786,-0.6637,88.69,86.31,45.5,0.3120218218123512,0.23915407898492505,-0.8594918441943719,0.3266825354700356,-145.13616959213527,-43.83749422862682,-163.30310099370627,2
1767650136.009043,2,right_wrist,0.6539,0.6442,-0.7071,-92.82,90.79,-14.98,0.07815024525986618,-0.4954087655784127,-0.7701209291172826,-0.39417819408159765,141.96104869304403,-30.725726069659203,125.31516822792213,2
1767650136.0602062,1,left_wrist,0.8008,-0.4929,-0.6715,76.79,91.0,48.72,0.33072327433778387,0.21627880691870524,-0.8386433117618198,0.37486396082616896,-135.8426608369366,-45.79649717494521,-170.52196184582817,2
1767650136.0602062,2,right_wrist,0.6725,0.5261,-0.6446,-61.74,80.99,-2.24,0.09504071606874707,-0.4827792700242217,-0.7546821449009556,-0.43398882346405215,137.05662987585183,-34.2283589047106,128.59625934224258,2
1767650136.1216698,1,left_wrist,0.9057,-0.4241,-0.6344,46.55,89.95,50.05,0.36637731987389177,0.17438301035104042,-0.7967558441084133,0.44781508467449216,-119.42722179105644,-47.73220154179114,175.71479824831022,2
1767650136.1216698,2,right_wrist,0.7452,0.7857,-0.6183,-51.45,59.78,-0.91,0.10382354415590266,-0.471797416253427,-0.7408414570528774,-0.46667098174974125,132.4497586086372,-36.45433343548965,131.5275970351326,2
1767650136.2098088,1,left_wrist,0.8252,-0.5539,-0.4451,117.53,78.26,31.71,0.3777968529329924,0.16849926126827125,-0.7639222101167046,0.49527809739214523,-109.58564003581338,-48.083809393645154,169.93172036657762,2
1767650136.2098088,2,right_wrist,0.833,0.8662,-0.4563,-54.6,77.28,-12.18,0.12915630445067963,-0.43432173542539815,-0.7130416483491873,-0.5350279309318232,121.19915264998734,-40.461441393041476,140.77088675139444,2
1767650137.274034,1,left_wrist,0.5661,-0.3772,-0.5968,-41.51,-78.54,-50.26,0.29012536894230995,0.339110620477173,-0.8611415165196951,0.2434472137894269,-162.670472866612,-41.66614559478963,-143.6493758824662,3
1767650137.274034,2,right_wrist,0.547,0.406,-0.629,91.77,-80.22,42.28,0.12258469237663253,-0.5919141631058881,-0.7791965839169042,-0.1657205488821747,172.95137803987066,-22.781619157526155,106.97778999709283,3
1767650137.324136,1,left_wrist,0.4207,-0.1645,-0.612,-56.91,-70.14,-51.24,0.2737988470639287,0.3584216935909379,-0.8690776250390999,0.20315551325589123,-168.4505191629652,-38.42835828864891,-139.21308527466684,3
1767650137.324136,2,right_wrist,0.4543,0.3616,-0.7364,76.02,-77.21,38.99,0.11777134373220395,-0.6051846140332046,-0.7778537586456288,-0.12175805391784257,177.15320056778333,-19.30458795847478,104.71711719018775,3
1767650137.376804,1,left_wrist,0.3426,-0.1757,-0.5895,-42.35,-60.06,-44.59,0.25697171998648355,0.37469441669675807,-0.8738921323342693,0.17286460096771827,-172.27981975033111,-35.357327913590325,-136.0480806776009,3
1767650137.376804,2,right_wrist,0.3587,0.1889,-0.6661,60.41,-78.05,28.56,0.10857837235754039,-0.6146798847128134,-0.7767966851521155,-0.08346428171568149,-179.7730579893283,-15.741297949436905,103.25942986543036,3
1767650137.427576,1,left_wrist,0.2401,-0.0234,-0.4729,-42.35,-51.66,-38.92,0.2440704935046367,0.3892469077461168,-0.8770117035123289,0.14059484667971384,-176.15128564477595,-32.51752681661052,-133.25634848926478,3
1767650137.427576,2,right_wrist,0.2826,0.2518,-0.6759,78.82,-68.81,25.41,0.10573220735814805,-0.6209194615695912,-0.7756145117855104,-0.04125350505141116,-176.04779406074476,-12.429905830149357,102.21129057272816,3
1767650137.5151548,1,left_wrist,0.1625,0.0005,-0.3699,-9.45,-27.02,-23.38,0.23357120433755077,0.399580512130587,-0.8773406319002324,0.12670170656571667,-177.6222140633685,-30.737000121359145,-131.6803099995173,3
1767650137.5151548,2,right_wrist,-0.0386,-0.0669,-0.3309,45.85,-30.1,9.1,0.09334182120335317,-0.6267433391621618,-0.7734858077773145,0.01413493535110766,-171.9523316934961,-7.277737514061517,101.45275456963476,3
1767650137.569399,1,left_wrist,0.001,0.1113,-0.2411,11.41,4.83,9.03,0.22651685641490488,0.39919475822905,-0.8808839762614805,0.11565932356763549,-178.4922358234715,-29.433386462652784,-131.63833714178884,3
1767650137.569399,2,right_wrist,-0.0312,-0.0215,-0.3318,18.76,-4.97,-5.53,0.09217232820169241,-0.6244891346318217,-0.7752243298118088,0.023341403310641388,-171.23979082572671,-6.531852705542069,101.79213756871467,3
1767650137.622456,1,left_wrist,0.0961,0.0429,-0.1742,-5.39,33.95,16.94,0.24144101615874558,0.3915534758806496,-0.8802040189951941,0.11676042217601731,-178.89779267358384,-31.095802945381074,-132.34346484564477,3
1767650137.622456,2,right_wrist,0.0039,-0.1235,-0.3172,-39.9,20.79,-17.08,0.08968556507516143,-0.6206098133548033,-0.7789321710937918,0.008039391766619315,-172.82505384849838,-7.454527320823068,102.44020547663139,3
1767650137.71034,1,left_wrist,0.2064,-0.0356,-0.3372,44.24,59.78,37.66,0.2531527254765895,0.37712125967862714,-0.8777726814881299,0.15234294442250337,-174.70444808193682,-34.00910354333688,-135.12047950755885,3
1767650137.71034,2,right_wrist,0.2606,0.1186,-0.4841,-76.86,63.49,-24.99,0.09568302721239873,-0.60874780058974,-0.7844444778874691,-0.07012656196108233,-179.61839640096315,-13.620792821368006,104.32977851085731,3
1767650137.7605078,1,left_wrist,0.325,0.0493,-0.3831,72.73,65.03,54.04,0.26588441324758816,0.36059975160722973,-0.8726503603556964,0.19430554933882652,-169.34258161288955,-37.16995353672064,-138.68955614003596,3
1767650137.7605078,2,right_wrist,0.365,0.1454,-0.711,-72.24,68.04,-36.47,0.0995915839852249,-0.5958860523990767,-0.7879708234555571,-0.11875735909125894,175.88640080852196,-17.366465289747747,106.43327468795277,3
1767650137.810851,1,left_wrist,0.5144,-0.2786,-0.5397,78.19,90.58,42.14,0.28401830220722935,0.3439061037850886,-0.8602606136097033,0.24700986308756895,-162.23286109663164,-41.189831597380305,-143.14266110955086,3
1767650137.810851,2,right_wrist,0.4548,0.3631,-0.632,-89.25,81.97,-26.6,0.10305805267757634,-0.5847330248634875,-0.7852138012011611,-0.1757999255276447,170.37155970182937,-21.55765272785044,108.48856668721221,3
1767650137.865876,1,left_wrist,0.6988,-0.3787,-0.6632,63.35,104.44,53.9,0.30715783363889576,0.31801675477615393,-0.8464502989012944,0.2967175431379367,-154.20946053883011,-45.13005249564122,-149.68604851815428,3
1767650137.865876,2,right_wrist,0.4231,0.387,-0.6476,-116.34,83.51,-28.91,0.09892392899914605,-0.5714739635693366,-0.7778823532808326,-0.24193100191583244,163.03854230559702,-25.494020222560103,111.25787392858146,3
1767650137.91968,1,left_wrist,0.8413,-0.5012,-0.7183,75.11,89.11,44.59,0.32102963992210204,0.2868879171528561,-0.8073091668128696,0.4035928672103758,-135.04018383548276,-48.58277090932701,-162.0311743746155,3
1767650137.91968,2,right_wrist,0.6539,0.5314,-0.7486,-83.65,91.07,-17.92,0.1072019747203407,-0.5575564376653926,-0.7676458894503039,-0.2972513142847118,157.17502502075203,-29.739347480353004,114.15259472737532,3
1767650137.971414,1,left_wrist,0.7403,-0.3548,-0.711,121.31,83.58,40.6,0.32635475495725175,0.2757349302449807,-0.7795377945139608,0.45802145046263665,-124.52408033131297,-49.58748812328892,-168.3476111572633,3
1767650137.971414,2,right_wrist,0.7686,0.5978,-0.7408,-96.32,99.4,-20.09,0.11481756289904671,-0.540368395830898,-0.752928517414076,-0.35765566079919225,149.99584251713017,-34.01641983091028,118.03942807268706,3
1767650138.064288,1,left_wrist,0.8642,-0.5388,-0.6403,47.04,83.09,47.32,0.33795788879460364,0.25080791435462024,-0.7652037240466214,0.4871787312719656,-117.26523900760513,-49.60455523615134,-175.1717590392218,3
1767650138.064288,2,right_wrist,0.7403,0.7652,-0.7052,-77.28,83.72,-28.42,0.12938099428945982,-0.500488989632978,-0.7292696764499037,-0.44826004571396316,137.12205877318368,-39.59864045614019,127.17030907330245,3
1767650138.1266282,1,left_wrist,0.8779,-0.57,-0.3948,76.23,78.33,44.17,0.35464966671725545,0.2081068681480529,-0.7319772573678834,0.543253568808471,-103.72579216787403,-48.18492283185422,173.0505063728035,3
1767650138.1266282,2,right_wrist,0.8389,0.5597,-0.5134,-83.51,76.16,-17.29,0.1345248461576065,-0.4841047413410444,-0.7095407116860432,-0.49406238840601513,129.79898021505664,-42.00979181927656,131.78318330940982,3
1767650139.211861,1,left_wrist,0.6364,-0.5344,-0.4372,-104.72,-109.83,-61.18,0.24728471149270304,0.39947966598045964,-0.8351176103524558,0.28608538027888586,-158.56928412934195,-39.910799371896935,-136.7325363521123,4
1767650139.211861,2,right_wrist,0.5192,0.6769,-0.5124,122.92,-116.27,37.94,0.06762899389226289,-0.589275937657376,-0.7918626292550043,-0.1453745674885817,170.9830323715858,-16.16695493874982,107.9726311952815,4
1767650139.2630332,1,left_wrist,0.4626,-0.3494,-0.5002,-79.17,-91.0,-54.32,0.2323304478835087,0.41977011020781335,-0.8442564474659596,0.2388444440939035,-165.0144578018786,-36.356844964696165,-132.07215193570704,4
1767650139.2630332,2,right_wrist,0.3245,0.3577,-0.5002,77.98,-93.31,37.87,0.05736067792211442,-0.6046190701423911,-0.7885039763890552,-0.09698975135092354,175.09779831785582,-11.990057584928646,105.55367051288549,4
1767650139.323166,1,left_wrist,0.1908,-0.0971,-0.4582,-19.95,-72.66,-40.95,0.1945703091895246,0.45483052008098823,-0.8537714401512115,0.16231426544477404,-173.44419272574657,-28.67809453907195,-125.58630003908627,4
1767650139.323166,2,right_wrist,0.2533,0.2645,-0.527,90.37,-69.09,32.13,0.05832228416142798,-0.6152069408143211,-0.7845529360749579,-0.05094724369620885,179.52557955658295,-8.87040383123484,103.83328332902094,4
1767650139.376168,1,left_wrist,0.0913,0.0239,-0.3328,-24.08,-52.43,-26.46,0.17959439653573506,0.46710037439420027,-0.8549734895992194,0.13632103673423498,-175.84087741790447,-25.750181488584463,-123.65257239781629,4
1767650139.376168,2,right_wrist,0.1332,0.1854,-0.5617,54.74,-68.88,25.55,0.04803522060551591,-0.6233530203830081,-0.780272350015431,-0.017282631806439516,-178.10489211781785,-5.538090218100338,102.66620472332531,4
1767650139.466249,1,left_wrist,-0.0712,0.0844,-0.283,-27.86,-30.38,-14.63,0.1722735048575353,0.4728581323197062,-0.8564927819365417,0.1146609816538468,-177.90231038419097,-23.799592072774484,-122.63709666486093,4
1767650139.466249,2,right_wrist,-0.082,0.0278,-0.2284,32.41,-17.29,6.86,0.03716919141060724,-0.6316345962919035,-0.7737154461263518,0.03194677452492115,-174.4678478892025,-0.9832082480278892,101.49846758760776,4
1767650139.523946,1,left_wrist,-0.1254,0.1171,-0.0932,19.04,29.4,12.46,0.17625749096848198,0.4708385399787701,-0.8562408380691653,0.1187265487191857,-177.64950050211377,-24.43368695456904,-122.89705062732337,4
1767650139.523946,2,right_wrist,-0.1376,0.0322,-0.2128,-1.54,10.08,-9.03,0.03622036459143298,-0.6289466637361038,-0.7760292433685553,0.02987963856735148,-174.7240707580827,-1.0675237478890085,101.90351174987812,4
1767650139.5783691,1,left_wrist,0.06,-0.0747,-0.1635,31.85,61.74,30.1,0.18812268035628063,0.4577111638294574,-0.8560769515577505,0.14913953417199982,-174.63170362325482,-27.298135744758998,-125.04111566756481,4
1767650139.5783691,2,right_wrist,0.08,-0.1157,-0.2425,-47.11,18.48,-20.02,0.0341149581735128,-0.6227953454457068,-0.7815841359462671,0.009400306224227231,-176.71876095454445,-2.3852525343501716,102.83338757283809,4
1767650139.660664,1,left_wrist,0.2128,0.2484,-0.5348,62.02,84.63,41.44,0.20591813966057076,0.44246370497266313,-0.8523185281167821,0.1880869909627875,-170.6924165503685,-31.161961750750798,-127.7303532877553,4
1767650139.660664,2,right_wrist,0.2142,0.3226,-0.5261,-95.34,79.66,-26.81,0.03395162293322058,-0.6018002292274304,-0.7923423849897141,-0.09421951151871036,173.6851168431634,-9.625366947182574,106.09739281026489,4
1767650139.719809,1,left_wrist,0.4158,-0.2669,-0.5578,67.62,110.88,44.94,0.24501250564628108,0.4078022502126003,-0.8266867590303831,0.3004250309849566,-157.00054182078028,-40.551041760537174,-136.0823995130935,4
1767650139.719809,2,right_wrist,0.3348,0.141,-0.5763,-94.64,81.9,-24.57,0.03883850138018779,-0.5901082449985872,-0.7918882919624318,-0.152239163975801,168.3919758396851,-13.956589800163405,108.03931377512019,4
1767650139.775876,1,left_wrist,0.6163,-0.2786,-0.672,121.03,107.94,42.77,0.25488763494860933,0.39143756478978975,-0.8061562032033407,0.3632094470942598,-147.5097049590837,-44.051617554740744,-141.64707922853614,4
1767650139.775876,2,right_wrist,0.5646,0.6076,-0.6622,-76.44,106.82,-9.31,0.05558005949247298,-0.57953541996002,-0.7855168619867613,-0.2097923104716847,163.68273812424974,-19.298051582927126,109.95454734134113,4
1767650139.860767,1,left_wrist,0.8486,-0.4904,-0.7652,85.75,128.1,34.65,0.2751687959835705,0.3669348472782344,-0.784351973192183,0.4176516894726755,-137.79150801585268,-47.57493575453751,-149.1677994435136,4
1767650139.860767,2,right_wrist,0.7476,0.6207,-0.6168,-124.74,110.88,-9.38,0.06745756668433911,-0.5501889077000767,-0.7503784421960674,-0.36010253543709986,147.4917565259362,-29.83383045092265,116.3833934890901,4
1767650139.917494,1,left_wrist,0.9989,-0.3392,-0.8657,80.22,88.13,46.41,0.29284796099087745,0.32485881163624786,-0.7379968256650543,0.5138749940929934,-117.86018218470551,-50.0063226767517,-163.87363962931414,4
1767650139.917494,2,right_wrist,0.7437,0.9174,-0.8442,-78.33,122.92,-11.34,0.08577587771970861,-0.5268941768834369,-0.7348907850416517,-0.4182828698722959,140.46558585810345,-34.53109541452568,121.46786556016023,4
1767650139.9716501,1,left_wrist,0.8725,-0.7008,-0.5353,74.97,91.21,29.26,0.302492195581757,0.30464557017390026,-0.7151130317834112,0.5516365651034068,-109.01611868741804,-50.24083105946753,-170.82481236465176,4
1767650139.9716501,2,right_wrist,1.0043,0.711,-0.7476,-102.55,107.17,-12.81,0.09683442977611727,-0.5059325510440575,-0.711685741571459,-0.4776596615246767,132.05325514197105,-38.40078431475527,126.78766683651523,4
1767650140.058718,1,left_wrist,0.8969,-0.6129,-0.5153,67.13,91.63,40.18,0.31135478520693416,0.2801626048500085,-0.6933936712323314,0.5863210121318793,-100.5178945076504,-49.491827208287795,-177.9338862194983,4
1767650140.058718,2,right_wrist,0.8594,0.7749,-0.4714,-76.09,64.4,-11.2,0.11841391453512454,-0.4663806357169764,-0.6834625755872524,-0.5489500480411096,119.98690405249008,-42.36896561994121,136.61425208985065,4
1767650141.108672,1,left_wrist,0.5192,-0.2079,-0.4524,-57.4,-90.86,-72.66,0.27373209136490045,0.466672083945354,-0.8145320089251926,0.2093454433690599,-173.59822863162108,-39.89020333765766,-122.70559271846527,5
1767650141.108672,2,right_wrist,0.449,0.365,-0.5861,123.27,-98.84,43.12,0.09550966206024006,-0.6126841767980657,-0.7811607331869528,-0.0726905281397622,-179.79537212292948,-13.785605350239317,103.75928384501299,5
1767650141.1623769,1,left_wrist,0.3597,-0.182,-0.3982,-94.64,-77.56,-69.37,0.26956141326387306,0.48479262875822277,-0.8174286505320798,0.15531629943498682,179.47121297046405,-36.248379452986285,-118.48507875073147,5
1767650141.1623769,2,right_wrist,0.2635,0.2577,-0.5319,69.44,-84.14,33.46,0.08547076066765624,-0.622724360333964,-0.7772099347294936,-0.02922049752012853,-176.44986723802415,-9.744219990197642,102.29174232095363,5
1767650141.2186801,1,left_wrist,0.1166,0.0673,-0.3675,-42.35,-41.37,-31.22,0.2620337829474794,0.5044566367348875,-0.8197893488443313,0.06933413134774481,169.9822358657689,-29.97202735296866,-114.09995727454469,5
1767650141.2186801,2,right_wrist,0.1098,0.0566,-0.4036,68.74,-62.23,26.39,0.08227094366688384,-0.6290987283077144,-0.7729250565989995,0.007289633132771984,-173.36237698081828,-6.777080365245491,101.32092033159375,5
1767650141.2754009,1,left_wrist,0.0024,0.1635,-0.2991,-13.37,-18.83,-11.34,0.2568534957359355,0.5087991361027092,-0.8198486415408625,0.05475331764349084,168.74225992982798,-28.48175310167132,-113.48659203800159,5
1767650141.2754009,2,right_wrist,0.0986,0.0708,-0.4177,58.59,-40.25,11.69,0.08332004897084214,-0.6303913406013617,-0.7710484125985391,0.03389502269636992,-170.9150021507998,-4.919345410866213,101.0716524125834,5
1767650141.3625011,1,left_wrist,-0.0176,0.1635,-0.2342,27.16,2.38,9.52,0.25019585250402915,0.5095633767187451,-0.820930457260386,0.061809261757649836,169.96189019537118,-28.279832654286377,-113.80814839514514,5
1767650141.3625011,2,right_wrist,-0.082,-0.0669,-0.2752,0.84,5.18,-13.86,0.0778614553952107,-0.6254106649801139,-0.7749688869729688,0.047141469183185784,-170.16667260901747,-3.53824922721662,101.88750820586486,5
1767650141.422859,1,left_wrist,0.1337,0.1025,-0.1796,39.9,40.25,40.67,0.26275504933809574,0.4921959987209215,-0.824366978822856,0.09550898971785991,173.16097723469272,-31.818585712088638,-116.36910932270048,5
1767650141.422859,2,right_wrist,0.0937,0.0869,-0.1479,-50.89,46.83,-30.66,0.08028136723502234,-0.6171748097858857,-0.7826277890065707,0.011995837416287708,-173.18852645979925,-6.364535755905592,103.10271805917246,5
1767650141.505717,1,left_wrist,0.2362,0.0961,-0.3353,56.35,55.3,60.41,0.2713021889332358,0.4747792688444003,-0.8268070502554816,0.13179480188323375,177.2230427569183,-35.0139600293249,-119.39223858029358,5
1767650141.505717,2,right_wrist,0.3665,0.0478,-0.5451,-88.83,91.28,-48.58,0.10232439133246965,-0.5854255139065995,-0.7979699289050628,-0.10025307560809582,177.6000591328857,-16.301091365814614,107.81298099081788,5
1767650141.560564,1,left_wrist,0.3426,0.0571,-0.4426,100.1,71.89,60.41,0.27655401942173274,0.4603545850930453,-0.8223460326172033,0.18798545944896772,-175.98060570904948,-38.897281935348104,-122.93903439835103,5
1767650141.560564,2,right_wrist,0.5934,0.3206,-0.6632,-108.71,98.7,-42.21,0.10792888676871953,-0.5692849712838307,-0.7973680606596711,-0.168731006963948,170.96835445511192,-21.36021232873015,110.6564458760337,5
1767650141.613926,1,left_wrist,0.5153,0.0542,-0.5949,90.16,93.8,62.09,0.2897731512463906,0.44166916470759693,-0.8135529061717462,0.24308751227230055,-168.9383621303475,-43.331636459667344,-127.41172270324637,5
1767650141.613926,2,right_wrist,0.5812,0.406,-0.6168,-115.99,124.81,-42.07,0.11977787214582739,-0.5484248607129751,-0.790405334397486,-0.24524037361774303,163.2393779038602,-27.27991187784088,114.5848043001914,5
1767650141.667655,1,left_wrist,0.8325,-0.1708,-0.7442,111.3,102.9,71.75,0.309074576389231,0.39488963333181276,-0.7821595337937254,0.36981285457980784,-148.01267241879157,-50.8559931215558,-141.94420560940458,5
1767650141.667655,2,right_wrist,0.6803,0.5988,-0.7774,-95.41,109.62,-29.19,0.1311672433285721,-0.5293441048625273,-0.7791050711779481,-0.3091686610730095,156.11800352481245,-32.12034479714767,118.58150358998475,5
1767650141.725923,1,left_wrist,0.974,-0.3392,-0.8481,95.62,97.44,55.02,0.31540059241527735,0.37422556356620507,-0.7630139963137448,0.4222408498795171,-137.4294846234118,-52.87653022437451,-149.67484419614894,5
1767650141.725923,2,right_wrist,0.9872,0.5719,-0.8194,-124.39,91.0,-27.51,0.13118735861322767,-0.5129142101786742,-0.7603124879132508,-0.37634267717073244,147.31999949951603,-35.84183951749013,122.82433467489562,5
1767650141.809603,1,left_wrist,0.8511,-0.406,-0.7208,124.18,79.66,50.33,0.3100401996935905,0.3603186543211138,-0.7377077755071865,0.4794087816033607,-125.72862411098372,-53.40965996149225,-156.8498612776421,5
1767650141.809603,2,right_wrist,0.8316,0.8047,-0.4763,-150.5,38.99,-23.94,0.10669147742862478,-0.4820197015613539,-0.7200958728644072,-0.4875816545302418,129.9350038913253,-38.58713582913494,130.97401730643898,5
1767650141.8707461,1,left_wrist,0.8477,-0.65,-0.4582,46.13,73.5,39.62,0.3205693066173883,0.31512622271006907,-0.7133833157401815,0.5376011795363504,-110.96114751718179,-52.76893995802261,-170.01228857291164,5
1767650141.8707461,2,right_wrist,0.6915,0.9306,-0.3577,-80.22,76.44,-34.65,0.10501818986129655,-0.45611202586135663,-0.7050323827976215,-0.5327873298696337,122.04009022636966,-39.35355153050804,136.60471012249272,5
1767650142.871409,1,left_wrist,0.4924,-0.0195,-0.5646,-46.27,-79.24,-62.02,0.27645254061483554,0.524167934822145,-0.7759475341579624,0.2161651986931945,-176.5338751947405,-40.96812509860744,-113.21556037567579,6
1767650142.871409,2,right_wrist,0.5168,0.5197,-0.5168,87.15,-112.0,34.09,0.06382674287978066,-0.6056923831863298,-0.7776550019319517,-0.15593454336239543,170.06526070015624,-16.74825487339302,105.6381149030876,6
1767650142.92167,1,left_wrist,0.386,-0.1493,-0.5788,-27.16,-88.27,-49.56,0.2528221496293155,0.5447455639469311,-0.7785805638122507,0.18205915761298552,-179.42782583262948,-36.30166940552467,-110.22930693198613,6
1767650142.92167,2,right_wrist,0.3065,0.4104,-0.3919,72.31,-94.36,31.15,0.05224878396748609,-0.6193380268693346,-0.7757778586367043,-0.10889989484185932,173.87117473119454,-12.47177182684979,103.4664672541608,6
1767650143.0098188,1,left_wrist,0.223,-0.0244,-0.551,-22.68,-67.69,-38.08,0.23412644147756428,0.5607630291662873,-0.7795155749849662,0.151937825695776,178.25607026879217,-32.371900379784705,-108.03327251914413,6
1767650143.0098188,2,right_wrist,0.1479,0.2469,-0.59,63.21,-57.89,14.0,0.049868718246830354,-0.6324803703172451,-0.77251651123947,-0.026456227360994206,-178.71972875212353,-6.344998452826411,101.31278765140611,6
1767650143.069827,1,left_wrist,0.0722,-0.0205,-0.2694,-19.25,-20.37,-11.62,0.2231254221125409,0.5737632904500667,-0.7813646037941688,0.10237230326897298,173.76644574893646,-27.785292186355544,-105.8764031293709,6
1767650143.069827,2,right_wrist,0.0795,0.0395,-0.5851,50.82,-39.34,11.27,0.04872880297257027,-0.6352176065708659,-0.7707895528972059,-0.0027497650384247256,-176.68376957168724,-4.5088283076734275,100.88466303824548,6
1767650143.163689,1,left_wrist,0.002,0.103,-0.2786,-23.24,2.94,6.23,0.22773564618761594,0.5703833448254161,-0.7838669622157335,0.09138873534499486,172.45373981588875,-27.469871573096952,-106.06977200928084,6
1767650143.163689,2,right_wrist,-0.0132,-0.1161,-0.4997,15.05,-3.92,-4.55,0.04528165238882336,-0.6338671202201803,-0.7718955309112165,0.01842105371590952,-175.070118992444,-2.6682209222031057,101.10063408771448,6
1767650143.21943,1,left_wrist,0.102,0.2098,-0.2996,17.29,27.09,16.8,0.23772005156723708,0.5600562347298346,-0.7871068166528951,0.1014349555215386,172.98616743457058,-29.1987558933799,-107.30440936007022,6
1767650143.21943,2,right_wrist,0.0342,0.0669,-0.4792,-1.82,21.07,-11.83,0.049273791620165444,-0.6300551959931077,-0.7749482817697,0.007596317769080833,-175.75455194205773,-3.830042633005012,101.63378301725699,6
1767650143.308533,1,left_wrist,0.0791,0.0986,-0.3084,34.23,47.18,52.99,0.24163085624057612,0.5443670931637832,-0.7934189045495571,0.12556049974510183,175.71417397744347,-31.34103825961967,-109.88890022338515,6
1767650143.308533,2,right_wrist,0.1479,0.1313,-0.182,-71.82,53.2,-29.96,0.05730051746309807,-0.6151473276565248,-0.7842348578429661,-0.05732454726833964,178.8729203790689,-9.230126622467719,103.87029684889967,6
1767650143.359835,1,left_wrist,0.2167,-0.0932,-0.0551,124.81,84.63,57.96,0.23861721293569355,0.5305368531479122,-0.7890521333191063,0.19745684097361588,-175.86554764572392,-35.87926038906656,-113.50747839815027,6
1767650143.359835,2,right_wrist,0.2533,0.1723,-0.0517,-88.55,99.54,-36.54,0.06734713082340295,-0.6009183028545529,-0.787705507374638,-0.11782016345228495,173.79754986700922,-14.341451494121559,106.10310709314348,6
1767650143.414233,1,left_wrist,0.3826,-0.1298,-0.2718,61.67,128.8,69.86,0.2632974840548337,0.4993165158993302,-0.783869522870422,0.2586619859110449,-168.9121430526708,-42.15125892315719,-119.29101595284403,6
1767650143.414233,2,right_wrist,0.5588,0.3484,-0.4294,-100.59,131.25,-30.8,0.08540712119571733,-0.5843920538614781,-0.784103431491604,-0.1907180110941676,167.68383439923346,-20.906514405496072,108.88646041937106,6
1767650143.4729521,1,left_wrist,0.9633,-0.0869,-0.8359,113.47,108.78,68.6,0.2763518286173458,0.44501031457667084,-0.7526086923787366,0.3989682229152965,-146.16246459261288,-50.449128882984645,-135.11865536354316,6
1767650143.4729521,2,right_wrist,0.7242,0.6193,-0.773,-101.22,126.84,-20.44,0.10137156310821988,-0.5682988454191963,-0.7734997396684629,-0.26164552589529366,161.03404246924816,-27.013952135325074,111.98508500077146,6
1767650143.523423,1,left_wrist,1.0726,-0.3958,-0.854,64.89,106.12,56.77,0.28832760389925777,0.4170551721613137,-0.7392635069955148,0.4431948143061944,-136.74796367173863,-52.7473049752532,-143.38312847118155,6
1767650143.523423,2,right_wrist,0.8779,0.794,-0.7935,-100.24,124.95,-11.76,0.11717763593950377,-0.5520811737808311,-0.7567460767127633,-0.3298653582482549,153.89781350709276,-32.79073917865394,115.5786051034024,6
1767650143.608696,1,left_wrist,1.0682,-0.3543,-0.8594,103.39,91.35,55.58,0.28767195072104795,0.39581145146187735,-0.717704790886807,0.49545734104775696,-125.39677811818203,-53.62401503302034,-151.48909769070863,6
1767650143.608696,2,right_wrist,0.9004,0.7642,-0.752,-40.18,97.16,-16.73,0.1440119216332396,-0.5135134867133054,-0.7234115426806237,-0.4384520558823802,139.72111055758606,-41.19789836301706,124.95795759770681,6
1767650143.668938,1,left_wrist,0.8989,-0.4519,-0.7496,78.96,77.21,46.97,0.28668203088445043,0.37545961989923404,-0.7000511766762874,0.5355108187770209,-116.12046748514013,-53.466560053961395,-158.45198810617987,6
1767650143.668938,2,right_wrist,1.0102,0.8398,-0.5236,-71.33,73.22,-20.16,0.1473990610665483,-0.49573434592535726,-0.707683552522665,-0.48135741871872983,132.6600432936337,-43.3044277737301,129.720263442756,6
1767650143.72688,1,left_wrist,0.8711,-0.4865,-0.4846,56.07,68.32,47.67,0.28116523465909077,0.33817647446582333,-0.6660400236042442,0.6024727959785592,-100.72130144304214,-51.4457929856243,-169.6766412128753,6
1767650143.72688,2,right_wrist,0.8276,0.7881,-0.4563,-48.37,81.97,-29.75,0.1548631665004819,-0.47003510556173805,-0.6972050290631684,-0.5186420216778007,125.63423529438319,-44.7087037676471,135.87703721530158,6
1767650144.7556312,1,left_wrist,0.4958,-0.2001,-0.5876,-75.39,-70.49,-56.77,0.2284140799567065,0.5698918478876402,-0.727205060290721,0.3069577985266232,-165.2570009456336,-43.00586681503033,-109.66573818432758,7
1767650144.7556312,2,right_wrist,0.4948,0.4104,-0.6071,103.11,-70.14,43.54,0.100492926726419,-0.61848254032417,-0.771556021525667,-0.10991735367813496,177.2855366501928,-16.919976458054947,102.97219708318435,7
1767650144.810719,1,left_wrist,0.4148,-0.1937,-0.6212,-52.99,-69.79,-53.83,0.22245611021836156,0.5905157846953194,-0.7288263747367991,0.2657376573619223,-170.68497681587095,-39.65090612017106,-105.3339961516037,7
1767650144.810719,2,right_wrist,0.3562,0.3006,-0.5934,97.23,-80.5,38.29,0.10079711678669367,-0.6294700233283401,-0.7682937262072858,-0.05772504871399379,-177.75187803156317,-13.15322349798852,101.0846328584536,7
1767650144.8696342,1,left_wrist,0.2167,0.0127,-0.4519,-41.37,-50.05,-36.05,0.21094636735565128,0.6208621031951418,-0.7292542860061854,0.19549952751136881,-178.40761003454264,-33.39607722633212,-99.65783994206576,7
1767650144.8696342,2,right_wrist,0.2372,0.2586,-0.5348,69.09,-73.01,29.19,0.09460095051929733,-0.6370650892316784,-0.7647877540411817,-0.017274938834162895,-174.52299364293984,-9.596575688113417,99.95157900811307,7
1767650144.9206998,1,left_wrist,0.1074,0.0054,-0.4177,-57.75,-32.97,-31.85,0.21549581846791407,0.6290773256023215,-0.7291383457149603,0.16180402789771758,177.64370402123248,-31.18660480953163,-97.76916590446285,7
1767650144.9206998,2,right_wrist,0.1274,0.122,-0.6046,65.38,-52.85,18.13,0.09267456220453402,-0.6402332855335464,-0.7624046692911993,0.015870912327127683,-171.7250199847535,-6.949176223306199,99.4526228066757,7
1767650145.012744,1,left_wrist,0.082,-0.0063,-0.3899,-21.98,-12.81,-10.99,0.21419388078768922,0.6321137301147586,-0.7298747704311312,0.1477702037679415,176.35457637836532,-29.965905184091856,-97.23515855066088,7
1767650145.012744,2,right_wrist,0.0678,-0.1132,-0.4485,16.24,-31.85,3.22,0.08270822599652117,-0.6428465007469505,-0.759805675120345,0.051020210552546984,-169.38544078182974,-3.444865708656518,99.21297621097874,7
1767650145.065693,1,left_wrist,-0.0039,0.2752,-0.3631,-11.41,3.08,-1.96,0.2187781014855997,0.632593154951063,-0.7295392469817399,0.14047964170203817,175.25232741863246,-29.7982424678565,-96.87816318169102,7
1767650145.065693,2,right_wrist,0.0454,-0.0244,-0.4182,-5.18,-9.17,-7.42,0.07671178073568574,-0.6403602949988055,-0.7627927126205454,0.04691772435224115,-170.20640502385234,-3.2642949815147557,99.69371134108145,7
1767650145.11845,1,left_wrist,0.1161,0.0551,-0.3655,30.66,38.22,23.73,0.22406498437845446,0.624892448416025,-0.7304653902089033,0.16038897840893862,176.91467126737712,-31.856603047985683,-98.02717578289435,7
1767650145.11845,2,right_wrist,0.0054,-0.0795,-0.347,-64.47,15.19,-17.57,0.0643173602992449,-0.6368923839477265,-0.7678416422099802,0.02550648783740578,-173.02921434924798,-3.8004260152338043,100.41988278666079,7
1767650145.1746309,1,left_wrist,0.2445,0.1186,-0.4089,70.42,30.87,41.51,0.2143711655174123,0.6170780111122368,-0.7325623814664053,0.19134285682183524,-178.91760031581913,-33.382617846807335,-100.10596933387524,7
1767650145.1746309,2,right_wrist,0.1366,0.0698,-0.3953,-79.24,22.82,-30.8,0.050502569204473116,-0.6282923732914032,-0.7762275682835583,-0.012997938459514212,-177.5081323824406,-5.436124286034281,101.90703481814508,7
1767650145.2592692,1,left_wrist,0.2806,-0.1674,-0.3933,76.86,58.66,51.1,0.2053555031369933,0.6010576501886387,-0.7341486634534055,0.23996782790749865,-172.4931940792549,-36.156435804482086,-103.83825938261782,7
1767650145.2592692,2,right_wrist,0.2176,0.3157,-0.5519,-86.66,99.47,-29.47,0.058689720971944324,-0.6071080093238042,-0.7818545712159738,-0.12914647163515094,172.2459667510336,-14.39381732799509,105.32212093891499,7
1767650145.311713,1,left_wrist,0.3353,-0.1913,-0.4919,107.94,80.08,54.32,0.192932989219199,0.5824508321795714,-0.7293031886974657,0.30272883694814734,-163.71699657276926,-39.35049495938657,-108.63208556152311,7
1767650145.311713,2,right_wrist,0.4943,0.4792,-0.5978,-121.94,90.93,-26.18,0.05590220919116818,-0.5941572340309742,-0.7773378121123181,-0.1989925880947413,165.1236641698197,-18.867188609353683,107.70042399404605,7
1767650145.364768,1,left_wrist,0.5241,-0.1898,-0.5539,90.3,95.69,56.35,0.19382658166687222,0.5570249326889526,-0.7211214080253127,0.3635084531201354,-154.97871635757218,-43.19720449933035,-114.67258096323197,7
1767650145.364768,2,right_wrist,0.6983,0.406,-0.7091,-100.45,116.83,-23.59,0.06905714793654143,-0.5765810032955787,-0.7691569644150759,-0.2668014637315922,158.69229193190762,-24.449867196074564,110.95551422903979,7
1767650145.423912,1,left_wrist,0.7676,-0.3016,-0.7627,96.53,102.55,55.3,0.20274178826192182,0.49613810038053585,-0.6981393757346595,0.4747042918406906,-135.33680332642518,-48.9486955855225,-130.38198977284202,7
1767650145.423912,2,right_wrist,0.7003,0.6686,-0.7623,-93.73,105.0,-22.12,0.07818496475771873,-0.5576939694155303,-0.7582610376526271,-0.32848857901203365,151.97149956620277,-29.009945051235874,114.72087765572996,7
1767650145.5056808,1,left_wrist,0.9365,-0.2616,-0.753,103.11,93.87,52.15,0.1996253235113648,0.4715215447984123,-0.6787794810464605,0.526379691016095,-124.82459118149488,-50.121149525300154,-137.8872514104046,7
1767650145.5056808,2,right_wrist,0.8286,0.7266,-0.7296,-95.06,98.35,-17.64,0.09537647221828793,-0.5178092151677196,-0.722659067827522,-0.44781783899398375,136.6364159177216,-36.98584870866975,123.90310690995213,7
1767650145.568344,1,left_wrist,0.9467,-0.4387,-0.6066,79.87,89.74,45.22,0.2070440753533479,0.41619682979597644,-0.6454682318279212,0.6060393645876422,-106.41387793494998,-50.5107642678779,-153.24017412544023,7
1767650145.568344,2,right_wrist,0.8774,0.712,-0.7017,-45.29,90.37,-16.59,0.11309061095865117,-0.49624180267841117,-0.7110779159347218,-0.48510079824446034,131.0921521007805,-39.96257206040163,128.95746232770972,7
1767650145.657608,1,left_wrist,0.9267,-0.4548,-0.5139,32.76,88.55,35.07,0.21740893969379632,0.38813530200648405,-0.6357694882860503,0.6307784857159038,-99.82769869549337,-50.00483978568985,-160.05394867045402,7
1767650145.657608,2,right_wrist,0.7837,0.7364,-0.4265,-40.81,73.57,-4.97,0.1294622917937093,-0.4603088400461898,-0.6782930602852161,-0.557919179763313,118.34010845984156,-43.57132344480632,138.5094862319878,7
1767650146.661818,1,left_wrist,0.693,-0.4246,-0.4836,-70.35,-108.29,-56.98,0.2018840740664429,0.6305469027055596,-0.6682581324345402,0.33924105376835073,-163.8897012974733,-44.237657516617574,-99.91037978477485,8
1767650146.661818,2,right_wrist,0.5617,0.4246,-0.6168,90.86,-99.61,51.17,0.11299697214372674,-0.6143736948136742,-0.7704520646949986,-0.12720166435451152,176.52791129824746,-19.294039927070404,103.45126652843796,8
1767650146.721663,1,left_wrist,0.3587,-0.164,-0.5534,-49.7,-77.07,-46.83,0.1963768798263711,0.6672334967352991,-0.6760028986083457,0.24342486104989192,-175.23471130013854,-36.18150296038773,-92.30559459121172,8
1767650146.721663,2,right_wrist,0.4211,0.3274,-0.5607,83.3,-90.58,40.53,0.10676060008219757,-0.6274023667706383,-0.7675223708758339,-0.07666716797840827,-179.0341612557988,-15.075083435949306,101.34442260811915,8
1767650146.773939,1,left_wrist,0.2577,-0.0527,-0.5031,-46.34,-61.88,-38.57,0.19204616532921745,0.6813401884111279,-0.6756909255249589,0.20575614499075437,-178.88647716058895,-32.67734652078816,-89.84940525154506,8
1767650146.773939,2,right_wrist,0.3357,0.245,-0.5778,88.13,-85.26,32.48,0.1029096450314578,-0.6356546849793286,-0.7646276476565393,-0.02640618985308177,-174.71306261326143,-11.0079709120841,100.01495376653925,8
1767650146.855192,1,left_wrist,0.124,0.0849,-0.4163,-34.02,-47.11,-28.7,0.19014670840415365,0.6921744737125954,-0.6740073304951212,0.17450743727015638,178.15040364238058,-29.861144776357463,-87.98304370447114,8
1767650146.855192,2,right_wrist,0.0317,-0.0312,-0.3606,39.48,-58.66,4.83,0.0743825326719105,-0.6405650275965511,-0.7637135652140864,0.029753563845886018,-171.88601350204218,-4.329705352110672,99.71625464400806,8
1767650146.9076931,1,left_wrist,0.0683,0.0654,-0.3694,-50.82,-24.92,-15.19,0.1975345779606441,0.6952448140449945,-0.6754492611889189,0.14622939038645819,174.9864708036506,-28.045956697165916,-87.09228594354074,8
1767650146.9076931,2,right_wrist,-0.0098,-0.0732,-0.4665,21.42,-16.03,-2.1,0.07175238186342134,-0.6392592686302832,-0.7643107567876927,0.04503609914086369,-170.7467641058289,-2.986619837467718,99.94093385014817,8
1767650146.959768,1,left_wrist,-0.0176,0.2425,-0.2933,7.77,-10.29,1.82,0.19274699648593432,0.6970286921433103,-0.6760231276481231,0.14139423099789777,174.9974945484163,-27.239728133169553,-87.0342688085905,8
1767650146.959768,2,right_wrist,-0.0059,-0.0439,-0.5061,6.09,0.84,1.33,0.0688006537065549,-0.6399002298608945,-0.7639853191263488,0.04604995149764984,-170.87532181798716,-2.6474701312879994,99.89084388953059,8
1767650147.017421,1,left_wrist,0.0698,0.2547,-0.3294,13.58,36.82,20.02,0.19963602718938853,0.6867210786475008,-0.6804423554883812,0.15986812579959261,176.2724690168126,-29.42285522096354,-88.49472423212306,8
1767650147.017421,2,right_wrist,0.0888,-0.0693,-0.4865,-30.87,24.29,-9.94,0.07177716671547074,-0.6375028165980313,-0.7666892216407084,0.025016686188246994,-172.51452052624248,-4.483105942950304,100.2194727192301,8
1767650147.067507,1,left_wrist,0.1249,0.0405,-0.4324,62.44,45.85,37.52,0.1890035954791662,0.678494255566457,-0.6835508829645872,0.1915238273886572,-179.6411086870246,-31.217134278318344,-90.5256845441616,8
1767650147.067507,2,right_wrist,0.0259,0.0005,-0.5051,-47.6,39.34,-17.22,0.06795603765146692,-0.633484755114984,-0.7707456391836666,-0.005495603968836773,-175.51973012894868,-6.414268094028,100.91446527185053,8
1767650147.122043,1,left_wrist,0.1557,0.0717,-0.3958,66.92,62.09,49.42,0.18348844813914944,0.6648842819045927,-0.6869052154952565,0.22895874301086688,-175.12888944277606,-33.81688509530364,-93.34810592661293,8
1767650147.122043,2,right_wrist,0.183,0.1064,-0.4768,-73.5,57.05,-30.31,0.06687617176431716,-0.6243513197391958,-0.7765673488040755,-0.0515379468109024,-179.79871121157677,-9.684532437543165,102.385175754886,8
1767650147.212212,1,left_wrist,0.3304,0.001,-0.4436,87.78,74.34,54.67,0.1790145502046454,0.647556935173458,-0.6857189651906357,0.2800237620304217,-168.94664939814808,-37.45729952915622,-97.03686339863557,8
1767650147.212212,2,right_wrist,0.407,0.0996,-0.5529,-128.1,76.16,-35.7,0.0640743271287568,-0.5985536991757093,-0.7796354475910398,-0.1726166813074291,168.33514069661152,-17.851436315128126,106.80878173407285,8
1767650147.267565,1,left_wrist,0.7535,-0.2152,-0.6656,116.83,104.37,59.57,0.1708503338087672,0.5960935910669943,-0.6720931122691989,0.40468931610136416,-151.00672681599212,-45.407673754567895,-109.20707192572584,8
1767650147.267565,2,right_wrist,0.6915,0.5305,-0.7593,-88.83,105.28,-26.6,0.07532458162836853,-0.5822638013971875,-0.7748034873975235,-0.23446669038830126,162.58546720081657,-22.939966774234353,109.71020954625457,8
1767650147.3195572,1,left_wrist,0.7676,-0.3099,-0.6388,79.31,116.2,68.32,0.17606903067873278,0.5617382642255582,-0.6641728854021491,0.4607864985405843,-141.0964623407534,-48.72598372398524,-117.72565746366708,8
1767650147.3195572,2,right_wrist,0.6568,0.4807,-0.8067,-119.14,93.31,-31.92,0.07417809364782517,-0.5637294805892453,-0.7649190278294595,-0.30266411085853706,154.78712966885058,-27.047038005625677,113.3789828871665,8
1767650147.405746,1,left_wrist,0.9633,-0.5207,-0.7252,70.07,116.69,51.52,0.18128943854768897,0.5293290990419305,-0.6538803421563762,0.5092988734721315,-131.23002755863595,-50.91910210788107,-126.37610036336761,8
1767650147.405746,2,right_wrist,0.8184,0.5998,-0.7427,-86.73,102.83,-34.79,0.09387252166506836,-0.5167593608515192,-0.7429883527939386,-0.4148686783322168,140.85348820550593,-34.62946148341144,123.01181650949187,8
1767650147.457748,1,left_wrist,0.974,-0.4192,-0.7315,73.29,112.49,60.97,0.18341559726952034,0.49413077715854703,-0.6423541040066963,0.5563943734517001,-120.4431930937106,-51.766824688383146,-135.89533918760796,8
1767650147.457748,2,right_wrist,0.8223,0.6461,-0.6246,-77.14,97.44,-21.7,0.10601181607540255,-0.4939915611539836,-0.7270424100321017,-0.4649119985284942,133.66360779757488,-37.84122205820059,128.30181039883092,8
1767650147.510279,1,left_wrist,1.018,-0.4714,-0.6154,89.25,95.62,50.68,0.17953504419391503,0.46560199954549797,-0.6236448207327295,0.6017051466447373,-109.92417529704784,-51.65066738871477,-144.00088784119,8
1767650147.510279,2,right_wrist,0.8974,0.6407,-0.6041,-36.05,97.23,-21.07,0.12834743390623043,-0.4694750376192756,-0.7169884752050159,-0.49904674298631774,128.2388304174486,-40.73997854292867,133.99075925142373,8
1767650147.572983,1,left_wrist,0.9799,-0.529,-0.5705,47.46,84.07,41.93,0.18799376033574028,0.4043744188493202,-0.6065214844010101,0.6582335181492189,-95.54656208938097,-49.498600487663474,-158.02459570838485,8
1767650147.572983,2,right_wrist,0.8862,0.6686,-0.5163,-51.45,91.28,-18.06,0.14592698937145637,-0.44723393134919404,-0.7014544869622711,-0.5353958602225315,121.75558994550791,-43.126913256385045,139.79080644687394,8
1767650148.581698,1,left_wrist,0.5583,-0.185,-0.6061,-76.09,-90.16,-51.59,0.193221248621071,0.7011410643631489,-0.6244545130492415,0.2848215547978403,-173.66141443334774,-39.845225901348925,-85.6775886728649,9
1767650148.581698,2,right_wrist,0.5036,0.4065,-0.5285,80.78,-101.85,26.53,0.09228095896838262,-0.6044797193167623,-0.7810395994200491,-0.1267502965849513,174.80614947320063,-17.300675707628354,105.31507349343168,9
1767650148.662004,1,left_wrist,0.3499,-0.1835,-0.4534,-36.96,-93.94,-46.41,0.1804732753548939,0.7205330638877311,-0.6234329558435157,0.24411646871002518,-176.8908038230624,-35.2267633949351,-82.7225551293375,9
1767650148.662004,2,right_wrist,0.2713,0.2152,-0.6076,68.74,-74.41,25.69,0.08364223273019776,-0.6199678326856266,-0.7793516571103207,-0.035423973498062936,-177.1770766937709,-10.037743098128912,102.74811925619387,9
1767650148.720801,1,left_wrist,0.0478,0.0932,-0.3723,-49.84,-34.93,-28.49,0.1919187671669268,0.7399922596343481,-0.6212668103060882,0.1720645021568292,175.36888964582386,-29.545746601324396,-78.808985630246,9
1767650148.720801,2,right_wrist,0.1547,-0.0698,-0.5607,61.25,-67.06,22.19,0.08247038824933245,-0.6256900860276274,-0.7756879385692242,0.004332812824466524,-173.64098236201204,-7.0375945431178515,101.82746873091253,9
1767650148.805641,1,left_wrist,0.0288,0.202,-0.3016,-50.05,-16.94,-16.66,0.20581365962297288,0.7423931379547112,-0.6203458039868768,0.14718780420344538,171.9723181663009,-28.28734413846227,-77.73842665319424,9
1767650148.805641,2,right_wrist,0.0376,0.0088,-0.3958,6.09,-29.82,1.54,0.07076303029762956,-0.6281764275185296,-0.7736679498030239,0.0427185311163662,-171.06897437750513,-3.2001792497644423,101.60056125940343,9
1767650148.8637,1,left_wrist,-0.0224,0.1098,-0.2782,-12.18,-3.08,0.28,0.20776276330912685,0.742626260731386,-0.6214573593707268,0.1383171050096058,171.126904963427,-27.62400122537393,-77.66218310383944,9
1767650148.8637,2,right_wrist,-0.0961,-0.0913,-0.2767,6.16,3.36,-9.24,0.07161486593032904,-0.625193409049914,-0.7757142666900896,0.04766433374950787,-170.57761518036705,-2.9524109982240128,102.02189649024317,9
1767650148.91774,1,left_wrist,0.0952,0.0605,-0.304,31.36,37.1,31.5,0.20104870318086324,0.7328460437477248,-0.6290787663880708,0.16363373977350845,174.14278884954123,-29.523968878673482,-79.74128094224872,9
1767650148.91774,2,right_wrist,0.0317,0.0093,-0.2435,-26.6,34.23,-19.95,0.07483894000253803,-0.6197877711932914,-0.7808256395048736,0.02394937223298193,-172.49188278034825,-5.0016982687005545,102.78936233798457,9
1767650148.971433,1,left_wrist,0.143,0.061,-0.3026,87.99,56.49,58.52,0.18477142898616514,0.7208805572445715,-0.6354180753837887,0.20599662786737213,179.68821683009236,-32.127975741401784,-82.69916212291254,9
1767650148.971433,2,right_wrist,0.0854,0.0542,-0.3836,-77.28,63.0,-30.87,0.0746251079516547,-0.6115277388509881,-0.7872924768212403,-0.02520860606377414,-177.01040902014614,-8.530455239655273,104.100591316678,9
1767650149.061803,1,left_wrist,0.2269,0.0483,-0.3353,87.78,70.77,64.68,0.1749158117959242,0.703177799405156,-0.6400310820263209,0.25554971189127124,-174.2679343547754,-35.682763343820255,-86.463117023199,9
1767650149.061803,2,right_wrist,0.5392,0.386,-0.5348,-101.22,93.1,-34.51,0.08599286101425035,-0.5883158776463584,-0.7913031436778368,-0.14257976984604664,172.49326139073315,-17.68939511015373,107.90980931119125,9
1767650149.120034,1,left_wrist,0.6373,-0.2113,-0.6554,107.87,135.31,78.47,0.15880769636344927,0.6420959541125754,-0.6336565107298461,0.4012135686858968,-154.11700274668175,-45.7657950384142,-100.32125733385894,9
1767650149.120034,2,right_wrist,0.5695,0.3782,-0.631,-122.99,102.41,-37.52,0.08810322350123183,-0.571395990878348,-0.7868002974362801,-0.21607807748826346,164.96590455650835,-22.67922918575622,111.05526375934815,9
1767650149.1705549,1,left_wrist,0.7793,-0.184,-0.772,105.14,108.78,68.11,0.1493303571574417,0.6121632845124898,-0.6251057048450782,0.46065107760239654,-143.48875822048083,-48.649478113396796,-108.16026739355544,9
1767650149.1705549,2,right_wrist,0.6871,0.5944,-0.7052,-93.03,112.84,-21.84,0.1017551539401138,-0.5547861612850833,-0.776754042332727,-0.28019878945661664,158.59138316266012,-27.967994633382368,114.3187166004764,9
1767650149.22398,1,left_wrist,1.0858,-0.5754,-0.8486,74.34,115.29,63.14,0.14661398683897084,0.5767890622200976,-0.6197838228113343,0.5115532519179318,-133.00262232918772,-50.520723250811855,-117.30288656840506,9
1767650149.22398,2,right_wrist,0.9355,0.7462,-0.6934,-135.03,128.52,-20.09,0.11049214112696219,-0.5354985476805081,-0.7557989447876594,-0.3602787077237656,149.2325346933283,-33.56462136412087,118.85008746136077,9
1767650149.308728,1,left_wrist,0.8818,-0.3738,-0.7086,105.56,99.05,66.22,0.1327224717779181,0.5446313767975063,-0.6059438540515399,0.564440833595496,-121.26743098353074,-50.86573572426248,-126.06153388336797,9
1767650149.308728,2,right_wrist,0.937,0.7823,-0.588,-98.42,70.42,-20.93,0.11899163659074793,-0.4962800748114801,-0.7219056773610693,-0.467332077606944,133.85847496719566,-39.46870570063688,128.36075822955678,9
1767650149.358779,1,left_wrist,0.9165,-0.4709,-0.5348,61.74,100.38,48.86,0.13386923996072495,0.5124087454871232,-0.5961703172217886,0.6034047207342037,-112.06005223248975,-51.07758740656918,-134.33072060730885,9
1767650149.358779,2,right_wrist,0.7974,0.9443,-0.3821,-73.01,99.19,-17.43,0.12988206118102683,-0.4719327595694025,-0.7036449436217831,-0.5150669023962559,125.88201355529834,-41.98496700058361,134.48056280311553,9
1767650149.419586,1,left_wrist,1.0175,-0.4407,-0.5104,78.96,84.56,51.38,0.13201990025920146,0.4452968019957922,-0.5765746427757288,0.6721928185988836,-95.33929497825712,-48.667468764815055,-149.4178616254985,9
1767650149.419586,2,right_wrist,0.8969,0.8218,-0.4485,-53.55,91.91,-11.62,0.14482536385822356,-0.44890447657791027,-0.6863766746833063,-0.5535317925307741,118.73012845567658,-44.08903103733657,140.5996895038091,9
1767650150.4566169,1,left_wrist,0.469,-0.2338,-0.5314,-48.51,-78.54,-54.25,0.15203542629676725,0.7623779888057307,-0.5316142762602027,0.3362310107822156,-170.20126771969046,-42.40126177527083,-73.58563716532502,10
1767650150.4566169,2,right_wrist,0.365,0.2294,-0.5739,77.42,-97.93,28.7,0.08901871541575768,-0.6413314198417247,-0.7597351210683684,-0.059768085503531555,-178.63002956561814,-12.23510347499642,99.51430235472854,10
1767650150.51194,1,left_wrist,0.3904,-0.1581,-0.6076,-60.9,-71.68,-48.93,0.15889585711431461,0.7798586923953004,-0.5300533606568705,0.29260205287003227,-175.41913026702457,-38.66920279266259,-70.01428103247723,10
1767650150.51194,2,right_wrist,0.2821,0.303,-0.651,55.02,-76.65,19.81,0.07817989970768383,-0.6468623887640997,-0.7582275316992684,-0.02340861929577073,-176.19364344318763,-8.559744518352382,98.77843302607828,10
1767650150.56988,1,left_wrist,0.1283,0.1054,-0.4319,-35.7,-43.96,-27.02,0.1607606770247275,0.8031538940100815,-0.5252686328502297,0.23063540622082454,178.91535936831943,-32.639845879611485,-66.05238119806798,10
1767650150.56988,2,right_wrist,0.1064,-0.0122,-0.5246,46.83,-67.55,13.58,0.06995792104106736,-0.649737130575289,-0.7569027965014055,0.006760701424681571,-174.1673458921196,-5.573197779103646,98.42924940225478,10
1767650150.664747,1,left_wrist,0.0542,-0.0054,-0.3523,-54.74,-22.82,-11.48,0.1728917662051974,0.8050444036462573,-0.5289574463717447,0.20546524101212907,175.92245237654666,-30.912073837475837,-65.48625512904148,10
1767650150.664747,2,right_wrist,0.0146,0.0132,-0.3499,10.78,-20.51,-0.7,0.061605843902199954,-0.6496237358319191,-0.75672954822367,0.03942223593454578,-171.96206765919214,-2.4082022779269385,98.54108768732017,10
1767650150.7184918,1,left_wrist,-0.0142,0.1806,-0.2635,-17.57,12.88,12.18,0.17926057843630197,0.801719896224863,-0.5347710042796139,0.19781513086124206,174.9440984654503,-30.591343916826563,-66.02537447143828,10
1767650150.7184918,2,right_wrist,-0.0595,-0.0654,-0.2913,-16.38,13.16,-18.76,0.059157665625086696,-0.6443218514004413,-0.7617079098651871,0.033923184616219806,-172.64306307235242,-2.659870534626191,99.37380658370346,10
1767650150.77122,1,left_wrist,0.0869,0.1147,-0.2747,49.0,29.68,26.74,0.1683236414647632,0.7977098970496923,-0.5368052541605564,0.2171777865681286,177.61355504616316,-31.816718777542835,-67.19555350765916,10
1767650150.77122,2,right_wrist,0.0429,-0.0503,-0.346,-25.34,39.62,-19.53,0.06980889043629841,-0.6385191290152892,-0.7663473606923817,0.011478826483139477,-173.84605922225995,-5.298056808509282,100.11300782166235,10
1767650150.859498,1,left_wrist,0.2001,-0.0673,-0.3645,57.33,60.27,45.64,0.1534712561053293,0.7843770540160018,-0.5436195095181114,0.2562753198299022,-177.36046978603707,-34.6730602435889,-70.27257936648647,10
1767650150.859498,2,right_wrist,0.3601,0.1181,-0.4856,-90.86,79.38,-33.95,0.07382899585997321,-0.620392538982502,-0.7754724166353557,-0.09113126786605247,177.07241021745628,-13.154580136839359,103.01669778878343,10
1767650150.913312,1,left_wrist,0.2577,0.0127,-0.3723,110.74,71.68,62.44,0.12930412979479045,0.768529850265318,-0.5456689896474365,0.3080384148224468,-169.96726824833388,-37.92198547485728,-74.20546771900003,10
1767650150.913312,2,right_wrist,0.3748,0.3304,-0.5963,-96.67,93.31,-34.16,0.07762814730144493,-0.6064565772122151,-0.7761579688803601,-0.15415283988984385,171.22661242516392,-17.907273538851488,105.37984228944941,10
1767650150.9767208,1,left_wrist,0.6476,-0.2513,-0.6764,95.55,100.45,59.85,0.10188563841913863,0.7132687831439339,-0.5526721859643924,0.4188322033197023,-153.18666768490925,-45.24293736742589,-86.88459222828888,10
1767650150.9767208,2,right_wrist,0.5114,0.3231,-0.7354,-113.26,101.71,-29.33,0.08088682202049144,-0.5913951445012601,-0.7704072787208245,-0.22401278976373853,164.28252877053404,-22.929098984905853,108.18438876001986,10
1767650151.056787,1,left_wrist,0.8652,-0.3016,-0.7803,69.93,127.12,60.97,0.10291914248551758,0.6788618617024123,-0.5510235564128326,0.47426497141801893,-144.09837678599212,-49.230479462325896,-95.01710379727797,10
1767650151.056787,2,right_wrist,0.8174,0.6012,-0.7647,-85.68,108.5,-25.76,0.1039381107502291,-0.5541318316286025,-0.7501966893579621,-0.34545579975730073,151.41054401667847,-32.602270109820985,115.6201462896326,10
1767650151.109437,1,left_wrist,0.8906,-0.3201,-0.7037,106.26,109.06,69.86,0.08543419785142484,0.6449908898410603,-0.5431764604069841,0.530704327021422,-132.1508319055427,-51.02410022300769,-104.11345493613024,10
1767650151.109437,2,right_wrist,0.8535,0.69,-0.7408,-71.61,96.18,-20.93,0.11536616823304957,-0.5341588839737523,-0.7378896281971309,-0.39608563530913243,145.0337730942696,-36.398678346647046,120.02269872161989,10
1767650151.169479,1,left_wrist,0.9345,-0.5192,-0.611,63.14,95.13,48.3,0.07602202980785869,0.5821363376732964,-0.533940923334648,0.6084776296074973,-113.8342487253939,-52.149680093488094,-120.41874862408602,10
1767650151.169479,2,right_wrist,0.8721,0.6808,-0.6871,-80.15,91.0,-16.8,0.1238240008139301,-0.515234486019681,-0.7208976465154879,-0.4466627637120625,137.84055446143532,-39.70246963168985,124.73754038990971,10
1767650151.25924,1,left_wrist,0.9526,-0.406,-0.6061,72.38,88.69,47.18,0.06721129349575188,0.5519946223837462,-0.5235675817126216,0.6454932736021735,-104.68078609646429,-51.53579740901882,-127.83793216934995,10
1767650151.25924,2,right_wrist,0.8994,0.7291,-0.5553,-39.69,70.35,-17.29,0.15224662385819734,-0.4739010380811678,-0.6972260254880384,-0.515863006050565,126.23516247617589,-44.52630460007136,135.04103377263664,10
1767650151.31077,1,left_wrist,0.9941,-0.408,-0.6173,49.28,76.58,41.37,0.06261240839219885,0.5248404733898715,-0.517565001646232,0.6728659843372675,-97.8228145375038,-50.45336356294483,-133.8689320168198,10
1767650151.31077,2,right_wrist,0.9243,0.7198,-0.4177,-48.3,65.59,-19.81,0.15922232798389893,-0.4552317327268428,-0.6836640393059022,-0.547736981725574,120.04001451060228,-45.758353451467045,140.046801067317,10
1767650152.3094149,1,left_wrist,0.5056,-0.4509,-0.4338,-78.89,-92.33,-64.19,0.12116649114648968,0.8003910766169374,-0.47247698159242485,0.3485086910832192,-169.46282486321485,-42.251272650227456,-65.18852073265691,11
1767650152.3094149,2,right_wrist,0.3738,0.325,-0.5036,85.12,-98.21,25.9,0.06484965452932465,-0.6282266546131049,-0.7712278968673152,-0.07958218289712558,177.58583565964582,-11.538071413260589,101.91281152881638,11
1767650152.3710048,1,left_wrist,0.1835,-0.161,-0.3777,-40.53,-65.94,-38.43,0.1336150194160207,0.8337486799307757,-0.4667591181269682,0.2629564430575538,-178.42775105806257,-34.27816803544165,-58.967877279525474,11
1767650152.3710048,2,right_wrist,0.263,0.2884,-0.528,86.24,-83.79,23.24,0.06031505492414847,-0.6353253179148753,-0.7692639134413618,-0.030933251409130134,-178.32073457414077,-7.591061102796725,100.78284927712875,11
1767650152.456477,1,left_wrist,0.059,0.0678,-0.385,-42.84,-39.76,-26.53,0.14368543243318085,0.8422288908062977,-0.4642732744997502,0.23335663389533834,178.2913693468589,-31.769143418081953,-57.24468651883707,11
1767650152.456477,2,right_wrist,0.0488,0.0181,-0.4885,36.12,-54.39,7.63,0.043992138874000525,-0.6396994672391635,-0.7668112151929541,0.029152076864709203,-174.2010670260576,-1.7288871841004105,100.24044837014667,11
1767650152.5209012,1,left_wrist,-0.0307,0.141,-0.3143,-3.78,-10.01,2.1,0.15377406033105848,0.8473250937647766,-0.46605241211403364,0.20295042007471556,175.30862649883574,-29.16087822180451,-56.40310182118948,11
1767650152.5209012,2,right_wrist,-0.0356,-0.0454,-0.3719,26.32,-33.74,1.4,0.03677089068460629,-0.639282987122274,-0.7663866888582473,0.05115278208636449,-172.79471431618165,0.5180046973903776,100.36612996528221,11
1767650152.607837,1,left_wrist,-0.0327,0.1059,-0.2835,21.84,14.35,18.2,0.14684218034237959,0.8449979019876972,-0.4697233160661316,0.20922697257409992,176.60277173996184,-29.44205544756719,-57.24540133843039,11
1767650152.607837,2,right_wrist,0.0444,-0.0322,-0.3494,-29.26,22.47,-17.5,0.036366628380949874,-0.6320961748741244,-0.7731823882499342,0.03634403045659669,-174.13522672020142,-0.5895970348464304,101.43606208195162,11
1767650152.66942,1,left_wrist,0.163,0.1376,-0.4534,44.8,54.04,43.4,0.12419296857648757,0.8286619039534266,-0.4812827325674,0.2574150089347902,-177.12943327068925,-33.10423541992748,-61.14891990739393,11
1767650152.66942,2,right_wrist,0.0346,0.0268,-0.4353,-46.06,51.24,-17.85,0.03981166505924721,-0.6272661336560056,-0.777785105897884,0.0015993551431133241,-176.98902054099153,-3.4354158626635822,102.13889857785742,11
1767650152.758631,1,left_wrist,0.2542,-0.022,-0.51,85.26,66.5,46.2,0.10001985197978001,0.8162739573466895,-0.4849240416588365,0.29755928751893573,-171.13009849941554,-35.6465834043264,-64.28347944884347,11
1767650152.758631,2,right_wrist,0.4011,0.1986,-0.6349,-86.03,98.35,-28.0,0.055548501906746386,-0.6079222407630891,-0.7846421442682712,-0.10808153662670753,173.99577901935245,-12.625744895642988,105.1294774312501,11
1767650152.823762,1,left_wrist,0.5919,-0.1044,-0.6476,80.99,93.45,52.5,0.06720950682003284,0.7737696348350679,-0.4907152026076419,0.39492027591648743,-157.33389538919877,-42.61869302465681,-73.705096290345,11
1767650152.823762,2,right_wrist,0.4138,0.3797,-0.6471,-84.42,103.04,-25.48,0.0672918528973395,-0.5947174960804855,-0.7831241000540917,-0.16881809827109615,168.83272224207215,-17.830006022004675,107.3298890104788,11
1767650152.9119842,1,left_wrist,0.6495,-0.245,-0.7232,70.21,108.08,57.82,0.057485721580614234,0.7453489122229027,-0.4944341285626053,0.443492145787306,-149.54095407977556,-45.88619338533031,-80.26524753109253,11
1767650152.9119842,2,right_wrist,0.6695,0.4973,-0.6993,-100.73,104.23,-25.27,0.07821968228094077,-0.5621962802577043,-0.7672261580644927,-0.2986319576834798,155.41673715650057,-27.11667206290019,113.55022530677414,11
1767650152.970747,1,left_wrist,0.9057,-0.3636,-0.7608,68.53,95.06,39.41,0.02755744831510336,0.691005602411239,-0.4813369889544963,0.538578265011558,-131.05097362749322,-50.4302827603319,-93.91594057033197,11
1767650152.970747,2,right_wrist,0.7857,0.7549,-0.7989,-73.36,109.06,-12.04,0.09518081643477949,-0.5444986915586941,-0.7546664981349965,-0.3534689005645901,149.57739142250819,-31.90998342304332,117.26850741881624,11
1767650153.057856,1,left_wrist,0.8564,-0.5114,-0.6154,105.63,82.74,42.35,0.0034708438016717146,0.6647755404917246,-0.4685081657145481,0.5818604065117592,-120.8462498264328,-50.974460869439554,-100.62729390653051,11
1767650153.057856,2,right_wrist,0.7901,0.7452,-0.5797,-81.27,82.25,-27.3,0.10923052937865863,-0.5038620666546899,-0.724725982956071,-0.4571257582618588,135.29412585462842,-38.24176449756141,126.60953069756117,11
1767650153.107869,1,left_wrist,0.8477,-0.5144,-0.5754,91.91,87.71,45.5,-0.01589312161814859,0.6346446569068953,-0.4583576253946704,0.621998276032433,-110.92467619161305,-50.79835097567231,-107.8696991229568,11
1767650153.107869,2,right_wrist,0.9184,0.6559,-0.6095,-40.46,82.67,-20.44,0.12543746648996085,-0.4826677353373376,-0.7145877053714044,-0.490572839236883,130.0294556241698,-40.75603210509034,131.5669307253948,11
1767650153.158846,1,left_wrist,0.9765,-0.3992,-0.609,69.16,76.65,40.25,-0.028436846769465958,0.6075242286776508,-0.45078806093755136,0.6533726206626645,-103.05387124586174,-50.1962308393051,-113.98380500077016,11
1767650153.158846,2,right_wrist,0.7891,0.7735,-0.4987,-52.36,75.32,-14.56,0.13390216283388787,-0.462649006316831,-0.7006880643524382,-0.5263671192394993,123.74538535535005,-42.430372176426374,136.5739143448711,11
1767650154.211984,1,left_wrist,0.4128,-0.2059,-0.5319,-59.71,-87.85,-56.56,0.0751809470101845,0.8669677249485419,-0.3711818962986413,0.3239425704725238,-171.9517722854416,-38.13431879755966,-49.141039464544626,12
1767650154.211984,2,right_wrist,0.2625,0.4002,-0.4524,55.93,-72.24,10.36,0.04356824643482643,-0.6262155357434965,-0.7752869669062858,-0.06990014049579354,176.87707310190038,-8.922647884044151,102.38664423019368,12
1767650154.2678242,1,left_wrist,0.1615,-0.0947,-0.4304,-60.69,-56.63,-29.05,0.09806950389832117,0.891901161054464,-0.3638670299170294,0.24999095154464274,-179.53199431432287,-31.15151251763896,-44.51822081636507,12
1767650154.2678242,2,right_wrist,0.1308,0.083,-0.5719,65.59,-65.59,2.94,0.03927662049781273,-0.6271852034171389,-0.7771134987341438,-0.03450619918291105,179.7486439815412,-5.988470689607477,102.20121169452386,12
1767650154.321633,1,left_wrist,0.0673,0.0151,-0.4529,-31.29,-31.64,-9.59,0.10490009194372041,0.8965492098201524,-0.3651864007418187,0.22767164468658624,178.57098630167718,-29.002896868991616,-43.9549125058353,12
1767650154.321633,2,right_wrist,0.124,0.1322,-0.6178,67.2,-54.88,10.08,0.03798253222393334,-0.6296813063777815,-0.775923612397918,-0.001152114401409073,-177.3560027747635,-3.4624292949795583,101.7996945692386,12
1767650154.4129121,1,left_wrist,0.0078,0.1415,-0.3855,-19.25,-24.43,0.28,0.10966170900594978,0.8990833485085096,-0.36791190379100125,0.2103907627760815,177.26586852493574,-27.323201721705225,-43.84483245720183,12
1767650154.4129121,2,right_wrist,-0.0508,-0.0181,-0.4016,18.76,-12.11,-5.53,0.025753772533353685,-0.6279942274787889,-0.7773279773990095,0.026855334784441524,-175.75056124934838,-0.36143937979012053,102.11790809013765,12
1767650154.4697359,1,left_wrist,-0.0386,0.1532,-0.2694,10.57,22.75,25.9,0.1109174924386579,0.8928365940713092,-0.38267538931497563,0.20999922040544908,177.5900188029193,-27.3794138582367,-45.8134440566197,12
1767650154.4697359,2,right_wrist,-0.0551,-0.0917,-0.3196,-0.98,12.67,-14.49,0.02985849938348091,-0.6232339135099526,-0.7809760693127131,0.027646667547823408,-175.38807447985155,-0.6977002347596054,102.79082453449467,12
1767650154.559654,1,left_wrist,0.0425,0.1181,-0.3318,40.11,42.21,37.59,0.10042826622436056,0.8854214601825191,-0.3910065737748853,0.23034074857968553,-179.8500377169439,-29.10643474161602,-47.691920569285244,12
1767650154.559654,2,right_wrist,0.0952,-0.0166,-0.5017,-67.13,57.26,-20.51,0.04159898798434112,-0.6112506613364225,-0.7893220666699333,-0.040160033396029325,179.27650609669877,-6.5901107275334345,104.53328472639416,12
1767650154.612459,1,left_wrist,0.1664,0.061,-0.4158,58.59,47.32,46.69,0.08306032861236395,0.8759123297611956,-0.40035268205086233,0.25611775096193873,-176.0146947121935,-31.009503408685735,-50.23336600439545,12
1767650154.612459,2,right_wrist,0.1776,0.1147,-0.4104,-175.14,71.33,-18.76,0.019940936070403384,-0.6041713241202394,-0.7869000432095009,-0.12396649618472896,169.98647529112768,-10.438327211071474,105.88385134146942,12
1767650154.6667352,1,left_wrist,0.3484,-0.2728,-0.4768,144.69,75.11,40.88,-0.00756503551639895,0.8467415263810979,-0.39520100674407876,0.3560726358594701,-158.48189709076135,-36.65702158457682,-57.243686878702675,12
1767650154.6667352,2,right_wrist,0.4724,0.4177,-0.6798,-91.98,93.94,-16.73,0.027825266457099474,-0.5926906160436928,-0.7835963508732448,-0.1841747732412727,164.63887028812104,-15.184308072150113,107.85389543389243,12
1767650154.72144,1,left_wrist,0.5441,-0.4031,-0.6427,69.86,126.07,46.13,-0.022502714184002494,0.8156279136085809,-0.40178773923581557,0.41570584190824,-150.42679320040256,-41.302919501540046,-63.813780842789626,12
1767650154.72144,2,right_wrist,0.4982,0.6183,-0.6895,-99.61,101.29,-15.89,0.035201311144796424,-0.5784808994848314,-0.7762697198859697,-0.24804442870797522,158.50513744300966,-19.976174145019577,110.44171808418369,12
1767650154.805461,1,left_wrist,0.8125,-0.3211,-0.8642,66.36,125.51,44.1,-0.02849242613673625,0.7848025756654008,-0.4050235684003081,0.46821897432940146,-142.86497023710126,-45.38471508730627,-70.58592213865178,12
1767650154.805461,2,right_wrist,0.6261,0.5988,-0.7418,-75.6,109.69,-10.43,0.061602546369141115,-0.542309981692092,-0.7531396423456482,-0.36726787113145315,146.05635379378887,-29.415321271878984,117.64758242221674,12
1767650154.855755,1,left_wrist,0.8076,-0.4548,-0.7852,98.35,109.41,56.77,-0.05343415032992189,0.7515219814255267,-0.40545155166604585,0.5176567803712856,-132.50688232865292,-47.28448917406717,-78.49672107057258,12
1767650154.855755,2,right_wrist,0.7818,0.6466,-0.7769,-59.22,98.0,-8.68,0.0804348381955005,-0.5242577436512147,-0.7405070592668034,-0.41271461108401786,140.81527563422168,-33.494902411054724,121.63210759962669,12
1767650154.92458,1,left_wrist,0.8101,-0.4734,-0.6788,79.94,86.17,45.64,-0.08130750467288318,0.6893636856003266,-0.40693389428991344,0.5937774030202301,-115.31658889921988,-48.80597532410546,-93.16244217985363,12
1767650154.92458,2,right_wrist,0.7608,0.8794,-0.5919,-71.82,91.14,-9.87,0.0910301739484477,-0.5050858949746883,-0.724638001049257,-0.45989293706673795,134.28664388816557,-36.619546208574356,126.1270602981882,12
1767650155.0136929,1,left_wrist,0.9262,-0.4573,-0.5461,107.52,65.31,38.43,-0.10908786314697066,0.6635154491061387,-0.3919048952495646,0.6278993868375208,-106.4190086243106,-48.39479316202747,-98.28626563049518,12
1767650155.0136929,2,right_wrist,0.7974,0.8686,-0.3274,-89.04,44.94,-11.9,0.09918212461719846,-0.475290532571223,-0.6910343982920156,-0.5354748137697736,122.21196676742606,-40.24735449857471,133.82463763792802,12
1767650156.012803,1,left_wrist,0.5061,-0.4168,-0.4699,-59.85,-102.76,-62.16,0.047703468718154056,0.8836929829857217,-0.30779692363965006,0.349388243494283,-170.12611254095563,-40.30601485056403,-42.03869426528584,13
1767650156.012803,2,right_wrist,0.3738,0.5031,-0.5056,100.59,-91.28,23.03,0.04956916037183713,-0.6504326258043,-0.7542319775141338,-0.07492944497641502,177.17519686636697,-9.918455431532582,98.69767780506541,13
1767650156.069986,1,left_wrist,0.1322,-0.0752,-0.3806,-43.68,-65.24,-40.74,0.06832058596943792,0.9149361241904453,-0.2900648697168489,0.27218845960162596,-177.7645927479629,-32.52753853183531,-35.8328782573253,13
1767650156.069986,2,right_wrist,0.2245,0.3548,-0.4851,78.68,-70.28,13.44,0.0478843483848217,-0.6545036641952781,-0.7538409108612901,-0.03249498186699462,-179.2104470339192,-6.588082739243135,98.02388011872188,13
1767650156.126871,1,left_wrist,0.0376,-0.1342,-0.2708,-57.47,-38.29,-25.34,0.0851606433685123,0.9210423799564058,-0.28904821949819937,0.2467381728679647,179.0558313299871,-30.24799133862184,-34.59137388199299,13
1767650156.126871,2,right_wrist,0.0322,0.0781,-0.4021,64.19,-60.2,7.98,0.04270067217821251,-0.6560683206494038,-0.7534870362715744,0.002880521910912269,-176.53257601654727,-3.4724830837435285,97.80206393049656,13
1767650156.211311,1,left_wrist,-0.0029,-0.0054,-0.2279,-20.72,-11.27,-1.82,0.09047547370447749,0.9228611760007288,-0.2913876786171224,0.23502055067297103,178.03034299590615,-29.11142209821781,-34.53489696827814,13
1767650156.211311,2,right_wrist,-0.1357,-0.0429,-0.2708,8.89,4.06,-7.63,0.03834075083086535,-0.6529868683048061,-0.7558173090669642,0.029636665837784907,-174.5550452187067,-1.1031550948845552,98.29692067481918,13
1767650156.2620559,1,left_wrist,-0.0908,0.0732,-0.1601,0.0,19.6,20.16,0.0913294382474495,0.9192760270180682,-0.298562196066004,0.2396896638145378,178.36490576073325,-29.684057877899868,-35.55216808998566,13
1767650156.2620559,2,right_wrist,-0.0127,-0.0522,-0.3084,-16.24,33.95,-18.41,0.045268508511249236,-0.6475971713017489,-0.7603940524125724,0.019223707101552433,-174.9542210292089,-2.518695504641911,99.04959139520908,13
1767650156.3156302,1,left_wrist,0.1474,0.1098,-0.3616,53.41,50.05,53.41,0.07704071106281384,0.9014313942213039,-0.3221621326998527,0.2787431265618129,-177.20139737727672,-33.516342328381185,-40.175585583039805,13
1767650156.3156302,2,right_wrist,0.0903,-0.0254,-0.4207,-40.46,49.56,-23.66,0.05361650491747844,-0.6403630504417184,-0.7660977507558264,-0.012436652132906102,-177.14244705047253,-5.6285564284204135,100.07658842064222,13
1767650156.372714,1,left_wrist,0.2689,-0.0639,-0.3538,79.59,69.93,57.47,0.045670512847544656,0.8849533043555289,-0.33297078574496847,0.3223388112015855,-170.36169077723537,-36.93606607787968,-44.46413935732522,13
1767650156.372714,2,right_wrist,0.224,0.1718,-0.4421,-56.49,78.68,-31.01,0.0641384826003228,-0.6299031603490011,-0.7718141600346418,-0.05840518814359821,179.4558920187653,-9.938162387422157,101.60925548263302,13
1767650156.4626298,1,left_wrist,0.3411,0.0625,-0.3841,116.62,78.96,71.61,0.006484329831635972,0.8642495948209176,-0.34041254190763326,0.370337538781175,-161.6322422747824,-40.13140708931345,-49.756581480366165,13
1767650156.4626298,2,right_wrist,0.4299,0.3065,-0.5802,-115.99,92.75,-32.06,0.06280970902180001,-0.5993068242999342,-0.7744231118249181,-0.1927566203053348,166.3276776274896,-19.167037978415284,106.84835849532297,13
1767650156.5157518,1,left_wrist,0.774,-0.4729,-0.7413,96.81,111.93,60.83,-0.056718387891931794,0.8061839225603611,-0.3590356889747553,0.4668446010425234,-142.58046236879807,-45.39766028303492,-64.13767615442659,13
1767650156.5157518,2,right_wrist,0.6949,0.589,-0.7198,-110.04,100.31,-25.06,0.06618711591692646,-0.5833851625345271,-0.7665727257069863,-0.26009089569480204,159.4115073174559,-23.88741833455717,109.85591605738365,13
1767650156.5664651,1,left_wrist,0.8823,-0.3494,-0.9345,79.8,114.17,61.95,-0.07692052181993031,0.7718960281083389,-0.3664114431029106,0.51381164786015,-132.89484725019207,-47.463704738183715,-72.4834535304621,13
1767650156.5664651,2,right_wrist,0.7056,0.6276,-0.8306,-94.71,114.31,-18.27,0.07850461599731452,-0.5648823394436219,-0.7545912089822243,-0.3245567364553695,152.69510763413865,-29.022334757589963,113.55799596112095,13
1767650156.619862,1,left_wrist,0.9677,-0.5119,-0.7681,98.42,113.61,46.41,-0.09967492363446494,0.7364481625419127,-0.36277806744439844,0.5622286788028619,-122.09557791590191,-49.09399140784321,-80.80987762873835,13
1767650156.619862,2,right_wrist,0.8896,0.8921,-0.7964,-93.1,100.31,-15.54,0.08619117445229739,-0.5466124972497317,-0.7394682732447844,-0.3833699677352446,145.6293011725402,-33.132763743484816,117.56948460933563,13
1767650156.67061,1,left_wrist,0.8886,-0.4382,-0.6832,86.59,105.0,46.76,-0.11985029795764228,0.7008424233813355,-0.36036508849681015,0.6038152090342935,-111.86804495328437,-49.46233799643114,-89.0224615261741,13
1767650156.67061,2,right_wrist,0.7749,0.5993,-0.6573,-109.83,80.15,-25.34,0.08306421265749098,-0.5274779063983472,-0.7212100638365202,-0.44127478815147625,137.39316919419176,-35.826934999578995,122.00685137966437,13
1767650156.7587352,1,left_wrist,0.8691,-0.5192,-0.4812,111.93,99.12,30.73,-0.14406311725167997,0.6653723585768083,-0.344665987590918,0.6463209726503086,-100.9274608258125,-49.53308934971768,-96.46277229953789,13
1767650156.7587352,2,right_wrist,0.8472,0.6832,-0.3387,-115.36,77.49,-5.25,0.08181239011922632,-0.4953943930409786,-0.6714103636488947,-0.5450681166160783,121.08612754001251,-40.534571652402605,130.71773901208203,13
1767650157.721727,1,left_wrist,0.3987,-0.1415,-0.4948,-55.16,-78.96,-55.23,0.03209606520028874,0.9062267692210868,-0.2575544618482376,0.33374928393606307,-171.65219351473783,-38.421224002477324,-34.64413888578827,14
1767650157.721727,2,right_wrist,0.3196,0.3167,-0.324,66.36,-91.7,26.11,0.041686213944142125,-0.6423642305525931,-0.7546024423293654,-0.12730125256310434,171.82111398314473,-13.088780392865127,100.12689774761739,14
1767650157.8067389,1,left_wrist,0.2406,-0.1845,-0.4055,-48.93,-64.96,-45.57,0.04617130783443363,0.9195005420137635,-0.24904703571114464,0.300603622021999,-175.4527016636038,-35.156239491282754,-31.75120947856928,14
1767650157.8067389,2,right_wrist,0.2001,0.2601,-0.5563,67.62,-64.33,11.97,0.03956515816601516,-0.6529393274945986,-0.7549105263066528,-0.047063044330046676,178.88074364741914,-6.96107060972973,98.35352662793697,14
1767650157.866943,1,left_wrist,0.1981,-0.0063,-0.4397,-23.38,-41.79,-28.14,0.05473271583145999,0.9285880010911273,-0.24171802856808838,0.27622644462913765,-177.82951327157775,-32.64694699931717,-29.817119898225148,14
1767650157.866943,2,right_wrist,0.0556,0.1298,-0.5461,29.12,-42.0,-0.28,0.03048827784940146,-0.6528317632130067,-0.7563388470796386,-0.028856580743698883,179.77901888992383,-4.806789300456728,98.41122124034477,14
1767650157.918098,1,left_wrist,0.0307,0.0722,-0.4094,-6.3,1.61,5.6,0.07059250445103044,0.9309542312303885,-0.2483989611199079,0.25814506345099436,179.7866119608971,-31.04510393043969,-29.82017110459201,14
1767650157.918098,2,right_wrist,-0.0298,-0.0224,-0.4309,19.46,-26.67,4.13,0.024852051193373838,-0.6543277706309331,-0.7557306982565192,-0.010423811459771497,-179.03798098775164,-2.9350620234604197,98.20192751473678,14
1767650157.968443,1,left_wrist,0.0288,0.0303,-0.3514,-2.52,14.14,15.54,0.07102840242675297,0.9289115027051681,-0.2546460076429749,0.25929480708688263,-179.9933976621563,-31.191362572742854,-30.662040726279212,14
1767650157.968443,2,right_wrist,-0.0512,0.0708,-0.3797,22.19,7.77,-5.46,0.02888645808372281,-0.6522610570209545,-0.7574204510848298,-0.0059452764222798155,-178.3545254307017,-2.9528493764581136,98.49008129563896,14
1767650158.019535,1,left_wrist,0.1078,0.1083,-0.3401,28.56,32.76,29.33,0.062652836515099,0.9237549090803755,-0.26143962366410456,0.27276512461253355,-178.17500831106193,-32.45901094630796,-32.136246306366104,14
1767650158.019535,2,right_wrist,0.0429,0.0654,-0.4675,-7.42,26.32,-10.71,0.033178866592829676,-0.6485826948345735,-0.7601464981056575,-0.020419407201080434,-179.31067804166474,-4.412063104606882,99.02958218312686,14
1767650158.109716,1,left_wrist,0.1645,0.0293,-0.3489,35.91,46.76,37.38,0.050930763566112494,0.9158715411335447,-0.2703698458251222,0.2923790757436957,-175.50199067997966,-34.2707076868338,-34.28117835922645,14
1767650158.109716,2,right_wrist,0.1791,0.123,-0.3138,-101.43,61.53,-28.91,0.028940138765568463,-0.6307022045574608,-0.7682367623627168,-0.10578031238864227,172.64213962741525,-10.247319563954264,101.89044204882144,14
1767650158.1700742,1,left_wrist,0.3889,-0.3572,-0.5495,84.0,86.24,58.94,-0.03360297135985502,0.8826533959204824,-0.2819359126571264,0.37457437731380155,-159.33141586427786,-39.96286078972045,-43.015528369990236,14
1767650158.1700742,2,right_wrist,0.266,0.5705,-0.5256,-115.92,74.97,-32.13,0.019259279710326496,-0.6161655661485449,-0.7690335749064733,-0.16898649621923179,165.9269908143847,-13.760823826282724,104.30174792218571,14
1767650158.220456,1,left_wrist,0.527,-0.0127,-0.6812,104.3,90.09,58.8,-0.06807685337706569,0.8590259299569973,-0.2871303882814612,0.41832539227392196,-150.862002021843,-42.81324109143512,-48.60004175740759,14
1767650158.220456,2,right_wrist,0.488,0.4133,-0.6778,-121.59,86.31,-28.63,0.01434147913388628,-0.5993438839001184,-0.7645652921041941,-0.2366878638996977,158.77311807982187,-17.796963319701103,107.17514132743946,14
1767650158.315167,1,left_wrist,0.8496,-0.3538,-0.691,64.26,110.95,51.1,-0.08455908434688864,0.8282932241381125,-0.2954936684688663,0.46846940988299124,-142.6728224442694,-46.55932599823513,-55.80508580091905,14
1767650158.315167,2,right_wrist,0.6525,0.7769,-0.7642,-65.73,114.94,-16.8,0.04353847630911905,-0.5599280542647779,-0.7492453546818195,-0.35102189905425396,147.5224982940082,-27.279785942299384,114.54246490172645,14
1767650158.3711271,1,left_wrist,0.8516,-0.4314,-0.6798,74.13,96.6,41.86,-0.12465733891721355,0.7673190631648872,-0.3039588577314486,0.5507186359334788,-124.55644615929677,-50.297565303731375,-70.93710573716604,14
1767650158.3711271,2,right_wrist,0.7842,0.5832,-0.7013,-77.56,100.94,-9.87,0.05833758740923207,-0.5415927523048124,-0.7351419854345927,-0.40353472935728024,141.54437241373876,-31.52535219211614,118.48574919073056,14
1767650158.461408,1,left_wrist,0.9755,-0.446,-0.7091,59.22,88.48,45.99,-0.14105975080065616,0.7383876982284927,-0.3091030339147823,0.5825298861290829,-116.34721274259283,-50.62963851774473,-78.15290181339465,14
1767650158.461408,2,right_wrist,0.7876,0.6749,-0.5788,-66.85,77.07,3.22,0.08911993520392211,-0.5075953598330004,-0.7020785795942605,-0.4914165808152602,129.89050263929818,-38.610290296568635,126.86660995940872,14
1767650158.5220659,1,left_wrist,0.856,-0.6032,-0.408,50.26,91.14,26.67,-0.18572737743743337,0.6780576527754759,-0.2934287099508875,0.6477983891299695,-98.2575243909923,-50.30845614714642,-91.03053134932954,14
1767650158.5220659,2,right_wrist,0.8281,0.8018,-0.4392,-66.64,80.64,-0.49,0.09935591686148403,-0.4910177345498057,-0.6824481933384711,-0.532254121215841,123.33545810982126,-41.170574757432,131.42592319975583,14
1767650159.413549,1,left_wrist,0.6002,-0.367,-0.4631,-83.93,-93.8,-83.3,0.029467726217223413,0.885560897683122,-0.23011572389651136,0.40244291920946357,-168.84068084288995,-46.58021773127992,-33.94874565530009,15
1767650159.413549,2,right_wrist,0.4792,0.427,-0.5578,90.3,-99.26,42.63,0.07338530667266835,-0.6364582098006112,-0.7566247132083243,-0.13059321308697786,173.7734695161782,-16.09820292556325,100.74156654437253,15
1767650159.465966,1,left_wrist,0.2762,-0.0542,-0.4309,-41.44,-69.93,-52.99,0.06730341795361892,0.9215879305662206,-0.20520487090600992,0.3225475114194489,-179.39076884434127,-38.47212131377872,-25.318490399213196,15
1767650159.465966,2,right_wrist,0.3079,0.3899,-0.5041,89.39,-93.03,28.49,0.06793881708767227,-0.6467946418513179,-0.7556301009181954,-0.07787271018470662,178.25580028741356,-11.736351974365602,99.05439304429294,15
1767650159.520035,1,left_wrist,0.205,0.0752,-0.4211,-26.39,-53.55,-38.43,0.08043504450006736,0.9326341493348111,-0.1942582103751835,0.2932362440296842,177.4636266916645,-35.32506524176577,-22.724048949170722,15
1767650159.520035,2,right_wrist,0.2259,0.2328,-0.5456,32.62,-76.79,15.47,0.05123945044372966,-0.6527218574184049,-0.7542600217703636,-0.04919873093345531,179.57591861558657,-8.13592231545675,98.28561835814983,15
1767650159.574028,1,left_wrist,0.1288,-0.0493,-0.4226,-12.67,-33.39,-14.77,0.08181570615665826,0.9387552938583832,-0.19182807246517705,0.27431128138165034,176.68918661961752,-33.121168926286906,-22.113226107433576,15
1767650159.574028,2,right_wrist,0.1396,-0.0093,-0.5358,59.78,-60.55,13.58,0.05283482361568745,-0.656601203118824,-0.7522500057834729,-0.014257288493153115,-177.23924705138222,-5.63625896967774,97.6319297742135,15
1767650159.65592,1,left_wrist,-0.0068,0.161,-0.3982,-5.67,-20.86,-1.54,0.08422086632500016,0.9423524439755768,-0.19199445951002234,0.2608003921127768,176.05605519114184,-31.592314519582395,-21.91546231066971,15
1767650159.65592,2,right_wrist,-0.0649,-0.021,-0.4363,7.0,-20.3,-6.16,0.03709203990375428,-0.6549093467677837,-0.7545227641026722,0.020330433906745264,-175.4518101735329,-1.681551348954678,98.01867886893491,15
1767650159.712053,1,left_wrist,-0.0205,0.08,-0.2572,-0.84,-0.14,6.44,0.08476215414178677,0.9430697578403249,-0.19432920642679924,0.25626347496622587,175.96418782760475,-31.083865995509896,-22.163986130316374,15
1767650159.712053,2,right_wrist,-0.0259,0.0942,-0.3865,-0.07,15.26,-12.04,0.0381125964232805,-0.6511763673764477,-0.7578548886110487,0.01314292100808163,-176.00815772750934,-2.3297678717669044,98.5780667197904,15
1767650159.7714188,1,left_wrist,0.08,0.0434,-0.3035,42.35,37.03,36.89,0.06910641456556912,0.9338842307656418,-0.21003365814807845,0.2810167422736471,179.24100576414133,-33.635227501617095,-25.120809665459706,15
1767650159.7714188,2,right_wrist,0.0268,-0.0605,-0.4421,-37.8,43.82,-19.88,0.04611819983095791,-0.6451838594591643,-0.7625754247302223,-0.00946682286989989,-177.4078871781086,-4.735321371156884,99.42641796033202,15
1767650159.855741,1,left_wrist,0.2333,0.0976,-0.4207,28.77,59.01,49.98,0.060520406820352556,0.9232890862556409,-0.2237862525000221,0.3062584802932308,-178.19883652093057,-36.34297443021873,-27.84037887181972,15
1767650159.855741,2,right_wrist,0.245,0.1879,-0.5671,-57.82,83.93,-31.85,0.0635133512935603,-0.6233498018198392,-0.7734394160121996,-0.0958777791635576,175.9383813631139,-12.57857223956831,102.71400004351298,15
1767650159.910363,1,left_wrist,0.3875,0.0054,-0.4856,98.84,52.78,58.87,0.021347835702495474,0.9109612235490592,-0.23140159572735008,0.3408037860641463,-171.1908800914231,-39.109015775527965,-31.639848054328557,15
1767650159.910363,2,right_wrist,0.4216,0.2874,-0.5046,-106.12,82.18,-33.04,0.061639873168482136,-0.6100116302265923,-0.773898831846339,-0.15864089980500196,169.75068094763768,-16.79520262030793,105.02440698671931,15
1767650159.96959,1,left_wrist,0.5597,-0.2791,-0.5627,106.75,94.36,59.08,-0.06302337035122522,0.8644675234490512,-0.2471253848843811,0.4331893348608468,-152.35344913824176,-45.873707452034836,-43.796181846527396,15
1767650159.96959,2,right_wrist,0.5344,0.344,-0.6915,-94.85,104.79,-28.49,0.07086137119948953,-0.593850230286105,-0.7698528053701037,-0.22281657955513437,163.79119882825466,-21.946767704833576,107.87132289778303,15
1767650160.05649,1,left_wrist,0.8979,-0.3192,-0.6842,84.07,112.56,47.46,-0.08830166886591706,0.8333766933942148,-0.2497921770158905,0.4850669752564906,-142.83581159370993,-49.85123390103891,-51.130449960023014,15
1767650160.05649,2,right_wrist,0.7964,0.571,-0.731,-105.35,103.6,-18.41,0.08474694215586986,-0.5601738035848769,-0.7461857472161271,-0.34961421055785397,150.0643828943728,-31.209134092138726,114.74812144517192,15
1767650160.1104782,1,left_wrist,0.8511,-0.3421,-0.7774,83.58,107.1,58.24,-0.11708813669170665,0.8018234592904827,-0.25671505633610614,0.5267512584017786,-132.34789222981078,-51.68429500118986,-59.65109173347077,15
1767650160.1104782,2,right_wrist,0.8252,0.6032,-0.754,-71.61,100.45,-18.83,0.09857735990688786,-0.539834977118485,-0.7336008112462648,-0.4008622598001649,143.84162028657536,-35.27011112917409,119.15288292490496,15
1767650160.163373,1,left_wrist,0.9716,-0.2264,-0.7457,92.4,92.4,46.97,-0.14621172217062853,0.7716438062322932,-0.2550215378685586,0.564049628868235,-122.01381637068545,-52.74190997545065,-67.30060686032037,15
1767650160.163373,2,right_wrist,0.8394,0.7603,-0.6573,-78.05,83.86,-13.58,0.10473039414852137,-0.5222386052674943,-0.7173864563121297,-0.4490601919672711,137.05630131614592,-38.26485009271224,123.43350758827405,15
1767650160.219768,1,left_wrist,0.9511,-0.5363,-0.325,66.01,103.67,38.43,-0.18115679779301858,0.7052931639334035,-0.26147634416564314,0.6335407555666476,-102.6409380232261,-53.02780723394235,-84.22542817938285,15
1767650160.219768,2,right_wrist,0.9662,0.7403,-0.5446,-80.29,76.72,-18.9,0.108167518103343,-0.5036198476451559,-0.699858519882889,-0.4948382455232868,129.83263643115296,-40.528381927635465,128.13204676773927,15
1767650160.272063,1,left_wrist,1.0097,-0.5368,-0.5671,48.09,101.78,54.39,-0.19721000405081676,0.6690795878895,-0.2725187456376794,0.6627022352821512,-94.01431629891411,-51.19782986169943,-92.45864000287975,15
1767650160.272063,2,right_wrist,0.9179,0.6066,-0.5309,-25.34,69.37,-26.95,0.12180634451279539,-0.48249293626432643,-0.6946187670319588,-0.5194887384520095,125.47812018021212,-42.10699813286023,132.86889325722095,15
1767650161.071317,1,left_wrist,0.4226,-0.022,-0.4197,-109.76,-59.29,-69.65,0.06793990276509802,0.9066638137152809,-0.14626966722399679,0.38980775128479983,179.23568784816524,-46.61247546192072,-17.99956168252861,16
1767650161.071317,2,right_wrist,0.3963,0.508,-0.3816,111.16,-102.97,40.18,0.06683342461905001,-0.6171024454218295,-0.7734315588353305,-0.12853594441104144,173.07596560554165,-15.1900655038872,103.75330804164685,16
1767650161.161974,1,left_wrist,0.3187,-0.0293,-0.5002,-31.01,-56.56,-59.92,0.08508343934933171,0.92004443624095,-0.1301122727277922,0.35965238797506904,175.04834835818,-43.15176360156608,-14.139615731478301,16
1767650161.161974,2,right_wrist,0.243,0.0791,-0.5309,79.1,-64.12,27.16,0.07039658066937299,-0.6412818463261837,-0.7626952655589522,-0.04580225863973199,-178.813346068957,-9.56268670881338,99.78581886547686,16
1767650161.2207732,1,left_wrist,0.0561,0.0361,-0.3094,1.96,-28.56,-25.34,0.10180299364049106,0.937238275045345,-0.1086079041974732,0.31531712516400506,171.09107475379375,-37.8189079766411,-10.16270829084726,16
1767650161.2207732,2,right_wrist,0.0922,0.2303,-0.4719,62.58,-49.63,23.45,0.06909891865633676,-0.6475471013784442,-0.7587586225136911,-0.013908403863350093,-176.04887530313775,-7.05785379584792,98.79939137589213,16
1767650161.278234,1,left_wrist,0.0268,0.1381,-0.2786,-15.75,-10.92,-7.77,0.11088160851797454,0.9396186519928318,-0.1070645129731632,0.305547455858267,169.72696172424116,-36.722442140176206,-9.583207783039336,16
1767650161.278234,2,right_wrist,-0.0142,-0.1249,-0.4309,4.06,-19.39,14.63,0.0643344750304708,-0.6526067195693844,-0.7549584593968659,-0.0018081704983954074,-175.3168623365997,-5.710365213893253,98.08424243052954,16
1767650161.357464,1,left_wrist,-0.0215,0.0883,-0.2235,31.71,-3.64,11.13,0.097285793106874,0.9424449631337564,-0.1068424110883148,0.3015255629564674,171.5354140672631,-36.0953650894868,-10.17311060047825,16
1767650161.357464,2,right_wrist,0.0063,0.1049,-0.327,-20.37,24.43,-11.34,0.06438922024466631,-0.6500529183646945,-0.75713666785524,-0.005412747074412167,-175.64519768603114,-6.000665994893441,98.47500793275417,16
1767650161.408811,1,left_wrist,0.0156,0.1547,-0.2142,25.41,24.5,28.14,0.0871357874973763,0.9397992377216617,-0.11285863948894567,0.3105602595434579,173.25345029372326,-37.11355359551391,-11.428366183066075,16
1767650161.408811,2,right_wrist,0.04,0.1347,-0.3504,-52.99,51.17,-22.89,0.06320038648249574,-0.6433238032932201,-0.7618393070276581,-0.04172607736688097,-178.97191810383217,-8.625989766647473,99.56462302214324,16
1767650161.4593658,1,left_wrist,0.1459,0.0527,-0.3475,45.92,40.53,44.31,0.06448381637207204,0.9349550423381384,-0.12290039540852207,0.32649103975608845,177.03462941943013,-38.78200857386038,-13.933304398662308,16
1767650161.4593658,2,right_wrist,0.2123,0.1547,-0.3109,-85.54,61.04,-34.93,0.05913066993727649,-0.6317528509914607,-0.7673766819018899,-0.09233053238325739,176.0732043288568,-11.97068193884573,101.48513855733272,16
1767650161.517288,1,left_wrist,0.3006,-0.4133,-0.3826,128.52,24.99,51.24,-0.04290611576663136,0.9188973934570362,-0.13284917368024557,0.36896848453514436,-166.27129238881733,-41.81197583175475,-21.718675664957708,16
1767650161.517288,2,right_wrist,0.4299,0.4919,-0.2718,-125.16,81.55,-45.57,0.04983164970155971,-0.614479035033781,-0.7707510236790106,-0.1608576441756242,168.8031407047817,-15.932391850083842,104.44478063942762,16
1767650161.572222,1,left_wrist,0.5353,0.0966,-0.528,70.0,66.08,73.85,-0.07448595758610718,0.9018607045115243,-0.15048819424893942,0.39806081843375535,-159.28272131185707,-44.072840144267126,-27.409460623758402,16
1767650161.572222,2,right_wrist,0.2962,0.4621,-0.529,-128.52,102.97,-47.18,0.04530447807989332,-0.5916412541585552,-0.7695795810606546,-0.2359139653732013,160.71591636364204,-20.41905065755746,108.40004534250669,16
1767650161.6317089,1,left_wrist,0.8594,-0.1825,-0.7847,51.94,119.28,72.38,-0.09504231046363086,0.8732157272796673,-0.1714999744425835,0.44614909124570634,-151.34734945443992,-48.29406745816267,-35.285853783627516,16
1767650161.6317089,2,right_wrist,0.6949,0.4748,-0.7149,-131.11,99.89,-25.13,0.043897182226653134,-0.5734273774781428,-0.7575024462890325,-0.30894032436253954,152.58337945404216,-24.885997328257467,111.91044650188383,16
1767650161.7117062,1,left_wrist,0.9677,-0.2103,-0.8843,115.85,133.7,71.4,-0.13883796211298294,0.8361466105624011,-0.17974350546406026,0.4992746119770297,-138.3529222439392,-51.722815250331976,-45.156056575825566,16
1767650161.7117062,2,right_wrist,0.8628,0.853,-0.7774,-105.91,100.52,-14.21,0.06182273069426698,-0.5297618473050172,-0.7242972602411045,-0.4369482966172421,137.09300236394438,-33.53959646433946,121.14239541732323,16
1767650161.766708,1,left_wrist,1.097,-0.4485,-0.7393,68.04,104.79,41.65,-0.19392054244085677,0.7664301970036046,-0.1932566124623044,0.5810606320170508,-115.55556197984632,-54.65980234715728,-64.38797695672287,16
1767650161.766708,2,right_wrist,1.0897,0.8613,-0.7125,-62.72,111.86,-7.28,0.08347302474922304,-0.5067631838778931,-0.7080092627164826,-0.4847125060412813,130.62203512706725,-37.5510642687641,126.577798460208,16
1767650161.818812,1,left_wrist,1.0209,-0.6456,-0.5348,63.07,98.63,39.55,-0.2153525827691145,0.7341939730559295,-0.1990685448790811,0.6123350304063504,-105.6929068727791,-54.430007742473826,-72.92136558273924,16
1767650161.818812,2,right_wrist,0.8716,0.832,-0.527,-74.48,91.84,-9.66,0.09412554242732828,-0.4853904490893377,-0.6883611813681731,-0.5307498263598636,123.2332950446121,-40.15267070414749,131.9634037037627,16
1767650162.6561658,1,left_wrist,0.5705,-0.4168,-0.4343,-51.38,-95.55,-73.99,-0.03637367193417094,0.9207755099975053,-0.049234273830115506,0.3852601750236851,-171.481672308306,-44.901863267885794,-9.646680315015633,17
1767650162.6561658,2,right_wrist,0.3265,0.3806,-0.4368,91.0,-84.7,29.4,0.048805076475288936,-0.6410246902469076,-0.7566288693062385,-0.1192399477375781,173.0489204530176,-13.104403413984478,100.25604909918061,17
1767650162.707478,1,left_wrist,0.3977,-0.1684,-0.4553,-34.37,-77.84,-57.61,-0.0188122478837567,0.9352018970394143,-0.03248380933867191,0.3521197427499481,-175.58087331159558,-41.100659215708674,-5.636061600012812,17
1767650162.707478,2,right_wrist,0.222,0.2401,-0.4787,70.7,-63.56,33.25,0.04854085000866489,-0.6527830346762364,-0.7515845613215886,-0.08147847999536442,176.5557864607145,-10.331356651816877,98.36006365134902,17
1767650162.760336,1,left_wrist,0.245,-0.1254,-0.3802,-28.21,-64.89,-48.02,-0.004755292194088166,0.9462453717465691,-0.01823604133208263,0.3229001864986771,-178.49623966951816,-37.65548868030251,-2.720895715684771,17
1767650162.760336,2,right_wrist,0.1464,0.243,-0.5656,68.32,-58.38,19.81,0.047260321119428794,-0.659062269019296,-0.7491981539971867,-0.045885876367714705,179.6266205970883,-7.544604640464951,97.3490747144796,17
1767650162.818571,1,left_wrist,-0.0068,-0.0815,-0.2528,14.56,-25.41,-12.39,0.014542068264356292,0.9581782450180454,-0.004077947347645388,0.28577324817092886,178.25085739515652,-33.21361341920072,0.03401360136405333,17
1767650162.818571,2,right_wrist,0.0376,0.0444,-0.4685,3.22,-49.21,4.34,0.02744063120593354,-0.6610882371197047,-0.7491169387190301,-0.032142909407981854,179.31713445323837,-4.796161401311944,97.17243406694989,17
1767650162.869832,1,left_wrist,-0.0342,0.0922,-0.2635,-26.32,-2.1,9.59,0.02639603708739844,0.959372710192933,-0.010723678489439645,0.2806995811945616,176.96257215124407,-32.62628156888798,-0.3916757277491591,17
1767650162.869832,2,right_wrist,-0.0625,0.0483,-0.3152,48.44,-22.12,-2.87,0.0294422652676637,-0.6597184351890951,-0.7508855232243309,-0.008698867724199437,-178.52025321017695,-3.1926342462004293,97.3545063861103,17
1767650162.9606998,1,left_wrist,0.0268,0.0044,-0.222,12.53,26.46,25.41,0.017825900079568673,0.9574632225407125,-0.01949829349389757,0.2873434031244376,178.4255526422332,-33.43129350438016,-1.8604287080138506,17
1767650162.9606998,2,right_wrist,-0.0771,-0.1976,-0.1635,-39.41,44.73,-18.76,0.036311371638723174,-0.6505035069611397,-0.7578965271794914,-0.03345931574673277,179.79986197038465,-5.656907208706084,98.7308232200408,17
1767650163.016565,1,left_wrist,0.1571,-0.0386,0.0005,113.68,80.5,52.64,-0.06388823903343721,0.9366206804618921,-0.03893395108631528,0.3422632631427408,-169.06728743293846,-39.5065819449052,-8.697022657391207,17
1767650163.016565,2,right_wrist,0.2176,0.2181,-0.2396,-101.15,76.79,-13.65,0.03278673829719031,-0.6451361359896464,-0.7577306469174366,-0.09256707057190026,174.2948026286655,-9.736876372894933,99.66382181163499,17
1767650163.0708349,1,left_wrist,0.5309,-0.223,-0.3841,81.06,110.04,57.96,-0.10596526649537148,0.9135195343886109,-0.0540971942501942,0.3890076042460317,-160.74929101157426,-44.36824439233094,-14.689955957388175,17
1767650163.0708349,2,right_wrist,0.3416,0.3396,-0.4089,-117.11,101.78,-31.22,0.03221993216513986,-0.630343987024497,-0.7581303071771955,-0.1639108639863321,167.5815579052462,-14.802874887147043,102.13607859886453,17
1767650163.158725,1,left_wrist,0.6822,-0.3436,-0.6847,141.05,123.41,54.11,-0.17226601833024965,0.8811309214679227,-0.05919345430548205,0.4363815453580915,-147.60106251311734,-48.471368341409544,-22.58841244150991,17
1767650163.158725,2,right_wrist,0.7471,0.7335,-0.7047,-126.35,114.17,-22.89,0.03534296961958212,-0.5946195758832594,-0.7418880658766931,-0.30786447048112175,152.82549716181492,-24.744056890928622,108.64542328798147,17
1767650163.222891,1,left_wrist,1.0541,-0.4338,-0.7296,81.62,104.58,45.15,-0.2477695064841276,0.819361815529701,-0.07946476325534718,0.5108246649382308,-126.10434454288867,-52.91316984362998,-39.47334575721127,17
1767650163.222891,2,right_wrist,0.854,0.6554,-0.7374,-99.19,111.79,-20.23,0.044457006250795586,-0.5727134186710655,-0.7292077993817182,-0.3718587097140382,145.66740889076254,-29.391449769491437,112.97191694017263,17
1767650163.305831,1,left_wrist,0.9941,-0.6066,-0.5661,81.97,114.94,52.92,-0.282859565032905,0.7837778457111206,-0.09251637168647558,0.545090337477927,-114.29931922210572,-53.33314017166421,-49.39781191879721,17
1767650163.305831,2,right_wrist,0.9179,0.976,-0.7608,-84.49,102.27,-9.73,0.06570764985386116,-0.5284290034092024,-0.6962086989479744,-0.4813925016198406,131.3012352228022,-36.88823410877765,122.76830709003224,17
1767650163.35968,1,left_wrist,1.0936,-0.4919,-0.6515,55.72,106.4,39.69,-0.30377082383094617,0.7514482416830532,-0.10472803801991783,0.5762645787422778,-104.68599770170124,-53.36367993025939,-58.262105331550195,17
1767650163.35968,2,right_wrist,0.9823,0.9765,-0.6349,-61.74,90.65,-9.59,0.07744011542514767,-0.5064618481406727,-0.6804579708906863,-0.5239049291161555,124.67987334013924,-39.49903357132522,127.99366017126327,17
1767650163.41974,1,left_wrist,0.8691,-0.7481,-0.4187,74.06,71.89,42.56,-0.35897032654465016,0.6924186942301128,-0.11923143907044051,0.6143944339577668,-88.87132982979055,-49.927928656639146,-70.3376795751064,17
1767650163.41974,2,right_wrist,0.8408,0.7588,-0.487,-46.41,84.7,-22.89,0.08978959955240133,-0.48156070034674847,-0.6691489120339845,-0.5588173701823372,118.51463479832596,-41.175997144357765,133.70562420169034,17
1767650164.2105432,1,left_wrist,0.8535,-0.6046,-0.283,-90.79,-132.3,-87.36,-0.15410672051984614,0.8817423423497495,0.005949661680705816,0.4458095579101912,-154.35435866306995,-52.00012468331097,-11.896266203709908,18
1767650164.2105432,2,right_wrist,0.5646,0.732,-0.2962,97.23,-138.32,6.93,0.008209143980637455,-0.6350074466325052,-0.7480498331220083,-0.19266447478065726,163.29327614536325,-14.890256423378611,101.54375712754128,18
1767650164.273957,1,left_wrist,0.4231,-0.3494,-0.3714,-82.25,-91.49,-64.54,-0.06713696730961584,0.9252290448867754,0.03925258207278806,0.37135303542450265,-172.42709869987297,-43.823871652677035,1.808759720079121,18
1767650164.273957,2,right_wrist,0.3714,0.5822,-0.3445,75.95,-113.89,13.37,-0.007493347661982667,-0.6471380813087673,-0.7495419867907713,-0.1390789829505775,167.21077862125227,-9.716512798391495,99.47833100112196,18
1767650164.3603141,1,left_wrist,0.2752,-0.144,-0.365,-31.92,-80.64,-40.18,-0.05015414951201716,0.9385491934975185,0.05092508177448171,0.3376634548158062,-175.54499450949186,-39.71250562008311,4.602025590503607,18
1767650164.3603141,2,right_wrist,0.0537,0.3084,-0.408,85.12,-60.41,8.61,-0.007862151204246283,-0.6602190216641411,-0.7492013307932476,-0.052406067863491286,174.89082502426723,-3.2916364791725456,97.37192980907399,18
1767650164.4218261,1,left_wrist,-0.0332,0.0386,-0.2655,-3.43,-1.12,-8.26,-0.02629588036431381,0.9485854758335855,0.058857448954136984,0.30988695102576863,-179.04751302618828,-36.22828314245134,6.789440042766111,18
1767650164.4218261,2,right_wrist,0.0171,0.0834,-0.4172,33.53,-36.26,5.39,-0.01370416045105153,-0.6625449163765494,-0.7481183455227917,-0.03413752864757023,176.02861537614322,-1.4171048812569145,96.99196154900713,18
1767650164.476126,1,left_wrist,-0.0142,0.1283,-0.3157,-27.44,2.38,4.48,-0.012778801147248534,0.9498179846097925,0.054146439063177586,0.3078159539234587,179.35935511876536,-35.882301632585616,6.732911016347604,18
1767650164.476126,2,right_wrist,-0.0503,-0.0283,-0.3792,45.71,-10.22,1.54,-0.004318273696288192,-0.6633146837602728,-0.748242260530937,-0.011335888842375252,178.69964284545458,-0.4913914340112969,96.89177815743288,18
1767650164.566717,1,left_wrist,0.1015,0.0986,-0.2738,8.05,24.36,19.04,-0.015403096775877529,0.9477949422853456,0.048457016889161604,0.3148005868835617,179.9062877951885,-36.74291991229239,5.884639917167302,18
1767650164.566717,2,right_wrist,0.039,-0.0127,-0.3704,-9.17,38.64,-9.59,0.011450642302028366,-0.6579308188936764,-0.752387522615867,-0.03014856800455875,178.2608906591644,-3.26200550234523,97.71289949613123,18
1767650164.619445,1,left_wrist,0.2323,0.1078,-0.4153,24.15,55.44,48.72,-0.03977127859826821,0.9356160746574831,0.022208752399785866,0.350067961341833,-175.52205676662388,-41.05817372056454,1.041993135753864,18
1767650164.619445,2,right_wrist,0.1386,0.1181,-0.3904,-50.82,60.13,-23.03,0.016805560681041172,-0.6491679188907455,-0.757342939769383,-0.06877686961997329,175.24450829986134,-6.58924141204942,99.06985165381417,18
1767650164.67487,1,left_wrist,0.4221,-0.0371,-0.3475,107.38,65.24,54.53,-0.0929394288806533,0.9211261070446095,0.015144562177781911,0.377703057595016,-167.09606332639987,-44.31794038586998,-3.38995149134487,18
1767650164.67487,2,right_wrist,0.2811,0.1659,-0.3753,-90.51,68.39,-27.16,0.014297229955409314,-0.637658691375507,-0.7604588236367936,-0.12202196557104904,170.20939960835668,-10.216120538716886,100.91639307713817,18
1767650164.7599602,1,left_wrist,0.3411,-0.2338,-0.367,140.7,93.73,57.19,-0.1634426996153684,0.8973180328751941,0.00962619849835996,0.40989531361300385,-154.94398195487588,-47.62585747047006,-9.972357829083613,18
1767650164.7599602,2,right_wrist,0.5939,0.4963,-0.7613,-91.77,105.42,-14.28,0.011212651630950404,-0.6104360166094157,-0.7510193657486376,-0.2514200834061313,157.37631661026873,-18.89250074565623,105.60325616601233,18
1767650164.813838,1,left_wrist,0.6364,-0.2474,-0.6217,73.57,111.65,51.03,-0.20010939763224522,0.8726716080054164,-0.005120062640661807,0.4453922748758183,-145.92915707796362,-50.833440638354695,-17.240673781662892,18
1767650164.813838,2,right_wrist,0.6456,0.7203,-0.8023,-102.27,103.04,-6.51,0.01719888661033535,-0.5955000156933333,-0.7385637353673289,-0.3156066197164798,150.88221200585286,-23.659000154898663,108.46917630576061,18
1767650164.873929,1,left_wrist,0.9179,-0.284,-0.8203,85.26,100.52,62.23,-0.2711242944531156,0.8145612364481134,-0.034734494970336725,0.5116396426124314,-124.61697331118961,-54.55661351456723,-35.16984133921291,18
1767650164.873929,2,right_wrist,0.7691,0.7554,-0.7676,-82.11,105.84,-3.85,0.030197965205244745,-0.5785367294408795,-0.7249766908846244,-0.3725481623351448,144.96414493773574,-28.34966423849968,111.93598469229487,18
1767650164.965226,1,left_wrist,0.9623,-0.405,-0.6647,70.56,92.61,45.99,-0.30188607601206063,0.7861273287267949,-0.045257023356259224,0.5374201540469478,-114.64612721882384,-54.84888445221829,-43.407480805079075,18
1767650164.965226,2,right_wrist,0.8057,0.7218,-0.5641,-58.03,91.0,-6.37,0.0645030635098522,-0.5385246157521024,-0.6979233761027696,-0.4676895916269748,133.5327005311896,-36.424364526621,120.7710154998351,18
1767650165.023974,1,left_wrist,0.9721,-0.5329,-0.4358,44.73,85.05,38.92,-0.3464263451385301,0.7325993652188415,-0.06777918264559668,0.5819733154319064,-98.0160979160748,-53.68232096708642,-58.04845354496056,18
1767650165.023974,2,right_wrist,0.7764,0.7681,-0.4929,-67.9,90.44,-11.34,0.07407687123243717,-0.5166522534314361,-0.6818367487981337,-0.512524842481828,126.68576934040807,-39.09520770690311,125.90756860355268,18
1767650165.9208581,1,left_wrist,0.4841,-0.3109,-0.4368,-49.28,-108.5,-71.89,-0.0652432903880527,0.9183581517467533,0.08904434674778566,0.3800430534714296,-175.7550061122198,-45.2064751560542,9.308245878239514,19
1767650165.9208581,2,right_wrist,0.4046,0.3636,-0.2664,129.85,-99.4,33.18,0.06275368545320134,-0.654903980941809,-0.7467855214206681,-0.09733517198357479,176.28538560772037,-12.780550962124995,97.91697683454674,19
1767650165.972899,1,left_wrist,0.3109,-0.1571,-0.4031,-7.0,-83.37,-54.74,-0.05388340313411342,0.93032110298013,0.11041252117127129,0.3455550598459302,-178.18394638727872,-40.90851470608872,12.859263067409811,19
1767650165.972899,2,right_wrist,0.2513,0.3475,-0.3875,89.67,-73.15,31.71,0.06482109894906103,-0.6646871745380214,-0.7426358524047615,-0.04981140289884567,-179.29225264619149,-9.351741552126153,96.28262004488283,19
1767650166.024213,1,left_wrist,0.1371,-0.0151,-0.3553,-21.91,-58.52,-36.19,-0.03638061773215191,0.9389690293061651,0.12314426664027069,0.31913806142623435,179.25794057997723,-37.46535782686456,15.194861008501775,19
1767650166.024213,2,right_wrist,0.1332,0.0249,-0.4568,26.25,-64.33,19.6,0.053627910767860804,-0.6710816622628598,-0.7389638119172969,-0.026569426750481427,-178.11303060268503,-6.598934709801086,95.40359562950422,19
1767650166.1117702,1,left_wrist,0.0742,0.042,-0.3387,-31.08,-37.66,-18.06,-0.017368904689087222,0.9448401698943166,0.1273811305319837,0.30124644742863627,176.92592897918092,-35.007554029219854,16.326056336357194,19
1767650166.1117702,2,right_wrist,0.0307,0.0547,-0.4729,4.62,-28.56,6.86,0.052390813306491965,-0.6762746109625969,-0.7346024585793622,0.01634261599710848,-174.547820422415,-3.1453215057008173,94.58489413973987,19
1767650166.168873,1,left_wrist,-0.019,-0.0171,-0.2938,-13.37,3.5,13.3,-0.008304363311276155,0.95019773813882,0.12094736680967923,0.28710108054075595,176.32261011107417,-33.20350266720501,15.604687940571,19
1767650166.168873,2,right_wrist,-0.0166,-0.0815,-0.4616,1.12,-5.81,-0.91,0.050365473700801196,-0.6760568825284238,-0.734756228919458,0.023317262036952367,-174.1193058026128,-2.43494980946903,94.63994669216036,19
1767650166.228281,1,left_wrist,-0.0137,0.2196,-0.2855,30.24,25.13,25.13,-0.021740603208970144,0.9487284903203983,0.1153413249269582,0.293492719825521,178.16751360788783,-34.18764313310634,14.42696620329763,19
1767650166.228281,2,right_wrist,0.0381,-0.0132,-0.4089,-4.34,11.2,-11.83,0.052187963758131194,-0.6723556667489639,-0.7382645495678202,0.01340629258071905,-174.8289317899626,-3.384105804701771,95.19734939185027,19
1767650166.309976,1,left_wrist,0.1235,0.0825,-0.2928,11.41,46.48,30.59,-0.028741547394555013,0.9447652067781815,0.10493963554432129,0.309160638514303,179.24916811614017,-36.17125065076642,12.921481107773596,19
1767650166.309976,2,right_wrist,0.1815,0.1059,-0.3372,-64.26,51.1,-25.13,0.0467281768498817,-0.6594328771936712,-0.7479778068715079,-0.05910971487033261,178.44737261620745,-8.502991976116808,97.31527828869544,19
1767650166.360356,1,left_wrist,0.3138,-0.0015,-0.3748,37.38,59.36,49.07,-0.054741939847841876,0.9364900101724849,0.08846711020071796,0.334907974347534,-176.78203510634157,-39.56562996190332,9.635342148334562,19
1767650166.360356,2,right_wrist,0.2172,0.1654,-0.4246,-103.6,74.83,-40.18,0.04045595941421643,-0.644879855451231,-0.7537972579660829,-0.11951142733600503,172.46884915838282,-12.423283683730379,99.72633200310632,19
1767650166.419853,1,left_wrist,0.4651,-0.2191,-0.6144,81.2,106.05,65.66,-0.1626912237726107,0.9033450483684806,0.05717272971053357,0.3927219987127839,-158.69640725801577,-46.72984929073201,-2.0476726737070434,19
1767650166.419853,2,right_wrist,0.4524,0.2713,-0.5993,-87.36,83.51,-29.12,0.04302876025008598,-0.631048242226482,-0.7543013819954909,-0.17594336274466413,167.2679399683354,-16.67668922596787,102.04198106547176,19
1767650166.511745,1,left_wrist,0.632,-0.2235,-0.7149,114.87,115.71,64.05,-0.21984489729549672,0.8764706695621105,0.04333083199220152,0.426133577096832,-147.17464061775883,-49.999540484488854,-9.981012733262412,19
1767650166.511745,2,right_wrist,0.649,0.5729,-0.7218,-105.14,109.76,-14.28,0.05468833873993876,-0.6013644669779447,-0.7327615932928472,-0.3137362122183641,153.69811423427652,-27.225044065551693,107.72629300916434,19
1767650166.572952,1,left_wrist,0.9248,-0.53,-0.7452,75.74,104.44,50.33,-0.2885329274104621,0.8243522160461664,0.00741113126578251,0.4869674001748834,-127.47996962674218,-53.81763170180822,-27.084653687702303,19
1767650166.572952,2,right_wrist,0.8081,0.7764,-0.8218,-68.46,115.08,-8.47,0.07234822999973406,-0.5824477833110254,-0.7206252623185812,-0.3690793202554896,148.0247972807655,-32.290404841397866,111.5887783508572,19
1767650166.623769,1,left_wrist,0.915,-0.3553,-0.6207,59.43,109.06,56.28,-0.31849952029158457,0.7947430243685445,-0.012520010691127391,0.5165121780983132,-116.91310780904472,-54.391428545419714,-36.81719313412431,19
1767650166.623769,2,right_wrist,0.8101,0.774,-0.6486,-101.5,101.99,-15.33,0.07595447599656781,-0.562011570781232,-0.7024489984560939,-0.4300457143747972,140.01398072278081,-36.16336859642949,116.22400662973628,19
1767650166.711112,1,left_wrist,1.0258,-0.3294,-0.6124,32.97,100.59,45.99,-0.33596583978595596,0.7685416972423652,-0.0331936070938616,0.5434784250960111,-108.37461497146624,-54.396758508144146,-45.636287580103726,19
1767650166.711112,2,right_wrist,0.7906,0.7418,-0.5519,-87.08,76.37,-25.2,0.09387473683303932,-0.516417484585879,-0.6787721444884872,-0.5135843565228806,127.15260460851516,-41.13892149536249,126.59754996405933,19
1767650167.720651,1,left_wrist,0.4626,-0.2108,-0.5861,-18.97,-98.07,-42.77,-0.10780864574020486,0.919084198319815,0.16258655781897197,0.34238449661026443,-173.32771761542327,-41.63760206085522,17.52422178289087,20
1767650167.720651,2,right_wrist,0.3811,0.1732,-0.5993,67.55,-95.41,21.49,0.07620557081258515,-0.648392234665962,-0.7530245492964716,-0.0820624710745054,178.54470521307812,-12.77874134254309,98.70274156163177,20
1767650167.771038,1,left_wrist,0.2289,-0.144,-0.4704,-39.48,-73.99,-36.75,-0.08296663231746558,0.930076680346264,0.17385695991458422,0.3128061126116794,-176.7013363368748,-37.641292056557056,20.0513766521562,20
1767650167.771038,2,right_wrist,0.3196,0.2113,-0.629,91.56,-83.44,24.43,0.07552419761117117,-0.6550435580968157,-0.7511342821918925,-0.03180130008541499,-177.0309709082788,-8.9237618067671,97.58669208394758,20
1767650167.856287,1,left_wrist,0.1889,0.0005,-0.5275,-49.14,-42.91,-26.74,-0.054619145293350255,0.9366068065106316,0.1798478322684863,0.295701194102605,179.71678735651776,-34.998694524025254,21.82862424644972,20
1767650167.856287,2,right_wrist,0.0771,0.0156,-0.4743,42.07,-47.67,13.02,0.060514723568413295,-0.6635594632530757,-0.7453108018087161,0.023208094837302774,-173.39014534697014,-3.4056409062032036,96.44514133748493,20
1767650167.927488,1,left_wrist,0.0825,0.1039,-0.3592,-14.0,-23.66,-4.62,-0.017967380102096135,0.944788691513791,0.18588799079731846,0.26925296009006383,175.57255998553075,-31.027815439765813,23.491198728805802,20
1767650167.927488,2,right_wrist,0.0151,0.0752,-0.4973,48.58,-31.08,2.38,0.060776076242844666,-0.6626934888595241,-0.7450773408569511,0.044758960234240495,-171.5282639322842,-1.7903725884839916,96.56573384787606,20
1767650168.0077949,1,left_wrist,0.02,0.1972,-0.2738,-8.05,-2.31,4.48,-0.0109575355754465,0.9458262590032824,0.1842865198011492,0.26707882509392067,174.81934635853236,-30.614483648861114,23.469821208929883,20
1767650168.0077949,2,right_wrist,-0.019,-0.1191,-0.3196,-13.79,15.96,-10.01,0.05841964695703796,-0.6597939428148732,-0.7476849990855273,0.04718304798011527,-171.5067733038351,-1.438092216508461,97.03968573741251,20
1767650168.059965,1,left_wrist,-0.0346,0.1327,-0.1698,17.22,33.39,22.26,-0.019893812684466987,0.9440251934115225,0.1779600653843631,0.27703950178558684,175.87152980186062,-32.01526234449358,22.536202132596824,20
1767650168.059965,2,right_wrist,0.0449,-0.0634,-0.4128,-46.9,42.63,-8.89,0.06284906672180339,-0.6583161982763063,-0.7499368350363997,0.01626411248169153,-173.8328878856918,-4.177801946544125,97.21965111150813,20
1767650168.119678,1,left_wrist,0.2948,0.0708,-0.4421,63.0,57.96,43.4,-0.0621243300836948,0.9335133496568835,0.1597602223418766,0.31491278948513857,-178.89118005894207,-37.430639886286464,19.04722670485258,20
1767650168.119678,2,right_wrist,0.1503,0.0156,-0.3914,-76.16,49.35,-25.83,0.05909259813616559,-0.651365732963979,-0.755944031585288,-0.02791716096591957,-177.9912435185439,-7.221756784216745,98.37299052237502,20
1767650168.213297,1,left_wrist,0.4055,0.0264,-0.3577,207.2,57.89,57.12,-0.15740749505612772,0.9182863360947391,0.16285278465686337,0.3247338232635466,-166.0777627491426,-40.365840750341015,14.973478222013114,20
1767650168.213297,2,right_wrist,0.3367,0.2806,-0.4699,-129.64,92.68,-22.75,0.03466520706527734,-0.6271953911450869,-0.7589535999166689,-0.17150422128627585,166.99352098485275,-15.530534402612464,102.64083893050613,20
1767650168.267964,1,left_wrist,0.7032,-0.161,-0.7061,76.86,111.02,38.43,-0.2853067703010618,0.8688014904724918,0.14549982559179114,0.3776424469334882,-145.0445459864975,-47.66474265405317,3.1777664285385443,20
1767650168.267964,2,right_wrist,0.5431,0.671,-0.7452,-113.26,113.89,-10.29,0.04005669282902743,-0.6146844316218573,-0.7491323756851483,-0.24363742442744923,160.21944880701415,-21.071690313809356,104.97488406824982,20
1767650168.323898,1,left_wrist,0.9926,-0.7901,-0.753,75.32,135.87,31.57,-0.3307622043648159,0.8366947869572232,0.12643826320887275,0.41779368501577274,-133.97429384366646,-51.51522924280947,-5.976994761219187,20
1767650168.323898,2,right_wrist,0.854,0.6549,-0.8262,-120.82,115.85,-7.21,0.04569021964239312,-0.5998120636448645,-0.7331909535255982,-0.31712602826533054,152.69725319289532,-26.579000844716973,107.9943575009788,20
1767650168.411131,1,left_wrist,0.9682,-0.3899,-0.8135,64.82,131.46,54.6,-0.36754486077343834,0.8066580544429335,0.1005036233426435,0.45178820283001553,-122.63690595894612,-53.39412795160309,-16.560172980085593,20
1767650168.411131,2,right_wrist,0.9575,0.7139,-0.7725,-75.39,104.79,-16.59,0.07942353757828159,-0.5564044291419306,-0.7101015787357595,-0.4241011209449648,140.68947621815522,-35.78469799693386,116.99412203253736,20
1767650168.462594,1,left_wrist,0.9921,-0.3972,-0.7666,67.27,93.66,31.71,-0.3979180180900919,0.780036476683746,0.08886026844491558,0.474666407715944,-113.45171538706306,-54.21651835213893,-24.13946420202583,20
1767650168.462594,2,right_wrist,0.8774,0.7096,-0.5324,-73.57,94.85,-25.41,0.08722072093317355,-0.5318236340536427,-0.6968344743771633,-0.4732630171705552,133.444436829109,-38.67791040730231,122.47023471627283,20
1767650168.5167391,1,left_wrist,0.8818,-0.6271,-0.5368,90.65,68.74,26.11,-0.4626788127403305,0.7225888487992785,0.0753446356962748,0.5080520226354063,-95.36676030077032,-53.508605014985406,-37.40433791852048,20
1767650168.5167391,2,right_wrist,0.7271,0.5222,-0.4685,-61.32,105.35,-20.37,0.10395343811767667,-0.5058128468118052,-0.6817813836706451,-0.5181903044092896,126.27250670444408,-41.756143978258024,128.72675852627282,20
1767650168.570663,1,left_wrist,0.9716,-0.5119,-0.3816,79.94,75.67,27.65,-0.493141625703102,0.6922914808796354,0.07053190729071328,0.5220814999157867,-87.03833024064524,-52.41314350866559,-43.16319428285306,20
1767650168.570663,2,right_wrist,0.9404,0.754,-0.3665,-65.66,85.47,-3.36,0.11557264201590066,-0.4872161309126753,-0.6610739223077989,-0.5587885784807431,119.11867436391422,-44.21124068475183,134.06825575964476,20
1767650169.3779461,1,left_wrist,0.5553,-0.3455,-0.5251,-105.35,-96.88,-58.59,-0.167154904359254,0.8940640409523366,0.2224639567720972,0.35102495148055995,-168.43939535627533,-44.5916642890397,23.191756518349063,21
1767650169.3779461,2,right_wrist,0.4626,0.3982,-0.5758,89.04,-102.06,29.12,0.0457058642397939,-0.6512224659351366,-0.7427009941126307,-0.14904867386046572,170.34426576400773,-15.189912369263208,98.79997791838079,21
1767650169.428222,1,left_wrist,0.3548,-0.2284,-0.4465,-72.52,-86.73,-55.79,-0.1251390289574384,0.9069187779709481,0.2374357448638528,0.32475039746891626,-174.5147085244253,-40.42630218587306,27.32111476929793,21
