timestamp,node_id,node_name,ax,ay,az,gx,gy,gz,qw,qx,qy,qz,roll,pitch,yaw,rep_number
1767482338.842913,1,left_wrist,-0.0395,0.4041,-0.9023,-1.54,1.61,-0.91,-0.0845541708300456,-0.4926042208023998,0.8445359053229552,0.1922258527442149,155.89376579111,2.668912471022061,-120.06132956503005,1
1767482338.842913,2,right_wrist,0.0254,0.1527,-0.9882,-7.14,-8.26,-0.7,0.06509624666236806,0.991540114701548,-0.11229350645906758,-0.0009208774296542155,172.57036615991555,-0.7330391545231847,-12.875022641850196,1
1767482338.9205241,1,left_wrist,-0.0288,0.4002,-0.9018,-1.54,-1.26,2.17,-0.09109980047263883,-0.49015098949878505,0.846152742807155,0.18835702717747413,155.90488666907981,1.74653549985865,-120.20791985186558,1
1767482338.9205241,2,right_wrist,0.0537,0.1376,-0.9799,-0.63,-8.05,-2.87,0.06665453155558627,0.9915183745767486,-0.11157266520487849,0.00016333667020583002,172.4057334810667,-0.8707890014787704,-12.782842462271438,1
1767482338.987885,1,left_wrist,-0.021,0.3904,-0.9111,-3.57,-2.94,4.13,-0.09118944548273952,-0.4883002042230358,0.8478369596248924,0.18552596983255668,156.18469951660757,1.5217928756584387,-120.44250595921869,1
1767482338.987885,2,right_wrist,0.1088,0.1147,-1.0565,-15.68,-24.78,5.95,0.07464084555509347,0.9904270127572727,-0.11563439186917146,-0.01057184906119477,171.35577017431905,0.21080266073894605,-13.33443588299774,1
1767482339.0433578,1,left_wrist,-0.0239,0.4119,-0.9052,-8.75,-7.07,3.64,-0.0937828089762533,-0.4853189203275455,0.8474837523118383,0.193498371776291,155.21735003904746,1.6536727920454097,-120.76737726313627,1
1767482339.0433578,2,right_wrist,0.1986,0.1132,-1.0843,-4.83,-41.02,10.92,0.07405990308041044,0.9894853465703838,-0.12202781074196214,-0.02330435761250314,171.23919092170067,1.6070080896329246,-14.184060115414416,1
1767482339.120547,1,left_wrist,-0.0727,0.4865,-0.9174,-1.96,2.24,4.41,-0.09385497041767656,-0.48194655769851236,0.8466762768682707,0.2050805749917208,154.019270449356,2.2205496039459724,-121.21337467703862,1
1767482339.120547,2,right_wrist,0.141,0.0932,-0.9394,-4.97,-43.47,22.61,0.0732674500884234,0.9876553887799071,-0.13349109335741413,-0.036726581188467985,171.09777782392595,3.037256788170153,-15.631339890826888,1
1767482339.171458,1,left_wrist,-0.0224,0.4241,-0.8769,4.06,-3.15,0.49,-0.09560124649012439,-0.4808503398091406,0.8480535995896893,0.2011179867588665,154.3247843958399,1.7916641282011192,-121.30144746735891,1
1767482339.171458,2,right_wrist,0.0537,0.1693,-0.8784,-23.31,-41.09,35.21,0.08357128237557936,0.983872574697612,-0.14997584437899858,-0.0501781189643411,169.63099239387483,4.224830645746815,-17.717745829426526,1
1767482339.24106,1,left_wrist,0.0547,0.4773,-0.9745,10.22,2.73,-2.38,-0.09869234868432727,-0.48140733353229037,0.848839767419055,0.1948790619344881,154.78915466972407,1.1508309416390832,-121.13912428444702,1
1767482339.24106,2,right_wrist,-0.0122,0.3675,-0.7706,-5.67,-13.79,14.91,0.10572777316780121,0.977139726131744,-0.17165965639376934,-0.06747263121393063,166.65330825434813,5.4836666523987665,-20.569685696827285,1
1767482339.31599,1,left_wrist,0.1518,0.4778,-0.9052,61.11,-21.21,-20.93,-0.08409422408053616,-0.48948367158259953,0.8509435862527075,0.17096464472425707,158.07467580529467,1.389554441248221,-120.45203231696078,1
1767482339.31599,2,right_wrist,-0.04,0.4124,-0.835,-10.43,-4.27,-5.81,0.1142441020997229,0.9764017590357573,-0.16930052280460345,-0.07017993349523154,165.63712302168926,5.644995926453115,-20.38552285423846,1
1767482339.367509,1,left_wrist,0.0459,0.266,-0.7852,53.34,-19.39,-20.3,-0.06604687108156557,-0.49699221911697816,0.8518525941665446,0.15160376898100233,161.08446675296366,2.1873616664850464,-119.84370122186382,1
1767482339.367509,2,right_wrist,-0.0322,0.2367,-0.8447,1.12,5.53,-21.77,0.11601842169189358,0.9780758870083569,-0.16043361046569074,-0.06456269599297204,165.6021254770144,5.10998770613927,-19.276391893003254,1
1767482339.4355211,1,left_wrist,0.0224,0.2889,-0.915,38.15,-5.18,-10.64,-0.058197987872370946,-0.5011785084336234,0.8527658116974465,0.13499469356923252,163.21622907054228,2.0662110270062763,-119.41853402510328,1
1767482339.4355211,2,right_wrist,-0.0625,0.1601,-0.8691,12.32,24.85,-29.96,0.0974337989543859,0.9849651255435842,-0.13363879622390631,-0.04991020364668077,168.12273068675162,4.144824125199642,-15.884607763746448,1
1767482339.4875,1,left_wrist,0.04,0.1371,-0.936,38.85,-23.1,-8.47,-0.04041776274364797,-0.5039404096420007,0.8542841827000714,0.1208677093897357,165.6649398290294,3.0245438377567853,-119.30790740939916,1
1767482339.4875,2,right_wrist,-0.0112,-0.0176,-0.9804,49.42,24.22,-24.36,0.07246455252911997,0.9890897739046886,-0.12319082870487262,-0.035697724114195736,171.2365510707598,3.0244770552985356,-14.431026426003974,1
1767482339.542187,1,left_wrist,0.0927,0.2889,-0.8799,48.37,-46.76,5.39,-0.01742207527898273,-0.4995635083207167,0.8587730404820174,0.11243503630337875,167.80509911380483,4.72731686072662,-120.13062885527255,1
1767482339.542187,2,right_wrist,-0.0508,0.081,-0.974,58.52,31.15,-28.84,0.043499368382780096,0.9927325466964686,-0.11052714974885537,-0.019329895194686544,174.79744723013044,1.6482321165702463,-12.780758491350298,1
1767482339.615937,1,left_wrist,-0.1737,0.0786,-0.7125,-2.87,-4.69,18.76,-0.005136534051936506,-0.49128913858389717,0.8634061276757271,0.11462310857515397,168.22428641623665,5.955519102796946,-121.333854554632,1
1767482339.615937,2,right_wrist,-0.161,0.0639,-0.9126,43.4,49.28,-49.7,0.025393379063356643,0.9957843068490447,-0.0881263762364911,-0.0015913341373627995,177.0850702955238,-0.07485133264905362,-10.113034642434387,1
1767482339.6929321,1,left_wrist,-0.2523,0.1391,-0.8823,-17.08,11.83,38.92,-0.010488686209252687,-0.4775212618301609,0.8703845795115055,0.11955800144831207,167.3408506622466,5.5045381916422365,-123.10983978095969,1
1767482339.6929321,2,right_wrist,-0.1225,0.0952,-0.9438,71.89,88.27,-66.43,-0.0172096856850657,0.9976031871538554,-0.027151612482202082,0.061273955631306554,-177.82541679548274,-6.968269177963915,-3.2504657311411695,1
1767482339.768192,1,left_wrist,-0.2948,0.2528,-0.7032,-101.15,86.38,77.28,-0.10235168917667699,-0.42807383320567877,0.8824520855391144,0.1659977161738831,157.61173953286914,-2.207715239211537,-127.80738278779882,1
1767482339.768192,2,right_wrist,-0.2035,0.0381,-0.8262,34.23,107.94,-56.49,-0.02835195971985036,0.9941432877711895,-0.002456920142841164,0.1042557111286737,-176.666636899512,-11.955440558522099,-0.6323378829226931,1
1767482339.8209999,1,left_wrist,-0.2899,0.2879,-0.8159,-100.38,107.52,102.55,-0.1650618387470904,-0.3916852304803502,0.8868900929761522,0.18100616728094288,152.89691364527417,-8.684217903938897,-130.2468135262026,1
1767482339.8209999,2,right_wrist,-0.04,0.0449,-0.9662,77.14,140.7,-66.57,-0.05660173163322851,0.9848914914972091,0.02819193751200043,0.16121479030114583,-173.79330014720577,-18.70826208351867,2.2558383942139795,1
1767482339.885412,1,left_wrist,-0.1913,0.2396,-0.6608,-148.82,178.78,132.51,-0.26383949813604124,-0.34281225048269387,0.8795720807587728,0.1980440226111247,145.91996678348445,-19.168529086840177,-131.48822858348439,1
1767482339.885412,2,right_wrist,0.4168,-0.2611,-0.8564,158.97,142.73,-78.19,-0.16336163481795862,0.9400202917209152,0.10990605818194665,0.2785596629044416,-162.74018731185646,-34.028992561417844,8.019240652485268,1
1767482339.9376,1,left_wrist,0.1688,0.5866,-0.5763,-147.7,205.24,139.16,-0.37362519564426194,-0.28861660602430517,0.856028305018087,0.2105236540502254,137.6569600657877,-31.207986946039775,-130.3892288300228,1
1767482339.9376,2,right_wrist,0.5568,-0.3372,-0.9213,83.65,111.72,-80.22,-0.19494961588204213,0.9155487672856012,0.14341659401005674,0.3212425603057836,-159.74341569633148,-40.101561787261595,10.345000919241503,1
1767482340.018765,1,left_wrist,0.8974,0.9257,-0.4519,-50.75,146.86,100.38,-0.5286264107095255,-0.2160516301982684,0.7969712636336211,0.19675521830758108,123.85984031839924,-49.251453688782284,-122.19187589718973,1
1767482340.018765,2,right_wrist,0.6686,-0.1176,-0.4455,147.56,117.88,-67.62,-0.250309313507805,0.8773225735174289,0.18126984088726947,0.36713974771564967,-153.16684715488515,-47.30274086192186,11.419907819198038,1
1767482340.089838,1,left_wrist,1.0731,0.6749,-0.4577,-64.4,89.18,60.62,-0.5726893374101604,-0.18483105746105916,0.7748155788049226,0.19371427891544568,117.72251029536964,-54.67133740491636,-118.47792679700919,1
1767482340.089838,2,right_wrist,1.0712,-0.2094,-0.205,46.48,123.41,-56.98,-0.3006764150101264,0.8023314978960105,0.225838364857912,0.46352442643177594,-144.95994568769743,-61.59523740998353,10.128293855022333,1
1767482340.141842,1,left_wrist,1.2307,0.7813,-0.3382,-128.03,63.07,71.82,-0.6115058894522668,-0.13310422336813774,0.7498346806057685,0.21468992674925863,108.2596309770117,-59.305847781613124,-115.11894625552499,1
1767482340.141842,2,right_wrist,1.1771,-0.2977,-0.2586,96.46,125.86,-37.17,-0.3394070880040007,0.756376345244731,0.2412282420755721,0.5044864598698338,-133.97933912681552,-67.95851838158279,3.432080440539236,1
1767482340.195643,1,left_wrist,1.3283,0.6964,-0.1976,-89.32,24.71,67.62,-0.6330558657996972,-0.08702915440820512,0.7362322918659354,0.2227738976483122,102.75822395922869,-63.30067657615632,-114.08129153428746,1
1767482340.195643,2,right_wrist,1.2732,-0.3933,-0.0717,83.58,124.81,-65.24,-0.3665125846536895,0.7056178609171432,0.26125303731980326,0.5472831169845865,-119.77124467307164,-74.54725604058254,-7.002466690360543,1
1767482340.2633522,1,left_wrist,1.0185,0.5251,-0.123,-21.21,28.63,51.94,-0.6580151054614134,-0.03355554430989379,0.7192462616627409,0.22039728109675966,95.83029521799918,-68.71064624957855,-111.28166194047722,1
1767482340.2633522,2,right_wrist,1.3898,-0.2562,-0.1274,10.22,108.22,-70.21,-0.3636173388951614,0.6664501623834574,0.2689433418120797,0.5927023627494794,-101.24377970462729,-80.2642326974322,-25.409041907100796,1
1767482340.314495,1,left_wrist,0.9043,0.3309,-0.081,-0.28,28.14,46.41,-0.6690576536216135,-0.020801337949261207,0.7140739116821625,0.20500636362024652,93.6884888848965,-71.2596792738256,-108.86047597283482,1
1767482340.314495,2,right_wrist,1.2961,-0.1606,-0.0176,-1.68,54.95,-45.92,-0.35560327087186167,0.6443685771145757,0.2751940055760544,0.6185496826186051,-81.26046342978437,-83.15285007755456,-45.65748718358815,1
1767482340.367074,1,left_wrist,0.9179,0.3558,-0.0234,-2.31,23.87,54.04,-0.6799078477082666,-0.008917022819401457,0.7073817239201616,0.1930204703975488,90.18820365125765,-73.42887612417091,-105.30699907831242,1
1767482340.367074,2,right_wrist,1.1336,-0.0937,0.1137,13.86,40.95,-32.97,-0.3556668044962223,0.6243330188252196,0.2817875963584611,0.6358499479614312,-54.307316913937306,-83.93855370176978,-72.02821082759294,1
1767482340.4204302,1,left_wrist,1.0224,0.3289,-0.0059,13.79,29.33,56.49,-0.6918488369579343,-0.0014564400032182731,0.7005280345691879,0.17493867029648288,85.71473368867875,-75.65222441559408,-99.9189902362371,1
1767482340.4204302,2,right_wrist,1.1434,-0.0932,0.1122,10.22,23.73,-32.62,-0.35312915342897505,0.6095115588187928,0.28904546521130525,0.6482655163631649,-31.789794745211626,-83.92889697909388,-94.11584224529257,1
1767482340.487693,1,left_wrist,1.1258,0.2684,0.0488,10.43,27.58,45.01,-0.7060219059984884,0.008588381794626473,0.6904818203437864,0.15714376768788046,77.26011527284484,-77.87448793172565,-90.79612774993562,1
1767482340.487693,2,right_wrist,1.0897,-0.0229,0.1176,22.47,25.13,-22.54,-0.3539589729499948,0.5810687698421177,0.3099987335975544,0.6640579156596698,0.15790305194920853,-82.38474810200375,-124.02080100696026,1
1767482340.544408,1,left_wrist,1.1258,0.2684,0.0488,10.43,27.58,45.01,-0.7160794742333174,0.013503927454721912,0.6829942985986688,0.1434106642016055,69.31212049403304,-79.12150305776636,-82.1107715922623,1
1767482340.544408,2,right_wrist,1.0092,0.0024,0.1313,16.03,16.31,-18.48,-0.35274630981134014,0.5728788250026935,0.31915755230201565,0.6674716095734723,8.895283492050321,-81.8595757852965,-132.00604222691902,1
1767482340.612287,1,left_wrist,0.8882,0.0493,0.0927,-17.64,5.39,1.19,-0.7240364978793954,0.030108606742353078,0.6743108396735388,0.14201941077663233,59.02538593284516,-80.0647389825092,-73.06030500888313,1
1767482340.612287,2,right_wrist,0.9409,0.0068,0.1078,15.54,12.11,-10.85,-0.35520600450106615,0.5683244583611943,0.3244923377640818,0.6674883722786822,11.601714224487258,-81.58074690732097,-133.9800352293395,1
1767482340.66436,1,left_wrist,0.8115,0.0551,0.1005,-23.8,-2.24,1.75,-0.7248624137964684,0.041356071462949104,0.6720012918199919,0.14587124531781714,55.53678449301426,-80.49884708316144,-70.80495900900473,1
1767482340.66436,2,right_wrist,0.8667,0.0107,0.1113,17.71,5.81,-1.33,-0.36088510641113974,0.5666927510960992,0.3281334008416781,0.6640404634341418,10.646998043506926,-81.67026892879828,-132.1629618782489,1
1767482340.717697,1,left_wrist,0.7852,0.0752,0.08,-15.26,-3.64,1.68,-0.7248219999116067,0.050432687794809423,0.6712490382239317,0.14667767767924617,52.861889671190895,-81.06561441134447,-68.93475836619044,1
1767482340.717697,2,right_wrist,0.8477,-0.0161,0.0996,12.81,-6.79,6.23,-0.36643287450922407,0.570453040088056,0.32961413511982485,0.657012023833972,6.51289548950019,-82.37248929068235,-127.40117211152018,1
1767482340.771662,1,left_wrist,0.8062,0.1401,0.0561,-11.48,-3.5,0.84,-0.7216272022293206,0.051681836359841714,0.6733973917353366,0.1520497339596601,56.02548066273737,-80.9677640266689,-72.64313422377778,1
1767482340.771662,2,right_wrist,0.8452,-0.0063,0.1132,18.69,-20.93,16.03,-0.3755560405196211,0.5774378663563766,0.33095651463132486,0.6449736090338161,-3.4136733402021844,-83.4385161451687,-116.53340262154073,1
1767482340.8449569,1,left_wrist,0.8233,0.1405,0.0493,-9.17,-9.03,-5.88,-0.7161503552985772,0.05105783426154233,0.6778419513655322,0.15827841019927594,61.798597569909205,-80.76421432248705,-78.87921395749362,1
1767482340.8449569,2,right_wrist,0.9008,-0.0366,0.1074,-5.6,-29.54,22.54,-0.38387216276223024,0.5980024853764568,0.3243574884562169,0.6243616018159697,-36.023674886195245,-84.7239361909994,-83.80088864036274,1
1767482340.9160461,1,left_wrist,0.8965,0.1903,0.059,-20.58,-16.1,-11.97,-0.70191811721406,0.05047263908747512,0.687163525288082,0.1804709365628446,74.08528943339437,-79.38362765282301,-92.96417729477662,1
1767482340.9160461,2,right_wrist,0.9004,0.002,0.1288,-7.35,-30.94,21.77,-0.38310600546239076,0.6079285009617132,0.3223697614232195,0.6162227383154821,-52.268943673588296,-85.03140101843739,-67.82154352784956,1
1767482340.98469,1,left_wrist,0.9423,0.1693,0.081,-9.52,-8.96,-12.53,-0.7003632261888524,0.05019099066062486,0.686875348302675,0.1875485850464526,74.66714025391342,-78.79876499383775,-94.11645931337868,1
1767482340.98469,2,right_wrist,1.016,-0.001,0.0966,-21.63,-12.25,11.83,-0.3760274410999489,0.620324186704023,0.314328812124711,0.6123713455070258,-68.09434244360624,-84.9576672306399,-53.404696190568636,1
1767482341.0379992,1,left_wrist,1.0009,0.203,0.0649,-6.16,-2.52,-12.53,-0.6998771741169713,0.04635872595618912,0.6854087307118978,0.1955445768659075,74.55531913659972,-77.8321299794477,-94.36593209134918,1
1767482341.0379992,2,right_wrist,1.0619,-0.0059,0.0683,-20.86,-13.86,9.52,-0.36911551867366504,0.6262236702246043,0.3105822650604485,0.6124837184404323,-74.45604592890986,-85.12675355432481,-48.03544723319763,1
1767482341.1159291,1,left_wrist,0.9672,0.2225,0.0503,-6.79,3.92,-11.97,-0.698155808901815,0.042015664002882244,0.6844617351422912,0.20573109536735887,75.05975672592324,-76.65793887558543,-95.37742566795774,1
1767482341.1159291,2,right_wrist,1.0653,0.0268,0.0566,-3.92,-23.87,8.19,-0.3647102837108615,0.6320401144457335,0.3136455632413644,0.6075674146512254,-86.91701471095197,-85.41044439849922,-35.70499684686852,1
1767482341.166925,1,left_wrist,0.9135,0.244,0.0337,8.12,8.4,-9.45,-0.6976160427446042,0.03342983281589332,0.6847198996422087,0.20826176369469127,75.86381612885012,-75.75851602851921,-95.69883699447264,1
1767482341.166925,2,right_wrist,1.0297,0.0166,0.0537,15.26,-30.73,9.87,-0.3656028980168157,0.6365347025408029,0.32176059585476335,0.5980202441207028,-102.19080508581165,-85.27009848142916,-19.59367459335039,1
1767482341.218009,1,left_wrist,0.936,0.2591,0.0039,9.8,6.51,-6.79,-0.6965166662261438,0.026709669907866208,0.6862224846924105,0.20796593159747545,77.11712663716087,-75.24870798708453,-96.38179884970285,1
1767482341.218009,2,right_wrist,0.9736,-0.021,0.0395,29.54,-31.22,11.48,-0.37168437871455046,0.6388287363685841,0.3321475240299262,0.5860261005194959,-113.29261271634601,-84.6530784664487,-6.941904969190237,1
1767482341.286458,1,left_wrist,0.9789,0.2845,0.0283,5.25,-0.56,-6.3,-0.69336189251907,0.021136694815317072,0.689059104152581,0.20976195345939264,79.21094678460837,-74.66628916133287,-98.17552343382704,1
1767482341.286458,2,right_wrist,0.9931,-0.0722,0.0234,23.45,-26.6,8.33,-0.3831216323345019,0.642604170815743,0.348681116603836,0.5645344749538866,-124.96981455277106,-83.08172535655649,7.420752265836706,1
1767482341.338777,1,left_wrist,1.0058,0.3045,0.0386,6.65,-7.49,-11.69,-0.6880152757190298,0.01320845562796907,0.6933884064217638,0.2137125052894158,82.20647833036998,-73.69264507427421,-100.86362473657202,1
1767482341.338777,2,right_wrist,0.9736,-0.0996,0.0039,18.76,-21.84,8.54,-0.3886644717172852,0.6440752228943438,0.353343209969519,0.556107554027781,-126.39703600737111,-82.31322402471844,9.84952709440988,1
1767482341.388994,1,left_wrist,0.9838,0.2796,0.0517,7.84,-8.68,-16.87,-0.6863715087211905,0.007516677828003391,0.6943575703571463,0.2161138960315774,82.99242442462229,-73.0232705875631,-101.39252637256673,1
1767482341.388994,2,right_wrist,0.9008,-0.0815,-0.0551,20.86,-12.67,10.08,-0.394551922867566,0.6424889693968964,0.35843893137496696,0.5505072541207717,-126.3053579014597,-81.98648624634187,10.823651247499981,1
1767482341.466184,1,left_wrist,0.9277,0.2499,0.0371,11.55,-11.48,-16.8,-0.681112987839179,-0.0008757126881369003,0.699686480071065,0.21569228203586113,86.05900633804936,-72.31731714343238,-103.74470500438404,1
1767482341.466184,2,right_wrist,0.9101,-0.1601,-0.0805,24.08,-9.03,9.24,-0.40488859920913756,0.6437451416884937,0.3603194025761917,0.5402104616814261,-123.83409814407518,-80.8567563800922,9.584464668878738,1
1767482341.539973,1,left_wrist,0.9238,0.2484,0.0386,2.52,-17.78,-13.65,-0.6764878373515996,-0.0010920152194239796,0.7038973877072549,0.2165444088334284,88.30692182810164,-72.15389632785131,-106.04937469358552,1
1767482341.539973,2,right_wrist,0.9335,-0.1923,-0.1362,-12.32,-10.71,7.0,-0.4059059562362984,0.6573846445159974,0.35476757968474065,0.5265223150552154,-125.93423678498625,-78.59673721552402,11.376638630397487,1
1767482341.614911,1,left_wrist,0.9653,0.2806,0.0649,-3.57,-17.5,-5.81,-0.6684598510378804,0.002889548967059557,0.709550677385733,0.22291458964955432,91.27250420974597,-71.78688358220627,-109.88434899766716,1
1767482341.614911,2,right_wrist,0.9218,-0.1293,-0.1449,3.15,-7.56,12.18,-0.405768779504802,0.6617473698666125,0.35550418786059435,0.5206331611291996,-127.61883908230287,-77.83920095566573,13.169571386786462,1
1767482341.668149,1,left_wrist,0.9848,0.2811,0.0439,8.47,-10.22,2.31,-0.6681061179466845,0.003827432781734802,0.7112070299716421,0.218641547834413,92.183031619547,-72.17524145260226,-110.50765429739725,1
1767482341.668149,2,right_wrist,0.9897,-0.1967,-0.1444,15.33,-7.77,13.44,-0.413498911249622,0.6652931927925415,0.35468584137729353,0.5104915003658386,-126.0388431387548,-76.55103196912582,12.355061100595831,1
1767482341.7411141,1,left_wrist,0.9414,0.2918,0.0083,5.88,-3.01,3.01,-0.670079681084251,0.004517676290239598,0.7103028244723796,0.21550570559854143,91.73708935605742,-72.5284505232983,-109.84982184493012,1
1767482341.7411141,2,right_wrist,0.9594,-0.1649,-0.1191,-5.32,-11.69,9.8,-0.4121144023238644,0.6688402926274379,0.3545135111374614,0.5070843645551263,-127.2975222952349,-76.05253937412793,13.501097018263954,1
1767482341.8161228,1,left_wrist,0.9043,0.2196,-0.041,15.05,-3.99,9.59,-0.6687956506116346,0.006384272046843343,0.7175061887115889,0.1945674380618768,96.26441324513571,-74.19923952106464,-112.76016370859195,1
1767482341.8161228,2,right_wrist,0.9223,-0.1562,-0.1122,-17.08,-11.69,5.39,-0.4061727720611585,0.6727910230266958,0.3520208405154231,0.5083869062177558,-129.07274159295693,-75.93929257661193,14.465243298688248,1
1767482341.889198,1,left_wrist,0.9457,0.2611,-0.0268,-3.92,-11.41,7.91,-0.668079458491334,0.013819158923020875,0.7190162186426388,0.19103545565529823,97.63502651030291,-75.01639138133628,-114.43714036139077,1
1767482341.889198,2,right_wrist,0.975,-0.1762,-0.1039,10.36,-4.06,-1.68,-0.4096683352001611,0.6682021783867869,0.35735887532582816,0.5079097736402997,-128.8152790660904,-76.30506801910201,15.037804163777567,1
1767482341.965987,1,left_wrist,1.0063,0.2323,0.0034,-10.29,-14.56,11.34,-0.6653364230713891,0.029178073540998193,0.7211113614058425,0.19098295371686475,99.99637616317946,-76.09805760517825,-118.04227274625929,1
1767482341.965987,2,right_wrist,1.0224,-0.1176,-0.103,12.39,4.97,-1.54,-0.41274596683806153,0.662139155749076,0.36097481623753336,0.5107931942822788,-127.70493824959836,-77.01123288837437,14.526343506876712,1
1767482342.0388029,1,left_wrist,0.9677,0.266,-0.0288,-3.08,-9.94,11.27,-0.6635664060817519,0.031491005650646824,0.7224152564244574,0.19184404751788378,100.99904083167641,-76.12559884762686,-119.30678183877168,1
1767482342.0388029,2,right_wrist,0.9521,-0.2118,-0.1298,6.09,12.81,-1.89,-0.4228073376068376,0.6520543155634632,0.36175347646288514,0.5149694622867439,-122.08115985184442,-77.81743887274624,9.90506125069489,1
1767482342.1169689,1,left_wrist,0.9653,0.2582,-0.0903,6.51,-12.95,3.29,-0.6530018424214874,0.02894011780249876,0.7335231970433644,0.1862653558099359,108.28142934762761,-75.64197246960559,-125.92663005228871,1
1767482342.1169689,2,right_wrist,0.9326,-0.1781,-0.1562,2.1,12.46,1.33,-0.424283582909722,0.6513370721782867,0.36039298757587346,0.5156164797459858,-120.87378391291007,-77.82225734934144,8.708706270334591,1
1767482342.184413,1,left_wrist,0.9628,0.2596,-0.103,-4.34,-18.97,0.28,-0.6442313495751876,0.02991817821510396,0.740565461466404,0.18876882189565625,112.2604557426095,-74.90298731757167,-130.2085244226964,1
1767482342.184413,2,right_wrist,0.9526,-0.3152,-0.1044,-10.01,3.64,9.52,-0.4328679167712112,0.6561601155922172,0.3476922279712498,0.5110669075028712,-115.81346241413625,-76.3348661484641,3.357159583246429,1
1767482342.2384489,1,left_wrist,1.0375,0.3314,-0.0693,-14.56,-20.51,3.5,-0.6383537049813556,0.03416517500352367,0.7437330151304813,0.19544434081977977,113.72793609592914,-74.34080770370404,-132.59301821729713,1
1767482342.2384489,2,right_wrist,1.0634,-0.3133,-0.0805,-10.99,7.77,10.64,-0.4365096241545965,0.6583364395615608,0.33762597661983196,0.511919114975525,-112.48165622962466,-75.64634235804007,-0.5482850876703809,1
1767482342.312659,1,left_wrist,0.8574,0.2943,-0.1396,15.96,-5.18,-5.74,-0.6285209182326494,0.02308371703970078,0.7519180168651691,0.19760539786445447,116.1796115806608,-72.6143776502685,-134.34550589282435,1
1767482342.312659,2,right_wrist,0.9877,-0.286,-0.0273,-12.67,6.51,16.52,-0.4402384100833473,0.6605331926003564,0.3264648812186213,0.5131342174240366,-109.18161016344793,-74.86846951320135,-4.508888945702236,1
1767482342.370193,1,left_wrist,0.8999,0.1947,-0.141,6.93,-7.91,-8.61,-0.6251858999623108,0.02208323587454205,0.7556605394424676,0.19398987167154835,118.30451803602143,-72.44435842039985,-136.09142215731353,1
1767482342.370193,2,right_wrist,0.9223,-0.2586,-0.04,-26.32,10.78,19.53,-0.44103931015184616,0.6644119993985279,0.3107480473854038,0.5171814700878146,-106.02635751733992,-74.01781595305143,-9.04062949641783,1
1767482342.4385312,1,left_wrist,0.8999,0.1947,-0.141,6.93,-7.91,-8.61,-0.6224754237357216,0.021252358408911973,0.7588625372452943,0.1902638527748437,120.19672284043719,-72.33247824662904,-137.60821683653668,1
1767482342.4385312,2,right_wrist,1.0643,-0.244,0.022,-10.57,1.89,7.63,-0.43858234513994143,0.6654471700435728,0.29617404726903684,0.526409084398083,-102.6609064422768,-73.81943950331087,-14.033030719622372,1
1767482342.5162082,1,left_wrist,0.9496,0.2308,-0.1698,2.24,-5.67,-9.8,-0.6162896984513724,0.020002295591924454,0.7647270284034573,0.18702804009823598,123.10198196656273,-71.81774884714872,-140.15359864923184,1
1767482342.5162082,2,right_wrist,1.0263,-0.2679,0.0322,0.42,-3.5,10.29,-0.44178333157717325,0.6651458728670793,0.2934703079132257,0.5256268963074294,-101.5563640652066,-73.44319923403225,-15.056357753619782,1
1767482342.566944,1,left_wrist,0.853,0.1737,-0.2167,17.57,2.59,-2.03,-0.6154751788806754,0.01623215649333049,0.7673800879612734,0.179038045895069,124.97869596737364,-71.88219495660476,-141.0536578139381,1
1767482342.566944,2,right_wrist,0.9326,-0.2489,0.002,-5.53,-2.66,10.22,-0.4430387605855058,0.665660725614959,0.28960861805784716,0.5260601708352848,-100.7155188796104,-73.13102911220045,-16.119659109319482,1
1767482342.617097,1,left_wrist,0.895,0.1889,-0.2064,13.79,-0.35,5.11,-0.6145326289015639,0.01644752256874567,0.7701793257933961,0.1700086266549828,127.71750896370193,-72.2119430832109,-143.05539426245332,1
1767482342.617097,2,right_wrist,0.9326,-0.2377,0.0024,-12.04,-7.84,4.97,-0.4399067727340591,0.6678528793305216,0.2874438746720484,0.5270963685951141,-101.3854065987237,-73.12546062057265,-15.957890895540963,1
1767482342.670788,1,left_wrist,0.9711,0.2401,-0.202,9.24,-1.33,5.11,-0.6124064806612262,0.016972591486109127,0.7732599226136041,0.16352163667839142,130.24277739654968,-72.2977512053179,-145.08568160595055,1
1767482342.670788,2,right_wrist,0.9409,-0.2098,-0.0102,0.07,-8.82,0.35,-0.4380160695877461,0.6674345841863387,0.2906564432654836,0.5274389354258656,-102.15582814889517,-73.47311471069983,-15.091793096620705,1
1767482342.723549,1,left_wrist,1.0585,0.2586,-0.164,2.8,-13.72,4.41,-0.6107239768394067,0.018619172279467293,0.7748656854391618,0.1620269115486224,131.4288232709086,-72.26803597458377,-146.28488948648425,1
1767482342.723549,2,right_wrist,0.9667,-0.2445,0.0039,16.52,-11.27,-1.33,-0.4416105527556282,0.6641484292941724,0.2972287780578565,0.5249209817250458,-102.10368313259484,-73.69271964379986,-14.186046183540904,1
1767482342.785878,1,left_wrist,0.9306,0.1791,-0.1571,-32.06,-21.77,-7.56,-0.605131187396715,0.028109808521930096,0.776615391191628,0.17290060401565097,131.5472198873191,-71.73713643815552,-148.10136821769248,1
1767482342.785878,2,right_wrist,0.9506,-0.3684,-0.0844,53.2,-3.78,3.01,-0.46603084468232986,0.6501235625536127,0.316086164403719,0.510141296005154,-99.04867335547084,-73.31976318891228,-12.984697721689937,1
1767482342.83855,1,left_wrist,0.8306,0.3274,-0.1454,-49.7,-26.18,-17.36,-0.5943047852294768,0.0345422627761383,0.7788301484330094,0.1975658225186387,128.94589656029532,-69.9466436717972,-148.13451324766524,1
1767482342.83855,2,right_wrist,0.8916,-0.3177,-0.1747,54.81,1.26,14.42,-0.48377488838724875,0.6431390411932826,0.3240257768760011,0.4973342205989792,-97.07699961075286,-72.40578182654649,-12.302885984491526,1
1767482342.890076,1,left_wrist,0.7969,0.3655,-0.1118,-105.63,-13.86,-32.48,-0.5850992527812878,0.049680626909630106,0.7715467942267552,0.24475752087129363,121.45908284469058,-67.99976524931365,-145.94951725148974,1
1767482342.890076,2,right_wrist,0.8735,-0.5441,-0.1444,56.35,-7.91,29.12,-0.505907818474454,0.6393514607139218,0.32740567621795996,0.4775903182327441,-95.45790328345149,-70.38512263211086,-11.091280980650009,1
1767482342.970143,1,left_wrist,0.8706,0.8623,-0.0766,-123.55,9.31,-91.91,-0.5565470996966342,0.05500895916286388,0.7421888207056611,0.369303526453002,102.4758826351092,-60.08383517648902,-138.66154531478932,1
1767482342.970143,2,right_wrist,0.9282,-0.5012,-0.1337,81.62,-8.12,54.04,-0.5388347136736779,0.6328582913631265,0.3291486027787008,0.44811687279322415,-92.61809151260509,-67.20579533328973,-9.855541121044428,1
1767482343.03828,1,left_wrist,0.8862,0.9687,0.0122,-137.13,22.05,-136.15,-0.5355072934618037,0.03762445235574474,0.7143430639669457,0.4489212917611061,92.22973390813367,-53.02068033371883,-134.76998842107955,1
1767482343.03828,2,right_wrist,0.9477,-0.754,0.0727,120.05,-11.55,119.0,-0.6376878635760075,0.6098474152296639,0.314814766072671,0.34975989170883287,-84.06575764540557,-55.90481464854629,-6.360019285543372,1
1767482343.088473,1,left_wrist,0.8174,1.0097,0.1347,-119.21,37.52,-175.77,-0.5076352484737968,0.0005229474725968251,0.6805043164387518,0.528412770796765,84.13450407032222,-43.74488934382604,-132.12982762445665,1
1767482343.088473,2,right_wrist,0.9189,-0.9262,0.1972,146.86,3.29,156.31,-0.7003775956448804,0.5872196277883541,0.2900860156580208,0.28371541336074385,-77.81720508371724,-47.692757041244505,-4.834457575934157,1
1767482343.1621802,1,left_wrist,0.7159,1.1322,0.4348,-130.34,75.67,-224.07,-0.4326318918816507,-0.10051114265526488,0.571421043392081,0.6900761896325232,69.53610130918574,-20.83691840531258,-130.37775383885014,1
1767482343.1621802,2,right_wrist,0.8325,-1.0804,0.4168,162.47,37.45,193.62,-0.7681759030456679,0.5529063596873908,0.24447701125090351,0.21078740561768847,-70.17737668411964,-37.49513709638303,-3.866281256269977,1
1767482343.2169669,1,left_wrist,0.5724,1.1351,0.6271,-104.58,117.11,-219.52,-0.39936992387428055,-0.16784280349434735,0.5021224780332272,0.7484687530375472,63.613807021160156,-8.616208242586676,-129.1827033833926,1
1767482343.2169669,2,right_wrist,0.7979,-1.0224,0.5958,134.4,72.03,210.28,-0.8244052072910351,0.5176742578497556,0.17909728210210724,0.1424555386595006,-63.51410326377017,-26.281940252806553,-3.161795465343134,1
1767482343.2687502,1,left_wrist,0.4407,1.0868,0.7281,-80.08,152.46,-203.28,-0.37212872209197817,-0.24314239792302003,0.4307658900407226,0.785393364183744,59.229006729182764,3.5158198914204406,-127.2968324639924,1
1767482343.2687502,2,right_wrist,0.693,-1.0648,0.7076,120.61,106.68,219.59,-0.8691794840225414,0.47814093066299634,0.09845693718077703,0.07883214128775735,-57.3133232913644,-14.272816673134164,-2.536275837758447,1
1767482343.33567,1,left_wrist,0.2938,0.9335,0.7135,-74.83,168.56,-184.59,-0.3486166904144887,-0.3176717585852674,0.35635354003436687,0.8065749881237126,55.65263428882162,15.306983094626702,-125.13595030525836,1
1767482343.33567,2,right_wrist,0.3821,-0.9126,0.7515,62.58,166.39,178.22,-0.9083844869820493,0.4089607805551511,-0.08686798038930897,-0.006531290926239395,-48.75773463496797,9.39042770566139,-3.439194987328364,1
1767482343.3868291,1,left_wrist,0.0883,0.7452,0.6915,-52.64,178.64,-166.04,-0.3254527541224813,-0.39254787859948553,0.28643567165873396,0.811135792480239,53.76770794232611,26.76785601697676,-122.51913761615862,1
1767482343.3868291,2,right_wrist,0.1972,-0.8316,0.5978,13.44,177.24,157.29,-0.8990004122467111,0.39773381385787576,-0.18004570512726398,-0.03449081268306688,-48.63377671364992,20.55819977899733,-4.975473226745424,1
1767482343.462425,1,left_wrist,-0.2294,0.507,0.4148,-53.27,161.21,-139.86,-0.27948951126298005,-0.5195969212088143,0.1516171805754049,0.793042800306936,52.049547687021935,47.67814885676108,-116.82249429425976,1
1767482343.462425,2,right_wrist,0.0185,-0.6515,0.5851,20.09,161.84,144.62,-0.8846999948931308,0.3797703154629326,-0.2637246691819569,-0.059411492105032,-48.21694609345632,30.78112499948979,-6.361129900136577,1
1767482343.517036,1,left_wrist,-0.3889,0.4109,0.3231,-66.99,140.56,-121.17,-0.2634719880271108,-0.5635546997816188,0.08591230741799707,0.7782079974616086,50.89610535128507,56.28972178121417,-114.02723354162276,1
1767482343.517036,2,right_wrist,-0.1649,-0.5939,0.5305,10.01,147.07,130.97,-0.8641493095877499,0.3641378719519412,-0.3374465917325977,-0.08233698244033794,-48.53151067710147,40.028794109176395,-7.764578043315139,1
1767482343.593089,1,left_wrist,-0.5353,0.3162,0.161,-72.31,119.42,-102.41,-0.25062465907820064,-0.6004026655255471,0.024471494612166887,0.7590158532225796,50.58814704358843,64.04839057053006,-110.52137730165806,1
1767482343.593089,2,right_wrist,-0.5095,-0.2625,0.2918,15.47,144.34,91.7,-0.8123846256965935,0.3215672332981918,-0.4739236842348435,-0.10964522753874885,-50.58492452499055,57.19647289657757,-13.519264142527232,1
1767482343.6710231,1,left_wrist,-0.6803,-0.0229,-0.2586,1.26,30.73,-18.69,-0.23329545851743608,-0.6397300647182277,-0.02323172860329483,0.7319692344059648,55.70091806024387,71.32769920658122,-103.11355890303975,1
1767482343.6710231,2,right_wrist,-0.5558,-0.2655,-0.1503,-15.75,115.08,55.72,-0.7801309633084514,0.32233054180401755,-0.5234823896747755,-0.11603831095005925,-57.37842232525343,63.07183594923251,-20.205706104319923,1
1767482343.734404,1,left_wrist,-0.915,0.1893,0.0322,17.71,2.38,-4.27,-0.225303598784701,-0.6448384864073112,-0.02036758367883769,0.7300731308284644,57.286375741922384,71.94071933521866,-102.45206478369418,1
1767482343.734404,2,right_wrist,-0.7642,-0.3797,0.0278,2.87,-2.8,10.78,-0.7619582668920386,0.3247152054856969,-0.5468169309281271,-0.12235554295415671,-62.10635198751062,65.89026317851192,-24.38655568243172,1
1767482343.790199,1,left_wrist,-0.9736,0.1118,0.0922,1.96,-4.9,-4.9,-0.220229345952971,-0.6448595085880757,-0.023932737063817048,0.7314933174413188,56.12665227050574,72.54679449830947,-103.75435311491903,1
1767482343.790199,2,right_wrist,-0.9443,-0.3753,0.2499,-15.68,-2.59,2.8,-0.7624165614177904,0.32780936004902583,-0.5430988353016157,-0.12769363897293154,-61.61300190209198,65.7627521124624,-23.14456360155085,1
1767482343.86943,1,left_wrist,-0.9721,0.2211,0.1513,2.73,-8.89,8.05,-0.21571058865381784,-0.6438992132790554,-0.021757515910322926,0.733750199715577,55.36344953606199,72.61316329442033,-105.07639378177944,1
1767482343.86943,2,right_wrist,-0.8945,-0.2411,0.0522,-17.08,-12.18,-11.13,-0.7611852999348075,0.33496196198753214,-0.5396470587865051,-0.13106668198933813,-62.33554924365022,65.41533913633043,-22.91499750253244,1
1767482343.940039,1,left_wrist,-0.9433,0.2255,0.1342,1.68,-13.09,8.96,-0.2165291868733765,-0.6424774171086275,-0.01891074216345868,0.7348334937713497,55.25069995957684,72.25404221057634,-105.34834101895323,1
1767482343.940039,2,right_wrist,-0.9038,-0.407,0.1835,1.82,-12.67,-11.76,-0.7653670209500842,0.34562350792425445,-0.5285804119886263,-0.1239373312366394,-63.058904822612405,63.48112746180013,-23.168228328278413,1
1767482344.01283,1,left_wrist,-0.852,0.2523,-0.0185,23.8,-43.05,30.8,-0.220309421763351,-0.6323481986425914,0.004345352897011516,0.742684746217376,54.916566895294366,69.61218170193848,-107.23140551939181,1
1767482344.01283,2,right_wrist,-0.8428,-0.3289,0.0488,-17.08,-10.71,-25.83,-0.764237194328823,0.35743419711562446,-0.5229657234947546,-0.12119883492148663,-64.79287062989117,62.37247775742823,-23.99861442380406,1
1767482344.065983,1,left_wrist,-0.7115,0.143,-0.1259,58.8,-72.59,57.89,-0.22119151231882858,-0.6167201838023647,0.04542646449298654,0.754100103495918,55.4328272259785,65.51110264594807,-109.95410286719023,1
1767482344.065983,2,right_wrist,-0.7579,-0.3577,-0.0468,-27.44,-34.51,-43.89,-0.7675270377166344,0.37621235424692634,-0.5054558969996391,-0.11781700672739617,-65.80598916143543,59.83142482109817,-23.384721711128957,1
1767482344.138344,1,left_wrist,-0.5539,0.2211,-0.0493,61.11,-112.21,85.68,-0.2296869215760965,-0.5858243550999288,0.09945212189280944,0.7708197055600399,55.178008625953645,59.03081881057348,-113.85506409453693,1
1767482344.138344,2,right_wrist,-0.5475,-0.4153,0.0708,-80.64,-107.17,-114.17,-0.7837437996623436,0.4577968976928956,-0.40425782264420534,-0.11288609207762876,-67.9257058814865,47.478767622047826,-16.60903205860373,1
1767482344.216485,1,left_wrist,-0.1581,0.4265,0.284,62.86,-188.16,152.11,-0.26920697676772676,-0.46142097638849305,0.24871758003998834,0.8079343114308999,55.29104697654962,37.71127008488702,-122.85942511556014,1
1767482344.216485,2,right_wrist,-0.4904,-0.4412,0.2381,-107.31,-112.56,-156.17,-0.7883076574944876,0.5127411757381911,-0.3250486306957182,-0.10005454273050145,-70.5242786769763,37.95779283257931,-12.867156918144403,1
1767482344.271334,1,left_wrist,0.0386,0.6412,0.5466,71.75,-192.85,190.4,-0.3007659351689589,-0.37491790463706537,0.3343397488821844,0.810674626062696,57.16740282603149,24.00126733350278,-126.07675370311627,1
1767482344.271334,2,right_wrist,-0.2289,-0.2596,0.1191,-45.78,-102.62,-207.06,-0.79946736569163,0.5477350548434038,-0.23948868362194467,-0.05902043126585292,-71.39757660678576,26.58864619681205,-10.82729607584845,1
1767482344.339062,1,left_wrist,0.0386,0.6412,0.5466,71.75,-192.85,190.4,-0.32784719007263874,-0.2822870097335399,0.414182208577992,0.8008016996701668,59.61246865417698,10.400917052113234,-129.50256498566046,1
1767482344.339062,2,right_wrist,0.2782,-0.9526,0.2938,-83.86,-73.36,-291.69,-0.7678993881025489,0.6344972713782284,-0.03401569490131192,0.08115833207807123,-78.88606244443895,-2.908908207521903,-9.673014128862155,1
1767482344.389163,1,left_wrist,0.4943,1.0551,0.3562,204.61,-133.35,272.09,-0.3707051892215149,-0.21000671414457278,0.5342291287981893,0.7301192235806205,69.97900572575192,-5.130421774363954,-129.75542117332333,1
1767482344.389163,2,right_wrist,0.568,-1.1541,0.124,-150.71,-63.49,-316.12,-0.7059660843128124,0.684197763474958,0.07223180188824012,0.16813052980312265,-86.75998116818685,-19.393581703234602,-8.446235975415256,1
1767482344.46418,1,left_wrist,1.037,1.2073,0.3289,219.8,-12.6,308.63,-0.48611240232031144,-0.08355631125118221,0.7098351003996848,0.502839144658648,91.56297910695454,-37.30721195953674,-130.20291563411322,1
1767482344.46418,2,right_wrist,0.7003,-0.7945,0.0839,-239.26,3.78,-348.53,-0.5979279136713253,0.7331671997826117,0.15834040073408967,0.28262410497151114,-99.03704382309319,-37.14065254272018,-7.626740873827033,1
1767482344.515845,1,left_wrist,1.2176,1.4484,-0.0947,187.67,16.73,237.37,-0.5323608086618418,-0.05061750346993843,0.7510059286862563,0.38732406692777893,101.83005334733436,-49.49960536636663,-131.23185802995812,1
1767482344.515845,2,right_wrist,1.1605,-0.4812,-0.0898,-439.25,60.97,-338.94,-0.4060521874281952,0.7922962111112367,0.19391046706858167,0.41205226089029157,-124.36161790356414,-54.13605082130171,-2.6767457196217914,1
1767482344.569676,1,left_wrist,1.1161,0.3587,-0.0395,45.71,35.98,126.56,-0.566004693968802,-0.022787271978592944,0.751080396708542,0.33911305536825853,103.58018413996835,-56.592431211708764,-130.59018945187316,1
1767482344.569676,2,right_wrist,1.6616,-0.5256,-0.4412,-167.79,132.3,-257.39,-0.3077112933546137,0.7663610321208385,0.2289621429781326,0.515345384641771,-139.8622732462565,-68.55825374707284,5.3021412093888936,1
1767482344.6378272,1,left_wrist,0.9687,0.5939,-0.2572,114.17,28.0,143.71,-0.5911944303255875,-0.0076245430899014805,0.7622646429524297,0.2634077181847165,111.55749594084398,-63.802352376764716,-132.96112780143238,1
1767482344.6378272,2,right_wrist,1.1649,0.1064,-0.4446,55.86,78.12,-91.07,-0.19261761124413365,0.7288944960494098,0.2612494891290795,0.6027934753273924,170.26245096230508,-78.34682111820523,47.37791568516904,1
1767482344.6987278,1,left_wrist,1.016,0.426,-0.2347,28.49,26.25,122.36,-0.6112118560254309,0.023959327102600618,0.7600383455710037,0.21951704025070617,117.20405860947267,-69.98580503436685,-137.34083440441304,1
1767482344.6987278,2,right_wrist,1.1624,-0.2777,-0.3401,15.12,55.65,-91.35,-0.18269314836395895,0.7038730142470824,0.28684850813597595,0.6236216214466558,147.0930919297041,-79.33046367104065,71.8648041761142,1
1767482344.764499,1,left_wrist,0.9931,0.467,-0.2118,-1.4,21.98,74.55,-0.6393265678389741,0.0719517632109734,0.7479177827175074,0.16341197545160885,130.26520280016152,-78.4765363274304,-149.523734627768,1
1767482344.764499,2,right_wrist,1.1019,-0.0468,-0.3113,32.2,40.6,-54.25,-0.1846245378797692,0.685767883456424,0.30756330287137107,0.6332779837948191,133.58305091839725,-79.15228758912575,87.34199138444606,1
1767482344.820566,1,left_wrist,0.9672,0.3631,-0.242,-14.21,12.74,48.86,-0.6440238091622902,0.08828384057022547,0.7434015497163555,0.1574593046014932,135.1146046413829,-80.17677406400131,-155.20291526410676,1
1767482344.820566,2,right_wrist,1.038,-0.0917,-0.2913,42.7,38.15,-39.69,-0.19369478832793882,0.6688332197451566,0.32638867137944094,0.6392299182102519,124.2591115925523,-78.96665732037017,99.1062404899821,1
1767482344.8844259,1,left_wrist,0.9672,0.2664,-0.1991,-8.26,9.31,32.13,-0.6465628717491705,0.09780760186501761,0.7407066535387035,0.15409016612482146,138.83595764785298,-81.10346542067012,-159.4190187457928,1
1767482344.8844259,2,right_wrist,0.9999,-0.0044,-0.224,27.51,14.56,-14.14,-0.20415172192750422,0.6538952706349719,0.34426564082393407,0.642046897059193,117.77070132878053,-78.58740636330745,108.10355938329931,1
1767482344.943104,1,left_wrist,0.9511,0.2523,-0.1903,0.49,-0.21,19.95,-0.6455941794891081,0.1015129339640606,0.7416856100748264,0.15101567950291084,142.42747669633786,-81.23284366032965,-163.06083038199498,1
1767482344.943104,2,right_wrist,0.9848,0.0654,-0.1698,10.64,4.97,-4.41,-0.20864291808589094,0.6535716809348519,0.34671777133514925,0.6396084565208496,119.01584371000916,-78.73681597945573,107.46669997345731,1
1767482345.0164092,1,left_wrist,0.9677,0.0781,-0.1562,3.78,-0.84,1.33,-0.642126884737119,0.10231228354796885,0.7456801244850457,0.14548681205170857,147.24351630941655,-80.89959422240358,-167.49097240587807,1
1767482345.0164092,2,right_wrist,0.9789,0.1293,-0.1279,5.95,2.1,-1.12,-0.2120121453627048,0.654923963262197,0.34741494197418266,0.6367325267777004,121.06973296156431,-78.91265251301465,105.76593622455059,1
1767482345.066887,1,left_wrist,0.9775,0.0264,-0.1259,2.94,-3.43,-2.38,-0.6421233550484422,0.10411967600542202,0.7462035795974307,0.14148112158814327,150.22142899221154,-81.03048329688929,-170.28556716108832,1
1767482345.066887,2,right_wrist,0.9711,0.1444,-0.0976,2.59,-3.01,1.54,-0.21625505041980034,0.6572656193189216,0.3449777469124585,0.6342129082291276,123.64149318968744,-79.38869663241097,103.33477158337111,1
1767482345.121351,1,left_wrist,0.9716,0.0073,-0.1069,-2.31,-5.25,-4.9,-0.6418993188365145,0.10620537037295699,0.7463059818699285,0.14040322363223692,151.79080568707192,-81.08885583573876,-171.93732134284917,1
1767482345.121351,2,right_wrist,0.9862,0.1762,-0.08,2.17,-5.88,1.96,-0.21523698093578586,0.6563850055079106,0.3463521814318209,0.6347219336051396,122.88920822973019,-79.21599275873072,104.1257110473114,1
1767482345.193197,1,left_wrist,0.9765,0.0444,-0.0952,-8.19,-3.92,-6.16,-0.6425239276284923,0.10790032098410046,0.7449383831747028,0.1434828506457949,150.5713447364648,-81.20628715777535,-171.11045956797113,1
1767482345.193197,2,right_wrist,0.9716,0.1552,-0.1054,20.93,-9.66,8.68,-0.2232931904492417,0.6583845049844539,0.35493559112038303,0.625052574469859,128.4617679463768,-78.97962293744867,100.04435782220636,1
1767482345.2646232,1,left_wrist,0.916,0.1601,-0.1708,-9.59,-2.94,-22.68,-0.6375502453693233,0.10220480587562868,0.7469805342157397,0.15844224117390185,142.13934046503593,-80.01803475893023,-163.4623941637797,1
1767482345.2646232,2,right_wrist,0.9599,0.1347,-0.1737,32.9,-12.53,12.11,-0.2336404990371651,0.6626578632891863,0.3622675167795014,0.6124205415538314,136.38295939040984,-78.79296579901494,93.71512074154144,1
1767482345.315594,1,left_wrist,0.9111,0.3436,-0.2118,-25.76,2.52,-65.03,-0.6303585566359367,0.08505208909491598,0.7483665539052644,0.18804715688467077,127.68200977326585,-77.2821820513666,-150.09035322746328,1
1767482345.315594,2,right_wrist,0.9862,0.0034,-0.2474,58.87,-22.05,27.23,-0.25590632796492685,0.669157188890511,0.3710769421897908,0.5907981980665907,150.68633025008154,-78.69442799395327,82.22569344111072,1
1767482345.365978,1,left_wrist,0.9111,0.3436,-0.2118,-25.76,2.52,-65.03,-0.6221565090722431,0.06797645059534164,0.7491441776684415,0.21698728407207069,118.69848018368458,-74.08507298460725,-142.17707549841714,1
1767482345.365978,2,right_wrist,1.0497,-0.1054,-0.3021,73.08,-31.22,63.49,-0.29028608029565234,0.6811089535259532,0.37288248913262184,0.5592702694687309,173.99720304778975,-78.05124607147445,62.26515977178565,1
1767482345.417145,1,left_wrist,0.9984,0.7627,-0.0737,-140.63,-8.12,-212.03,-0.5906577718345245,0.034264361921663114,0.7391950082180275,0.32177645951673656,102.33395610919771,-63.543579476410066,-132.31046644515393,1
1767482345.417145,2,right_wrist,1.077,-0.2406,-0.2948,175.28,-37.1,123.34,-0.3674980314737841,0.6868349295223392,0.37956422757849273,0.4991332222900806,-151.47058520985675,-74.71413257097842,35.88568417086502,1
1767482345.4889889,1,left_wrist,0.9506,1.0663,0.0854,-213.08,10.36,-240.52,-0.5508375873622722,0.0072629758388901376,0.7019305690202619,0.4514628199594805,88.67435018547413,-51.24752179310925,-128.8967542979758,1
1767482345.4889889,2,right_wrist,1.2912,-0.9677,-0.1913,214.2,-25.69,242.55,-0.5529135999141315,0.6892911649900489,0.3325113280836131,0.32954583534423365,-107.5133622642001,-55.28612285679078,9.498205484291121,1
1767482345.566197,1,left_wrist,0.9335,1.3513,0.5622,-171.08,104.51,-289.52,-0.4711366516200586,-0.11396060384673382,0.5610112359066357,0.671051137736638,68.17378391452692,-22.06629310332033,-124.88872349895367,1
1767482345.566197,2,right_wrist,1.2488,-0.9701,0.0156,197.96,-5.95,301.77,-0.6497163649738907,0.6760439763783838,0.26633815093930985,0.223376758956358,-94.21273780713119,-40.39952105955932,5.262621309520705,1
1767482345.62163,1,left_wrist,0.8169,1.2605,0.7257,-141.75,151.76,-278.67,-0.43125139008868757,-0.19228243090315944,0.46756004688089947,0.7472866303322155,60.51825118773051,-6.655057327970332,-123.90781656706702,1
1767482345.62163,2,right_wrist,1.0868,-1.0878,0.1684,189.7,42.35,329.42,-0.7346265370284736,0.644918604794558,0.17307887764371954,0.12019794672532283,-83.18625399551672,-24.162907705812657,2.930315233662936,1
1767482338.9205241,1,left_wrist,-0.0288,0.4002,-0.9018,-1.54,-1.26,2.17,-0.09109980047263883,-0.49015098949878505,0.846152742807155,0.18835702717747413,155.90488666907981,1.74653549985865,-120.20791985186558,1
1767482338.9205241,2,right_wrist,0.0537,0.1376,-0.9799,-0.63,-8.05,-2.87,0.06665453155558627,0.9915183745767486,-0.11157266520487849,0.00016333667020583002,172.4057334810667,-0.8707890014787704,-12.782842462271438,1
1767482338.987885,1,left_wrist,-0.021,0.3904,-0.9111,-3.57,-2.94,4.13,-0.09118944548273952,-0.4883002042230358,0.8478369596248924,0.18552596983255668,156.18469951660757,1.5217928756584387,-120.44250595921869,1
1767482338.987885,2,right_wrist,0.1088,0.1147,-1.0565,-15.68,-24.78,5.95,0.07464084555509347,0.9904270127572727,-0.11563439186917146,-0.01057184906119477,171.35577017431905,0.21080266073894605,-13.33443588299774,1
1767482339.0433578,1,left_wrist,-0.0239,0.4119,-0.9052,-8.75,-7.07,3.64,-0.0937828089762533,-0.4853189203275455,0.8474837523118383,0.193498371776291,155.21735003904746,1.6536727920454097,-120.76737726313627,1
1767482339.0433578,2,right_wrist,0.1986,0.1132,-1.0843,-4.83,-41.02,10.92,0.07405990308041044,0.9894853465703838,-0.12202781074196214,-0.02330435761250314,171.23919092170067,1.6070080896329246,-14.184060115414416,1
1767482339.120547,1,left_wrist,-0.0727,0.4865,-0.9174,-1.96,2.24,4.41,-0.09385497041767656,-0.48194655769851236,0.8466762768682707,0.2050805749917208,154.019270449356,2.2205496039459724,-121.21337467703862,1
1767482339.120547,2,right_wrist,0.141,0.0932,-0.9394,-4.97,-43.47,22.61,0.0732674500884234,0.9876553887799071,-0.13349109335741413,-0.036726581188467985,171.09777782392595,3.037256788170153,-15.631339890826888,1
1767482339.171458,1,left_wrist,-0.0224,0.4241,-0.8769,4.06,-3.15,0.49,-0.09560124649012439,-0.4808503398091406,0.8480535995896893,0.2011179867588665,154.3247843958399,1.7916641282011192,-121.30144746735891,1
1767482339.171458,2,right_wrist,0.0537,0.1693,-0.8784,-23.31,-41.09,35.21,0.08357128237557936,0.983872574697612,-0.14997584437899858,-0.0501781189643411,169.63099239387483,4.224830645746815,-17.717745829426526,1
1767482339.24106,1,left_wrist,0.0547,0.4773,-0.9745,10.22,2.73,-2.38,-0.09869234868432727,-0.48140733353229037,0.848839767419055,0.1948790619344881,154.78915466972407,1.1508309416390832,-121.13912428444702,1
1767482339.24106,2,right_wrist,-0.0122,0.3675,-0.7706,-5.67,-13.79,14.91,0.10572777316780121,0.977139726131744,-0.17165965639376934,-0.06747263121393063,166.65330825434813,5.4836666523987665,-20.569685696827285,1
1767482339.31599,1,left_wrist,0.1518,0.4778,-0.9052,61.11,-21.21,-20.93,-0.08409422408053616,-0.48948367158259953,0.8509435862527075,0.17096464472425707,158.07467580529467,1.389554441248221,-120.45203231696078,1
1767482339.31599,2,right_wrist,-0.04,0.4124,-0.835,-10.43,-4.27,-5.81,0.1142441020997229,0.9764017590357573,-0.16930052280460345,-0.07017993349523154,165.63712302168926,5.644995926453115,-20.38552285423846,1
1767482339.367509,1,left_wrist,0.0459,0.266,-0.7852,53.34,-19.39,-20.3,-0.06604687108156557,-0.49699221911697816,0.8518525941665446,0.15160376898100233,161.08446675296366,2.1873616664850464,-119.84370122186382,1
1767482339.367509,2,right_wrist,-0.0322,0.2367,-0.8447,1.12,5.53,-21.77,0.11601842169189358,0.9780758870083569,-0.16043361046569074,-0.06456269599297204,165.6021254770144,5.10998770613927,-19.276391893003254,1
1767482339.4355211,1,left_wrist,0.0224,0.2889,-0.915,38.15,-5.18,-10.64,-0.058197987872370946,-0.5011785084336234,0.8527658116974465,0.13499469356923252,163.21622907054228,2.0662110270062763,-119.41853402510328,1
1767482339.4355211,2,right_wrist,-0.0625,0.1601,-0.8691,12.32,24.85,-29.96,0.0974337989543859,0.9849651255435842,-0.13363879622390631,-0.04991020364668077,168.12273068675162,4.144824125199642,-15.884607763746448,1
1767482339.4875,1,left_wrist,0.04,0.1371,-0.936,38.85,-23.1,-8.47,-0.04041776274364797,-0.5039404096420007,0.8542841827000714,0.1208677093897357,165.6649398290294,3.0245438377567853,-119.30790740939916,1
1767482339.4875,2,right_wrist,-0.0112,-0.0176,-0.9804,49.42,24.22,-24.36,0.07246455252911997,0.9890897739046886,-0.12319082870487262,-0.035697724114195736,171.2365510707598,3.0244770552985356,-14.431026426003974,1
1767482339.542187,1,left_wrist,0.0927,0.2889,-0.8799,48.37,-46.76,5.39,-0.01742207527898273,-0.4995635083207167,0.8587730404820174,0.11243503630337875,167.80509911380483,4.72731686072662,-120.13062885527255,1
1767482339.542187,2,right_wrist,-0.0508,0.081,-0.974,58.52,31.15,-28.84,0.043499368382780096,0.9927325466964686,-0.11052714974885537,-0.019329895194686544,174.79744723013044,1.6482321165702463,-12.780758491350298,1
1767482339.615937,1,left_wrist,-0.1737,0.0786,-0.7125,-2.87,-4.69,18.76,-0.005136534051936506,-0.49128913858389717,0.8634061276757271,0.11462310857515397,168.22428641623665,5.955519102796946,-121.333854554632,1
1767482339.615937,2,right_wrist,-0.161,0.0639,-0.9126,43.4,49.28,-49.7,0.025393379063356643,0.9957843068490447,-0.0881263762364911,-0.0015913341373627995,177.0850702955238,-0.07485133264905362,-10.113034642434387,1
1767482339.6929321,1,left_wrist,-0.2523,0.1391,-0.8823,-17.08,11.83,38.92,-0.010488686209252687,-0.4775212618301609,0.8703845795115055,0.11955800144831207,167.3408506622466,5.5045381916422365,-123.10983978095969,1
1767482339.6929321,2,right_wrist,-0.1225,0.0952,-0.9438,71.89,88.27,-66.43,-0.0172096856850657,0.9976031871538554,-0.027151612482202082,0.061273955631306554,-177.82541679548274,-6.968269177963915,-3.2504657311411695,1
1767482339.768192,1,left_wrist,-0.2948,0.2528,-0.7032,-101.15,86.38,77.28,-0.10235168917667699,-0.42807383320567877,0.8824520855391144,0.1659977161738831,157.61173953286914,-2.207715239211537,-127.80738278779882,1
1767482339.768192,2,right_wrist,-0.2035,0.0381,-0.8262,34.23,107.94,-56.49,-0.02835195971985036,0.9941432877711895,-0.002456920142841164,0.1042557111286737,-176.666636899512,-11.955440558522099,-0.6323378829226931,1
1767482339.8209999,1,left_wrist,-0.2899,0.2879,-0.8159,-100.38,107.52,102.55,-0.1650618387470904,-0.3916852304803502,0.8868900929761522,0.18100616728094288,152.89691364527417,-8.684217903938897,-130.2468135262026,1
1767482339.8209999,2,right_wrist,-0.04,0.0449,-0.9662,77.14,140.7,-66.57,-0.05660173163322851,0.9848914914972091,0.02819193751200043,0.16121479030114583,-173.79330014720577,-18.70826208351867,2.2558383942139795,1
1767482339.885412,1,left_wrist,-0.1913,0.2396,-0.6608,-148.82,178.78,132.51,-0.26383949813604124,-0.34281225048269387,0.8795720807587728,0.1980440226111247,145.91996678348445,-19.168529086840177,-131.48822858348439,1
1767482339.885412,2,right_wrist,0.4168,-0.2611,-0.8564,158.97,142.73,-78.19,-0.16336163481795862,0.9400202917209152,0.10990605818194665,0.2785596629044416,-162.74018731185646,-34.028992561417844,8.019240652485268,1
1767482339.9376,1,left_wrist,0.1688,0.5866,-0.5763,-147.7,205.24,139.16,-0.37362519564426194,-0.28861660602430517,0.856028305018087,0.2105236540502254,137.6569600657877,-31.207986946039775,-130.3892288300228,1
1767482339.9376,2,right_wrist,0.5568,-0.3372,-0.9213,83.65,111.72,-80.22,-0.19494961588204213,0.9155487672856012,0.14341659401005674,0.3212425603057836,-159.74341569633148,-40.101561787261595,10.345000919241503,1
1767482340.018765,1,left_wrist,0.8974,0.9257,-0.4519,-50.75,146.86,100.38,-0.5286264107095255,-0.2160516301982684,0.7969712636336211,0.19675521830758108,123.85984031839924,-49.251453688782284,-122.19187589718973,1
1767482340.018765,2,right_wrist,0.6686,-0.1176,-0.4455,147.56,117.88,-67.62,-0.250309313507805,0.8773225735174289,0.18126984088726947,0.36713974771564967,-153.16684715488515,-47.30274086192186,11.419907819198038,1
1767482340.089838,1,left_wrist,1.0731,0.6749,-0.4577,-64.4,89.18,60.62,-0.5726893374101604,-0.18483105746105916,0.7748155788049226,0.19371427891544568,117.72251029536964,-54.67133740491636,-118.47792679700919,1
1767482340.089838,2,right_wrist,1.0712,-0.2094,-0.205,46.48,123.41,-56.98,-0.3006764150101264,0.8023314978960105,0.225838364857912,0.46352442643177594,-144.95994568769743,-61.59523740998353,10.128293855022333,1
1767482340.141842,1,left_wrist,1.2307,0.7813,-0.3382,-128.03,63.07,71.82,-0.6115058894522668,-0.13310422336813774,0.7498346806057685,0.21468992674925863,108.2596309770117,-59.305847781613124,-115.11894625552499,1
1767482340.141842,2,right_wrist,1.1771,-0.2977,-0.2586,96.46,125.86,-37.17,-0.3394070880040007,0.756376345244731,0.2412282420755721,0.5044864598698338,-133.97933912681552,-67.95851838158279,3.432080440539236,1
1767482340.195643,1,left_wrist,1.3283,0.6964,-0.1976,-89.32,24.71,67.62,-0.6330558657996972,-0.08702915440820512,0.7362322918659354,0.2227738976483122,102.75822395922869,-63.30067657615632,-114.08129153428746,1
1767482340.195643,2,right_wrist,1.2732,-0.3933,-0.0717,83.58,124.81,-65.24,-0.3665125846536895,0.7056178609171432,0.26125303731980326,0.5472831169845865,-119.77124467307164,-74.54725604058254,-7.002466690360543,1
1767482340.2633522,1,left_wrist,1.0185,0.5251,-0.123,-21.21,28.63,51.94,-0.6580151054614134,-0.03355554430989379,0.7192462616627409,0.22039728109675966,95.83029521799918,-68.71064624957855,-111.28166194047722,1
1767482340.2633522,2,right_wrist,1.3898,-0.2562,-0.1274,10.22,108.22,-70.21,-0.3636173388951614,0.6664501623834574,0.2689433418120797,0.5927023627494794,-101.24377970462729,-80.2642326974322,-25.409041907100796,1
1767482340.314495,1,left_wrist,0.9043,0.3309,-0.081,-0.28,28.14,46.41,-0.6690576536216135,-0.020801337949261207,0.7140739116821625,0.20500636362024652,93.6884888848965,-71.2596792738256,-108.86047597283482,1
1767482340.314495,2,right_wrist,1.2961,-0.1606,-0.0176,-1.68,54.95,-45.92,-0.35560327087186167,0.6443685771145757,0.2751940055760544,0.6185496826186051,-81.26046342978437,-83.15285007755456,-45.65748718358815,1
1767482340.367074,1,left_wrist,0.9179,0.3558,-0.0234,-2.31,23.87,54.04,-0.6799078477082666,-0.008917022819401457,0.7073817239201616,0.1930204703975488,90.18820365125765,-73.42887612417091,-105.30699907831242,1
1767482340.367074,2,right_wrist,1.1336,-0.0937,0.1137,13.86,40.95,-32.97,-0.3556668044962223,0.6243330188252196,0.2817875963584611,0.6358499479614312,-54.307316913937306,-83.93855370176978,-72.02821082759294,1
1767482340.4204302,1,left_wrist,1.0224,0.3289,-0.0059,13.79,29.33,56.49,-0.6918488369579343,-0.0014564400032182731,0.7005280345691879,0.17493867029648288,85.71473368867875,-75.65222441559408,-99.9189902362371,1
1767482340.4204302,2,right_wrist,1.1434,-0.0932,0.1122,10.22,23.73,-32.62,-0.35312915342897505,0.6095115588187928,0.28904546521130525,0.6482655163631649,-31.789794745211626,-83.92889697909388,-94.11584224529257,1
1767482340.487693,1,left_wrist,1.1258,0.2684,0.0488,10.43,27.58,45.01,-0.7060219059984884,0.008588381794626473,0.6904818203437864,0.15714376768788046,77.26011527284484,-77.87448793172565,-90.79612774993562,1
1767482340.487693,2,right_wrist,1.0897,-0.0229,0.1176,22.47,25.13,-22.54,-0.3539589729499948,0.5810687698421177,0.3099987335975544,0.6640579156596698,0.15790305194920853,-82.38474810200375,-124.02080100696026,1
1767482340.544408,1,left_wrist,1.1258,0.2684,0.0488,10.43,27.58,45.01,-0.7160794742333174,0.013503927454721912,0.6829942985986688,0.1434106642016055,69.31212049403304,-79.12150305776636,-82.1107715922623,1
1767482340.544408,2,right_wrist,1.0092,0.0024,0.1313,16.03,16.31,-18.48,-0.35274630981134014,0.5728788250026935,0.31915755230201565,0.6674716095734723,8.895283492050321,-81.8595757852965,-132.00604222691902,1
1767482340.612287,1,left_wrist,0.8882,0.0493,0.0927,-17.64,5.39,1.19,-0.7240364978793954,0.030108606742353078,0.6743108396735388,0.14201941077663233,59.02538593284516,-80.0647389825092,-73.06030500888313,1
1767482340.612287,2,right_wrist,0.9409,0.0068,0.1078,15.54,12.11,-10.85,-0.35520600450106615,0.5683244583611943,0.3244923377640818,0.6674883722786822,11.601714224487258,-81.58074690732097,-133.9800352293395,1
1767482340.66436,1,left_wrist,0.8115,0.0551,0.1005,-23.8,-2.24,1.75,-0.7248624137964684,0.041356071462949104,0.6720012918199919,0.14587124531781714,55.53678449301426,-80.49884708316144,-70.80495900900473,1
1767482340.66436,2,right_wrist,0.8667,0.0107,0.1113,17.71,5.81,-1.33,-0.36088510641113974,0.5666927510960992,0.3281334008416781,0.6640404634341418,10.646998043506926,-81.67026892879828,-132.1629618782489,1
1767482340.717697,1,left_wrist,0.7852,0.0752,0.08,-15.26,-3.64,1.68,-0.7248219999116067,0.050432687794809423,0.6712490382239317,0.14667767767924617,52.861889671190895,-81.06561441134447,-68.93475836619044,1
1767482340.717697,2,right_wrist,0.8477,-0.0161,0.0996,12.81,-6.79,6.23,-0.36643287450922407,0.570453040088056,0.32961413511982485,0.657012023833972,6.51289548950019,-82.37248929068235,-127.40117211152018,1
1767482340.771662,1,left_wrist,0.8062,0.1401,0.0561,-11.48,-3.5,0.84,-0.7216272022293206,0.051681836359841714,0.6733973917353366,0.1520497339596601,56.02548066273737,-80.9677640266689,-72.64313422377778,1
1767482340.771662,2,right_wrist,0.8452,-0.0063,0.1132,18.69,-20.93,16.03,-0.3755560405196211,0.5774378663563766,0.33095651463132486,0.6449736090338161,-3.4136733402021844,-83.4385161451687,-116.53340262154073,1
1767482340.8449569,1,left_wrist,0.8233,0.1405,0.0493,-9.17,-9.03,-5.88,-0.7161503552985772,0.05105783426154233,0.6778419513655322,0.15827841019927594,61.798597569909205,-80.76421432248705,-78.87921395749362,1
1767482340.8449569,2,right_wrist,0.9008,-0.0366,0.1074,-5.6,-29.54,22.54,-0.38387216276223024,0.5980024853764568,0.3243574884562169,0.6243616018159697,-36.023674886195245,-84.7239361909994,-83.80088864036274,1
1767482340.9160461,1,left_wrist,0.8965,0.1903,0.059,-20.58,-16.1,-11.97,-0.70191811721406,0.05047263908747512,0.687163525288082,0.1804709365628446,74.08528943339437,-79.38362765282301,-92.96417729477662,1
1767482340.9160461,2,right_wrist,0.9004,0.002,0.1288,-7.35,-30.94,21.77,-0.38310600546239076,0.6079285009617132,0.3223697614232195,0.6162227383154821,-52.268943673588296,-85.03140101843739,-67.82154352784956,1
1767482340.98469,1,left_wrist,0.9423,0.1693,0.081,-9.52,-8.96,-12.53,-0.7003632261888524,0.05019099066062486,0.686875348302675,0.1875485850464526,74.66714025391342,-78.79876499383775,-94.11645931337868,1
1767482340.98469,2,right_wrist,1.016,-0.001,0.0966,-21.63,-12.25,11.83,-0.3760274410999489,0.620324186704023,0.314328812124711,0.6123713455070258,-68.09434244360624,-84.9576672306399,-53.404696190568636,1
1767482341.0379992,1,left_wrist,1.0009,0.203,0.0649,-6.16,-2.52,-12.53,-0.6998771741169713,0.04635872595618912,0.6854087307118978,0.1955445768659075,74.55531913659972,-77.8321299794477,-94.36593209134918,1
1767482341.0379992,2,right_wrist,1.0619,-0.0059,0.0683,-20.86,-13.86,9.52,-0.36911551867366504,0.6262236702246043,0.3105822650604485,0.6124837184404323,-74.45604592890986,-85.12675355432481,-48.03544723319763,1
1767482341.1159291,1,left_wrist,0.9672,0.2225,0.0503,-6.79,3.92,-11.97,-0.698155808901815,0.042015664002882244,0.6844617351422912,0.20573109536735887,75.05975672592324,-76.65793887558543,-95.37742566795774,1
1767482341.1159291,2,right_wrist,1.0653,0.0268,0.0566,-3.92,-23.87,8.19,-0.3647102837108615,0.6320401144457335,0.3136455632413644,0.6075674146512254,-86.91701471095197,-85.41044439849922,-35.70499684686852,1
1767482341.166925,1,left_wrist,0.9135,0.244,0.0337,8.12,8.4,-9.45,-0.6976160427446042,0.03342983281589332,0.6847198996422087,0.20826176369469127,75.86381612885012,-75.75851602851921,-95.69883699447264,1
1767482341.166925,2,right_wrist,1.0297,0.0166,0.0537,15.26,-30.73,9.87,-0.3656028980168157,0.6365347025408029,0.32176059585476335,0.5980202441207028,-102.19080508581165,-85.27009848142916,-19.59367459335039,1
1767482341.218009,1,left_wrist,0.936,0.2591,0.0039,9.8,6.51,-6.79,-0.6965166662261438,0.026709669907866208,0.6862224846924105,0.20796593159747545,77.11712663716087,-75.24870798708453,-96.38179884970285,1
1767482341.218009,2,right_wrist,0.9736,-0.021,0.0395,29.54,-31.22,11.48,-0.37168437871455046,0.6388287363685841,0.3321475240299262,0.5860261005194959,-113.29261271634601,-84.6530784664487,-6.941904969190237,1
1767482341.286458,1,left_wrist,0.9789,0.2845,0.0283,5.25,-0.56,-6.3,-0.69336189251907,0.021136694815317072,0.689059104152581,0.20976195345939264,79.21094678460837,-74.66628916133287,-98.17552343382704,1
1767482341.286458,2,right_wrist,0.9931,-0.0722,0.0234,23.45,-26.6,8.33,-0.3831216323345019,0.642604170815743,0.348681116603836,0.5645344749538866,-124.96981455277106,-83.08172535655649,7.420752265836706,1
1767482341.338777,1,left_wrist,1.0058,0.3045,0.0386,6.65,-7.49,-11.69,-0.6880152757190298,0.01320845562796907,0.6933884064217638,0.2137125052894158,82.20647833036998,-73.69264507427421,-100.86362473657202,1
1767482341.338777,2,right_wrist,0.9736,-0.0996,0.0039,18.76,-21.84,8.54,-0.3886644717172852,0.6440752228943438,0.353343209969519,0.556107554027781,-126.39703600737111,-82.31322402471844,9.84952709440988,1
1767482341.388994,1,left_wrist,0.9838,0.2796,0.0517,7.84,-8.68,-16.87,-0.6863715087211905,0.007516677828003391,0.6943575703571463,0.2161138960315774,82.99242442462229,-73.0232705875631,-101.39252637256673,1
1767482341.388994,2,right_wrist,0.9008,-0.0815,-0.0551,20.86,-12.67,10.08,-0.394551922867566,0.6424889693968964,0.35843893137496696,0.5505072541207717,-126.3053579014597,-81.98648624634187,10.823651247499981,1
1767482341.466184,1,left_wrist,0.9277,0.2499,0.0371,11.55,-11.48,-16.8,-0.681112987839179,-0.0008757126881369003,0.699686480071065,0.21569228203586113,86.05900633804936,-72.31731714343238,-103.74470500438404,1
1767482341.466184,2,right_wrist,0.9101,-0.1601,-0.0805,24.08,-9.03,9.24,-0.40488859920913756,0.6437451416884937,0.3603194025761917,0.5402104616814261,-123.83409814407518,-80.8567563800922,9.584464668878738,1
1767482341.539973,1,left_wrist,0.9238,0.2484,0.0386,2.52,-17.78,-13.65,-0.6764878373515996,-0.0010920152194239796,0.7038973877072549,0.2165444088334284,88.30692182810164,-72.15389632785131,-106.04937469358552,1
1767482341.539973,2,right_wrist,0.9335,-0.1923,-0.1362,-12.32,-10.71,7.0,-0.4059059562362984,0.6573846445159974,0.35476757968474065,0.5265223150552154,-125.93423678498625,-78.59673721552402,11.376638630397487,1
1767482341.614911,1,left_wrist,0.9653,0.2806,0.0649,-3.57,-17.5,-5.81,-0.6684598510378804,0.002889548967059557,0.709550677385733,0.22291458964955432,91.27250420974597,-71.78688358220627,-109.88434899766716,1
1767482341.614911,2,right_wrist,0.9218,-0.1293,-0.1449,3.15,-7.56,12.18,-0.405768779504802,0.6617473698666125,0.35550418786059435,0.5206331611291996,-127.61883908230287,-77.83920095566573,13.169571386786462,1
1767482341.668149,1,left_wrist,0.9848,0.2811,0.0439,8.47,-10.22,2.31,-0.6681061179466845,0.003827432781734802,0.7112070299716421,0.218641547834413,92.183031619547,-72.17524145260226,-110.50765429739725,1
1767482341.668149,2,right_wrist,0.9897,-0.1967,-0.1444,15.33,-7.77,13.44,-0.413498911249622,0.6652931927925415,0.35468584137729353,0.5104915003658386,-126.0388431387548,-76.55103196912582,12.355061100595831,1
1767482341.7411141,1,left_wrist,0.9414,0.2918,0.0083,5.88,-3.01,3.01,-0.670079681084251,0.004517676290239598,0.7103028244723796,0.21550570559854143,91.73708935605742,-72.5284505232983,-109.84982184493012,1
1767482341.7411141,2,right_wrist,0.9594,-0.1649,-0.1191,-5.32,-11.69,9.8,-0.4121144023238644,0.6688402926274379,0.3545135111374614,0.5070843645551263,-127.2975222952349,-76.05253937412793,13.501097018263954,1
1767482341.8161228,1,left_wrist,0.9043,0.2196,-0.041,15.05,-3.99,9.59,-0.6687956506116346,0.006384272046843343,0.7175061887115889,0.1945674380618768,96.26441324513571,-74.19923952106464,-112.76016370859195,1
1767482341.8161228,2,right_wrist,0.9223,-0.1562,-0.1122,-17.08,-11.69,5.39,-0.4061727720611585,0.6727910230266958,0.3520208405154231,0.5083869062177558,-129.07274159295693,-75.93929257661193,14.465243298688248,1
1767482341.889198,1,left_wrist,0.9457,0.2611,-0.0268,-3.92,-11.41,7.91,-0.668079458491334,0.013819158923020875,0.7190162186426388,0.19103545565529823,97.63502651030291,-75.01639138133628,-114.43714036139077,1
1767482341.889198,2,right_wrist,0.975,-0.1762,-0.1039,10.36,-4.06,-1.68,-0.4096683352001611,0.6682021783867869,0.35735887532582816,0.5079097736402997,-128.8152790660904,-76.30506801910201,15.037804163777567,1
1767482341.965987,1,left_wrist,1.0063,0.2323,0.0034,-10.29,-14.56,11.34,-0.6653364230713891,0.029178073540998193,0.7211113614058425,0.19098295371686475,99.99637616317946,-76.09805760517825,-118.04227274625929,1
1767482341.965987,2,right_wrist,1.0224,-0.1176,-0.103,12.39,4.97,-1.54,-0.41274596683806153,0.662139155749076,0.36097481623753336,0.5107931942822788,-127.70493824959836,-77.01123288837437,14.526343506876712,1
1767482342.0388029,1,left_wrist,0.9677,0.266,-0.0288,-3.08,-9.94,11.27,-0.6635664060817519,0.031491005650646824,0.7224152564244574,0.19184404751788378,100.99904083167641,-76.12559884762686,-119.30678183877168,1
1767482342.0388029,2,right_wrist,0.9521,-0.2118,-0.1298,6.09,12.81,-1.89,-0.4228073376068376,0.6520543155634632,0.36175347646288514,0.5149694622867439,-122.08115985184442,-77.81743887274624,9.90506125069489,1
1767482342.1169689,1,left_wrist,0.9653,0.2582,-0.0903,6.51,-12.95,3.29,-0.6530018424214874,0.02894011780249876,0.7335231970433644,0.1862653558099359,108.28142934762761,-75.64197246960559,-125.92663005228871,1
1767482342.1169689,2,right_wrist,0.9326,-0.1781,-0.1562,2.1,12.46,1.33,-0.424283582909722,0.6513370721782867,0.36039298757587346,0.5156164797459858,-120.87378391291007,-77.82225734934144,8.708706270334591,1
1767482342.184413,1,left_wrist,0.9628,0.2596,-0.103,-4.34,-18.97,0.28,-0.6442313495751876,0.02991817821510396,0.740565461466404,0.18876882189565625,112.2604557426095,-74.90298731757167,-130.2085244226964,1
1767482342.184413,2,right_wrist,0.9526,-0.3152,-0.1044,-10.01,3.64,9.52,-0.4328679167712112,0.6561601155922172,0.3476922279712498,0.5110669075028712,-115.81346241413625,-76.3348661484641,3.357159583246429,1
1767482342.2384489,1,left_wrist,1.0375,0.3314,-0.0693,-14.56,-20.51,3.5,-0.6383537049813556,0.03416517500352367,0.7437330151304813,0.19544434081977977,113.72793609592914,-74.34080770370404,-132.59301821729713,1
1767482342.2384489,2,right_wrist,1.0634,-0.3133,-0.0805,-10.99,7.77,10.64,-0.4365096241545965,0.6583364395615608,0.33762597661983196,0.511919114975525,-112.48165622962466,-75.64634235804007,-0.5482850876703809,1
1767482342.312659,1,left_wrist,0.8574,0.2943,-0.1396,15.96,-5.18,-5.74,-0.6285209182326494,0.02308371703970078,0.7519180168651691,0.19760539786445447,116.1796115806608,-72.6143776502685,-134.34550589282435,1
1767482342.312659,2,right_wrist,0.9877,-0.286,-0.0273,-12.67,6.51,16.52,-0.4402384100833473,0.6605331926003564,0.3264648812186213,0.5131342174240366,-109.18161016344793,-74.86846951320135,-4.508888945702236,1
1767482342.370193,1,left_wrist,0.8999,0.1947,-0.141,6.93,-7.91,-8.61,-0.6251858999623108,0.02208323587454205,0.7556605394424676,0.19398987167154835,118.30451803602143,-72.44435842039985,-136.09142215731353,1
1767482342.370193,2,right_wrist,0.9223,-0.2586,-0.04,-26.32,10.78,19.53,-0.44103931015184616,0.6644119993985279,0.3107480473854038,0.5171814700878146,-106.02635751733992,-74.01781595305143,-9.04062949641783,1
1767482342.4385312,1,left_wrist,0.8999,0.1947,-0.141,6.93,-7.91,-8.61,-0.6224754237357216,0.021252358408911973,0.7588625372452943,0.1902638527748437,120.19672284043719,-72.33247824662904,-137.60821683653668,1
1767482342.4385312,2,right_wrist,1.0643,-0.244,0.022,-10.57,1.89,7.63,-0.43858234513994143,0.6654471700435728,0.29617404726903684,0.526409084398083,-102.6609064422768,-73.81943950331087,-14.033030719622372,1
1767482342.5162082,1,left_wrist,0.9496,0.2308,-0.1698,2.24,-5.67,-9.8,-0.6162896984513724,0.020002295591924454,0.7647270284034573,0.18702804009823598,123.10198196656273,-71.81774884714872,-140.15359864923184,1
1767482342.5162082,2,right_wrist,1.0263,-0.2679,0.0322,0.42,-3.5,10.29,-0.44178333157717325,0.6651458728670793,0.2934703079132257,0.5256268963074294,-101.5563640652066,-73.44319923403225,-15.056357753619782,1
1767482342.566944,1,left_wrist,0.853,0.1737,-0.2167,17.57,2.59,-2.03,-0.6154751788806754,0.01623215649333049,0.7673800879612734,0.179038045895069,124.97869596737364,-71.88219495660476,-141.0536578139381,1
1767482342.566944,2,right_wrist,0.9326,-0.2489,0.002,-5.53,-2.66,10.22,-0.4430387605855058,0.665660725614959,0.28960861805784716,0.5260601708352848,-100.7155188796104,-73.13102911220045,-16.119659109319482,1
1767482342.617097,1,left_wrist,0.895,0.1889,-0.2064,13.79,-0.35,5.11,-0.6145326289015639,0.01644752256874567,0.7701793257933961,0.1700086266549828,127.71750896370193,-72.2119430832109,-143.05539426245332,1
1767482342.617097,2,right_wrist,0.9326,-0.2377,0.0024,-12.04,-7.84,4.97,-0.4399067727340591,0.6678528793305216,0.2874438746720484,0.5270963685951141,-101.3854065987237,-73.12546062057265,-15.957890895540963,1
1767482342.670788,1,left_wrist,0.9711,0.2401,-0.202,9.24,-1.33,5.11,-0.6124064806612262,0.016972591486109127,0.7732599226136041,0.16352163667839142,130.24277739654968,-72.2977512053179,-145.08568160595055,1
1767482342.670788,2,right_wrist,0.9409,-0.2098,-0.0102,0.07,-8.82,0.35,-0.4380160695877461,0.6674345841863387,0.2906564432654836,0.5274389354258656,-102.15582814889517,-73.47311471069983,-15.091793096620705,1
1767482342.723549,1,left_wrist,1.0585,0.2586,-0.164,2.8,-13.72,4.41,-0.6107239768394067,0.018619172279467293,0.7748656854391618,0.1620269115486224,131.4288232709086,-72.26803597458377,-146.28488948648425,1
1767482342.723549,2,right_wrist,0.9667,-0.2445,0.0039,16.52,-11.27,-1.33,-0.4416105527556282,0.6641484292941724,0.2972287780578565,0.5249209817250458,-102.10368313259484,-73.69271964379986,-14.186046183540904,1
1767482342.785878,1,left_wrist,0.9306,0.1791,-0.1571,-32.06,-21.77,-7.56,-0.605131187396715,0.028109808521930096,0.776615391191628,0.17290060401565097,131.5472198873191,-71.73713643815552,-148.10136821769248,1
1767482342.785878,2,right_wrist,0.9506,-0.3684,-0.0844,53.2,-3.78,3.01,-0.46603084468232986,0.6501235625536127,0.316086164403719,0.510141296005154,-99.04867335547084,-73.31976318891228,-12.984697721689937,1
1767482342.83855,1,left_wrist,0.8306,0.3274,-0.1454,-49.7,-26.18,-17.36,-0.5943047852294768,0.0345422627761383,0.7788301484330094,0.1975658225186387,128.94589656029532,-69.9466436717972,-148.13451324766524,1
1767482342.83855,2,right_wrist,0.8916,-0.3177,-0.1747,54.81,1.26,14.42,-0.48377488838724875,0.6431390411932826,0.3240257768760011,0.4973342205989792,-97.07699961075286,-72.40578182654649,-12.302885984491526,1
1767482342.890076,1,left_wrist,0.7969,0.3655,-0.1118,-105.63,-13.86,-32.48,-0.5850992527812878,0.049680626909630106,0.7715467942267552,0.24475752087129363,121.45908284469058,-67.99976524931365,-145.94951725148974,1
1767482342.890076,2,right_wrist,0.8735,-0.5441,-0.1444,56.35,-7.91,29.12,-0.505907818474454,0.6393514607139218,0.32740567621795996,0.4775903182327441,-95.45790328345149,-70.38512263211086,-11.091280980650009,1
1767482342.970143,1,left_wrist,0.8706,0.8623,-0.0766,-123.55,9.31,-91.91,-0.5565470996966342,0.05500895916286388,0.7421888207056611,0.369303526453002,102.4758826351092,-60.08383517648902,-138.66154531478932,1
1767482342.970143,2,right_wrist,0.9282,-0.5012,-0.1337,81.62,-8.12,54.04,-0.5388347136736779,0.6328582913631265,0.3291486027787008,0.44811687279322415,-92.61809151260509,-67.20579533328973,-9.855541121044428,1
1767482343.03828,1,left_wrist,0.8862,0.9687,0.0122,-137.13,22.05,-136.15,-0.5355072934618037,0.03762445235574474,0.7143430639669457,0.4489212917611061,92.22973390813367,-53.02068033371883,-134.76998842107955,1
1767482343.03828,2,right_wrist,0.9477,-0.754,0.0727,120.05,-11.55,119.0,-0.6376878635760075,0.6098474152296639,0.314814766072671,0.34975989170883287,-84.06575764540557,-55.90481464854629,-6.360019285543372,1
1767482343.088473,1,left_wrist,0.8174,1.0097,0.1347,-119.21,37.52,-175.77,-0.5076352484737968,0.0005229474725968251,0.6805043164387518,0.528412770796765,84.13450407032222,-43.74488934382604,-132.12982762445665,1
1767482343.088473,2,right_wrist,0.9189,-0.9262,0.1972,146.86,3.29,156.31,-0.7003775956448804,0.5872196277883541,0.2900860156580208,0.28371541336074385,-77.81720508371724,-47.692757041244505,-4.834457575934157,1
1767482343.1621802,1,left_wrist,0.7159,1.1322,0.4348,-130.34,75.67,-224.07,-0.4326318918816507,-0.10051114265526488,0.571421043392081,0.6900761896325232,69.53610130918574,-20.83691840531258,-130.37775383885014,1
1767482343.1621802,2,right_wrist,0.8325,-1.0804,0.4168,162.47,37.45,193.62,-0.7681759030456679,0.5529063596873908,0.24447701125090351,0.21078740561768847,-70.17737668411964,-37.49513709638303,-3.866281256269977,1
1767482343.2169669,1,left_wrist,0.5724,1.1351,0.6271,-104.58,117.11,-219.52,-0.39936992387428055,-0.16784280349434735,0.5021224780332272,0.7484687530375472,63.613807021160156,-8.616208242586676,-129.1827033833926,1
1767482343.2169669,2,right_wrist,0.7979,-1.0224,0.5958,134.4,72.03,210.28,-0.8244052072910351,0.5176742578497556,0.17909728210210724,0.1424555386595006,-63.51410326377017,-26.281940252806553,-3.161795465343134,1
1767482343.2687502,1,left_wrist,0.4407,1.0868,0.7281,-80.08,152.46,-203.28,-0.37212872209197817,-0.24314239792302003,0.4307658900407226,0.785393364183744,59.229006729182764,3.5158198914204406,-127.2968324639924,1
1767482343.2687502,2,right_wrist,0.693,-1.0648,0.7076,120.61,106.68,219.59,-0.8691794840225414,0.47814093066299634,0.09845693718077703,0.07883214128775735,-57.3133232913644,-14.272816673134164,-2.536275837758447,1
1767482343.33567,1,left_wrist,0.2938,0.9335,0.7135,-74.83,168.56,-184.59,-0.3486166904144887,-0.3176717585852674,0.35635354003436687,0.8065749881237126,55.65263428882162,15.306983094626702,-125.13595030525836,1
1767482343.33567,2,right_wrist,0.3821,-0.9126,0.7515,62.58,166.39,178.22,-0.9083844869820493,0.4089607805551511,-0.08686798038930897,-0.006531290926239395,-48.75773463496797,9.39042770566139,-3.439194987328364,1
1767482343.3868291,1,left_wrist,0.0883,0.7452,0.6915,-52.64,178.64,-166.04,-0.3254527541224813,-0.39254787859948553,0.28643567165873396,0.811135792480239,53.76770794232611,26.76785601697676,-122.51913761615862,1
1767482343.3868291,2,right_wrist,0.1972,-0.8316,0.5978,13.44,177.24,157.29,-0.8990004122467111,0.39773381385787576,-0.18004570512726398,-0.03449081268306688,-48.63377671364992,20.55819977899733,-4.975473226745424,1
1767482343.462425,1,left_wrist,-0.2294,0.507,0.4148,-53.27,161.21,-139.86,-0.27948951126298005,-0.5195969212088143,0.1516171805754049,0.793042800306936,52.049547687021935,47.67814885676108,-116.82249429425976,1
1767482343.462425,2,right_wrist,0.0185,-0.6515,0.5851,20.09,161.84,144.62,-0.8846999948931308,0.3797703154629326,-0.2637246691819569,-0.059411492105032,-48.21694609345632,30.78112499948979,-6.361129900136577,1
1767482343.517036,1,left_wrist,-0.3889,0.4109,0.3231,-66.99,140.56,-121.17,-0.2634719880271108,-0.5635546997816188,0.08591230741799707,0.7782079974616086,50.89610535128507,56.28972178121417,-114.02723354162276,1
1767482343.517036,2,right_wrist,-0.1649,-0.5939,0.5305,10.01,147.07,130.97,-0.8641493095877499,0.3641378719519412,-0.3374465917325977,-0.08233698244033794,-48.53151067710147,40.028794109176395,-7.764578043315139,1
1767482343.593089,1,left_wrist,-0.5353,0.3162,0.161,-72.31,119.42,-102.41,-0.25062465907820064,-0.6004026655255471,0.024471494612166887,0.7590158532225796,50.58814704358843,64.04839057053006,-110.52137730165806,1
1767482343.593089,2,right_wrist,-0.5095,-0.2625,0.2918,15.47,144.34,91.7,-0.8123846256965935,0.3215672332981918,-0.4739236842348435,-0.10964522753874885,-50.58492452499055,57.19647289657757,-13.519264142527232,1
1767482343.6710231,1,left_wrist,-0.6803,-0.0229,-0.2586,1.26,30.73,-18.69,-0.23329545851743608,-0.6397300647182277,-0.02323172860329483,0.7319692344059648,55.70091806024387,71.32769920658122,-103.11355890303975,1
1767482343.6710231,2,right_wrist,-0.5558,-0.2655,-0.1503,-15.75,115.08,55.72,-0.7801309633084514,0.32233054180401755,-0.5234823896747755,-0.11603831095005925,-57.37842232525343,63.07183594923251,-20.205706104319923,1
1767482343.734404,1,left_wrist,-0.915,0.1893,0.0322,17.71,2.38,-4.27,-0.225303598784701,-0.6448384864073112,-0.02036758367883769,0.7300731308284644,57.286375741922384,71.94071933521866,-102.45206478369418,1
1767482343.734404,2,right_wrist,-0.7642,-0.3797,0.0278,2.87,-2.8,10.78,-0.7619582668920386,0.3247152054856969,-0.5468169309281271,-0.12235554295415671,-62.10635198751062,65.89026317851192,-24.38655568243172,1
1767482343.790199,1,left_wrist,-0.9736,0.1118,0.0922,1.96,-4.9,-4.9,-0.220229345952971,-0.6448595085880757,-0.023932737063817048,0.7314933174413188,56.12665227050574,72.54679449830947,-103.75435311491903,1
1767482343.790199,2,right_wrist,-0.9443,-0.3753,0.2499,-15.68,-2.59,2.8,-0.7624165614177904,0.32780936004902583,-0.5430988353016157,-0.12769363897293154,-61.61300190209198,65.7627521124624,-23.14456360155085,1
1767482343.86943,1,left_wrist,-0.9721,0.2211,0.1513,2.73,-8.89,8.05,-0.21571058865381784,-0.6438992132790554,-0.021757515910322926,0.733750199715577,55.36344953606199,72.61316329442033,-105.07639378177944,1
1767482343.86943,2,right_wrist,-0.8945,-0.2411,0.0522,-17.08,-12.18,-11.13,-0.7611852999348075,0.33496196198753214,-0.5396470587865051,-0.13106668198933813,-62.33554924365022,65.41533913633043,-22.91499750253244,1
1767482343.940039,1,left_wrist,-0.9433,0.2255,0.1342,1.68,-13.09,8.96,-0.2165291868733765,-0.6424774171086275,-0.01891074216345868,0.7348334937713497,55.25069995957684,72.25404221057634,-105.34834101895323,1
1767482343.940039,2,right_wrist,-0.9038,-0.407,0.1835,1.82,-12.67,-11.76,-0.7653670209500842,0.34562350792425445,-0.5285804119886263,-0.1239373312366394,-63.058904822612405,63.48112746180013,-23.168228328278413,1
1767482344.01283,1,left_wrist,-0.852,0.2523,-0.0185,23.8,-43.05,30.8,-0.220309421763351,-0.6323481986425914,0.004345352897011516,0.742684746217376,54.916566895294366,69.61218170193848,-107.23140551939181,1
1767482344.01283,2,right_wrist,-0.8428,-0.3289,0.0488,-17.08,-10.71,-25.83,-0.764237194328823,0.35743419711562446,-0.5229657234947546,-0.12119883492148663,-64.79287062989117,62.37247775742823,-23.99861442380406,1
1767482344.065983,1,left_wrist,-0.7115,0.143,-0.1259,58.8,-72.59,57.89,-0.22119151231882858,-0.6167201838023647,0.04542646449298654,0.754100103495918,55.4328272259785,65.51110264594807,-109.95410286719023,1
1767482344.065983,2,right_wrist,-0.7579,-0.3577,-0.0468,-27.44,-34.51,-43.89,-0.7675270377166344,0.37621235424692634,-0.5054558969996391,-0.11781700672739617,-65.80598916143543,59.83142482109817,-23.384721711128957,1
1767482344.138344,1,left_wrist,-0.5539,0.2211,-0.0493,61.11,-112.21,85.68,-0.2296869215760965,-0.5858243550999288,0.09945212189280944,0.7708197055600399,55.178008625953645,59.03081881057348,-113.85506409453693,1
1767482344.138344,2,right_wrist,-0.5475,-0.4153,0.0708,-80.64,-107.17,-114.17,-0.7837437996623436,0.4577968976928956,-0.40425782264420534,-0.11288609207762876,-67.9257058814865,47.478767622047826,-16.60903205860373,1
1767482344.216485,1,left_wrist,-0.1581,0.4265,0.284,62.86,-188.16,152.11,-0.26920697676772676,-0.46142097638849305,0.24871758003998834,0.8079343114308999,55.29104697654962,37.71127008488702,-122.85942511556014,1
1767482344.216485,2,right_wrist,-0.4904,-0.4412,0.2381,-107.31,-112.56,-156.17,-0.7883076574944876,0.5127411757381911,-0.3250486306957182,-0.10005454273050145,-70.5242786769763,37.95779283257931,-12.867156918144403,1
1767482344.271334,1,left_wrist,0.0386,0.6412,0.5466,71.75,-192.85,190.4,-0.3007659351689589,-0.37491790463706537,0.3343397488821844,0.810674626062696,57.16740282603149,24.00126733350278,-126.07675370311627,1
1767482344.271334,2,right_wrist,-0.2289,-0.2596,0.1191,-45.78,-102.62,-207.06,-0.79946736569163,0.5477350548434038,-0.23948868362194467,-0.05902043126585292,-71.39757660678576,26.58864619681205,-10.82729607584845,1
1767482344.339062,1,left_wrist,0.0386,0.6412,0.5466,71.75,-192.85,190.4,-0.32784719007263874,-0.2822870097335399,0.414182208577992,0.8008016996701668,59.61246865417698,10.400917052113234,-129.50256498566046,1
1767482344.339062,2,right_wrist,0.2782,-0.9526,0.2938,-83.86,-73.36,-291.69,-0.7678993881025489,0.6344972713782284,-0.03401569490131192,0.08115833207807123,-78.88606244443895,-2.908908207521903,-9.673014128862155,1
1767482344.389163,1,left_wrist,0.4943,1.0551,0.3562,204.61,-133.35,272.09,-0.3707051892215149,-0.21000671414457278,0.5342291287981893,0.7301192235806205,69.97900572575192,-5.130421774363954,-129.75542117332333,1
1767482344.389163,2,right_wrist,0.568,-1.1541,0.124,-150.71,-63.49,-316.12,-0.7059660843128124,0.684197763474958,0.07223180188824012,0.16813052980312265,-86.75998116818685,-19.393581703234602,-8.446235975415256,1
1767482344.46418,1,left_wrist,1.037,1.2073,0.3289,219.8,-12.6,308.63,-0.48611240232031144,-0.08355631125118221,0.7098351003996848,0.502839144658648,91.56297910695454,-37.30721195953674,-130.20291563411322,1
1767482344.46418,2,right_wrist,0.7003,-0.7945,0.0839,-239.26,3.78,-348.53,-0.5979279136713253,0.7331671997826117,0.15834040073408967,0.28262410497151114,-99.03704382309319,-37.14065254272018,-7.626740873827033,1
1767482344.515845,1,left_wrist,1.2176,1.4484,-0.0947,187.67,16.73,237.37,-0.5323608086618418,-0.05061750346993843,0.7510059286862563,0.38732406692777893,101.83005334733436,-49.49960536636663,-131.23185802995812,1
1767482344.515845,2,right_wrist,1.1605,-0.4812,-0.0898,-439.25,60.97,-338.94,-0.4060521874281952,0.7922962111112367,0.19391046706858167,0.41205226089029157,-124.36161790356414,-54.13605082130171,-2.6767457196217914,1
1767482344.569676,1,left_wrist,1.1161,0.3587,-0.0395,45.71,35.98,126.56,-0.566004693968802,-0.022787271978592944,0.751080396708542,0.33911305536825853,103.58018413996835,-56.592431211708764,-130.59018945187316,1
1767482344.569676,2,right_wrist,1.6616,-0.5256,-0.4412,-167.79,132.3,-257.39,-0.3077112933546137,0.7663610321208385,0.2289621429781326,0.515345384641771,-139.8622732462565,-68.55825374707284,5.3021412093888936,1
1767482344.6378272,1,left_wrist,0.9687,0.5939,-0.2572,114.17,28.0,143.71,-0.5911944303255875,-0.0076245430899014805,0.7622646429524297,0.2634077181847165,111.55749594084398,-63.802352376764716,-132.96112780143238,1
1767482344.6378272,2,right_wrist,1.1649,0.1064,-0.4446,55.86,78.12,-91.07,-0.19261761124413365,0.7288944960494098,0.2612494891290795,0.6027934753273924,170.26245096230508,-78.34682111820523,47.37791568516904,1
1767482344.6987278,1,left_wrist,1.016,0.426,-0.2347,28.49,26.25,122.36,-0.6112118560254309,0.023959327102600618,0.7600383455710037,0.21951704025070617,117.20405860947267,-69.98580503436685,-137.34083440441304,1
1767482344.6987278,2,right_wrist,1.1624,-0.2777,-0.3401,15.12,55.65,-91.35,-0.18269314836395895,0.7038730142470824,0.28684850813597595,0.6236216214466558,147.0930919297041,-79.33046367104065,71.8648041761142,1
1767482344.764499,1,left_wrist,0.9931,0.467,-0.2118,-1.4,21.98,74.55,-0.6393265678389741,0.0719517632109734,0.7479177827175074,0.16341197545160885,130.26520280016152,-78.4765363274304,-149.523734627768,1
1767482344.764499,2,right_wrist,1.1019,-0.0468,-0.3113,32.2,40.6,-54.25,-0.1846245378797692,0.685767883456424,0.30756330287137107,0.6332779837948191,133.58305091839725,-79.15228758912575,87.34199138444606,1
1767482344.820566,1,left_wrist,0.9672,0.3631,-0.242,-14.21,12.74,48.86,-0.6440238091622902,0.08828384057022547,0.7434015497163555,0.1574593046014932,135.1146046413829,-80.17677406400131,-155.20291526410676,1
1767482344.820566,2,right_wrist,1.038,-0.0917,-0.2913,42.7,38.15,-39.69,-0.19369478832793882,0.6688332197451566,0.32638867137944094,0.6392299182102519,124.2591115925523,-78.96665732037017,99.1062404899821,1
1767482344.8844259,1,left_wrist,0.9672,0.2664,-0.1991,-8.26,9.31,32.13,-0.6465628717491705,0.09780760186501761,0.7407066535387035,0.15409016612482146,138.83595764785298,-81.10346542067012,-159.4190187457928,1
1767482344.8844259,2,right_wrist,0.9999,-0.0044,-0.224,27.51,14.56,-14.14,-0.20415172192750422,0.6538952706349719,0.34426564082393407,0.642046897059193,117.77070132878053,-78.58740636330745,108.10355938329931,1
1767482344.943104,1,left_wrist,0.9511,0.2523,-0.1903,0.49,-0.21,19.95,-0.6455941794891081,0.1015129339640606,0.7416856100748264,0.15101567950291084,142.42747669633786,-81.23284366032965,-163.06083038199498,1
1767482344.943104,2,right_wrist,0.9848,0.0654,-0.1698,10.64,4.97,-4.41,-0.20864291808589094,0.6535716809348519,0.34671777133514925,0.6396084565208496,119.01584371000916,-78.73681597945573,107.46669997345731,1
1767482345.0164092,1,left_wrist,0.9677,0.0781,-0.1562,3.78,-0.84,1.33,-0.642126884737119,0.10231228354796885,0.7456801244850457,0.14548681205170857,147.24351630941655,-80.89959422240358,-167.49097240587807,1
1767482345.0164092,2,right_wrist,0.9789,0.1293,-0.1279,5.95,2.1,-1.12,-0.2120121453627048,0.654923963262197,0.34741494197418266,0.6367325267777004,121.06973296156431,-78.91265251301465,105.76593622455059,1
1767482345.066887,1,left_wrist,0.9775,0.0264,-0.1259,2.94,-3.43,-2.38,-0.6421233550484422,0.10411967600542202,0.7462035795974307,0.14148112158814327,150.22142899221154,-81.03048329688929,-170.28556716108832,1
1767482345.066887,2,right_wrist,0.9711,0.1444,-0.0976,2.59,-3.01,1.54,-0.21625505041980034,0.6572656193189216,0.3449777469124585,0.6342129082291276,123.64149318968744,-79.38869663241097,103.33477158337111,1
1767482345.121351,1,left_wrist,0.9716,0.0073,-0.1069,-2.31,-5.25,-4.9,-0.6418993188365145,0.10620537037295699,0.7463059818699285,0.14040322363223692,151.79080568707192,-81.08885583573876,-171.93732134284917,1
1767482345.121351,2,right_wrist,0.9862,0.1762,-0.08,2.17,-5.88,1.96,-0.21523698093578586,0.6563850055079106,0.3463521814318209,0.6347219336051396,122.88920822973019,-79.21599275873072,104.1257110473114,1
1767482345.193197,1,left_wrist,0.9765,0.0444,-0.0952,-8.19,-3.92,-6.16,-0.6425239276284923,0.10790032098410046,0.7449383831747028,0.1434828506457949,150.5713447364648,-81.20628715777535,-171.11045956797113,1
1767482345.193197,2,right_wrist,0.9716,0.1552,-0.1054,20.93,-9.66,8.68,-0.2232931904492417,0.6583845049844539,0.35493559112038303,0.625052574469859,128.4617679463768,-78.97962293744867,100.04435782220636,1
1767482345.2646232,1,left_wrist,0.916,0.1601,-0.1708,-9.59,-2.94,-22.68,-0.6375502453693233,0.10220480587562868,0.7469805342157397,0.15844224117390185,142.13934046503593,-80.01803475893023,-163.4623941637797,1
1767482345.2646232,2,right_wrist,0.9599,0.1347,-0.1737,32.9,-12.53,12.11,-0.2336404990371651,0.6626578632891863,0.3622675167795014,0.6124205415538314,136.38295939040984,-78.79296579901494,93.71512074154144,1
1767482345.315594,1,left_wrist,0.9111,0.3436,-0.2118,-25.76,2.52,-65.03,-0.6303585566359367,0.08505208909491598,0.7483665539052644,0.18804715688467077,127.68200977326585,-77.2821820513666,-150.09035322746328,1
1767482345.315594,2,right_wrist,0.9862,0.0034,-0.2474,58.87,-22.05,27.23,-0.25590632796492685,0.669157188890511,0.3710769421897908,0.5907981980665907,150.68633025008154,-78.69442799395327,82.22569344111072,1
1767482345.365978,1,left_wrist,0.9111,0.3436,-0.2118,-25.76,2.52,-65.03,-0.6221565090722431,0.06797645059534164,0.7491441776684415,0.21698728407207069,118.69848018368458,-74.08507298460725,-142.17707549841714,1
1767482345.365978,2,right_wrist,1.0497,-0.1054,-0.3021,73.08,-31.22,63.49,-0.29028608029565234,0.6811089535259532,0.37288248913262184,0.5592702694687309,173.99720304778975,-78.05124607147445,62.26515977178565,1
1767482345.417145,1,left_wrist,0.9984,0.7627,-0.0737,-140.63,-8.12,-212.03,-0.5906577718345245,0.034264361921663114,0.7391950082180275,0.32177645951673656,102.33395610919771,-63.543579476410066,-132.31046644515393,1
1767482345.417145,2,right_wrist,1.077,-0.2406,-0.2948,175.28,-37.1,123.34,-0.3674980314737841,0.6868349295223392,0.37956422757849273,0.4991332222900806,-151.47058520985675,-74.71413257097842,35.88568417086502,1
1767482345.4889889,1,left_wrist,0.9506,1.0663,0.0854,-213.08,10.36,-240.52,-0.5508375873622722,0.0072629758388901376,0.7019305690202619,0.4514628199594805,88.67435018547413,-51.24752179310925,-128.8967542979758,1
1767482345.4889889,2,right_wrist,1.2912,-0.9677,-0.1913,214.2,-25.69,242.55,-0.5529135999141315,0.6892911649900489,0.3325113280836131,0.32954583534423365,-107.5133622642001,-55.28612285679078,9.498205484291121,1
1767482345.566197,1,left_wrist,0.9335,1.3513,0.5622,-171.08,104.51,-289.52,-0.4711366516200586,-0.11396060384673382,0.5610112359066357,0.671051137736638,68.17378391452692,-22.06629310332033,-124.88872349895367,1
1767482345.566197,2,right_wrist,1.2488,-0.9701,0.0156,197.96,-5.95,301.77,-0.6497163649738907,0.6760439763783838,0.26633815093930985,0.223376758956358,-94.21273780713119,-40.39952105955932,5.262621309520705,1
1767482345.62163,1,left_wrist,0.8169,1.2605,0.7257,-141.75,151.76,-278.67,-0.43125139008868757,-0.19228243090315944,0.46756004688089947,0.7472866303322155,60.51825118773051,-6.655057327970332,-123.90781656706702,1
1767482345.62163,2,right_wrist,1.0868,-1.0878,0.1684,189.7,42.35,329.42,-0.7346265370284736,0.644918604794558,0.17307887764371954,0.12019794672532283,-83.18625399551672,-24.162907705812657,2.930315233662936,1
1767482345.684711,1,left_wrist,0.6442,1.058,0.7964,-107.31,190.47,-251.44,-0.3954390086969562,-0.2787667092945135,0.3722303582917239,0.7920616595669127,54.990094407548604,8.465394414404031,-122.52668867537628,2
1767482345.684711,2,right_wrist,0.6544,-1.1878,0.5998,159.11,148.89,285.04,-0.8453587107015181,0.5302135284899765,-0.0572811955616838,-0.031002081902674512,-64.22365683371646,7.453514292532032,-0.4811599585320953,2
1767482345.737809,1,left_wrist,0.6442,1.058,0.7964,-107.31,190.47,-251.44,-0.3511436506576778,-0.3596752979304506,0.2708856703532688,0.8209462651469345,49.551961006937645,23.59747313323863,-122.67013654518823,2
1767482345.737809,2,right_wrist,0.4724,-0.936,0.5998,76.3,184.38,240.66,-0.8485029523575104,0.4935088799154306,-0.17681611155832566,-0.07230344375338585,-60.982931760420854,21.803389885083874,-3.19956869602737,2
1767482345.789539,1,left_wrist,0.2562,0.7218,0.5685,-54.95,217.56,-189.28,-0.3173091413346828,-0.44498607493419245,0.1891476334136028,0.8157974471118065,47.985302061569854,37.30086874816543,-120.40608082981879,2
1767482345.789539,2,right_wrist,0.2191,-0.5612,0.367,35.7,187.11,204.96,-0.8304107868617479,0.46721812662281265,-0.2857584066565408,-0.10230972702454645,-60.85450439791756,34.76386977564203,-6.788403411570726,2
1767482345.866226,1,left_wrist,-0.0005,0.3928,0.3113,-44.1,197.4,-159.74,-0.2506630014734437,-0.5825187894025329,0.04313364040516843,0.7719970263872327,48.47010297987575,61.37589792087944,-114.10846160324716,2
1767482345.866226,2,right_wrist,0.0102,-0.4743,0.2572,4.69,166.11,158.27,-0.8008485795994581,0.4520779793662584,-0.3732089141359207,-0.12240163207710192,-63.702406147235706,45.10795400873755,-11.556353817874333,2
1767482345.919874,1,left_wrist,-0.4909,0.2294,0.124,-77.28,110.11,-89.6,-0.2419404785034913,-0.6139218653129553,-0.015895408651753547,0.7512070847216212,48.03257265484427,68.44360762546073,-110.57617304795029,2
1767482345.919874,2,right_wrist,-0.2552,-0.4172,0.224,24.92,140.84,130.69,-0.7747445645094435,0.4290683325874266,-0.4447566461867207,-0.13365160457868916,-66.60624742252335,53.49808029961903,-17.065787282760777,2
1767482345.986903,1,left_wrist,-0.6383,0.2342,-0.1801,-6.65,100.52,-46.06,-0.2272324103050907,-0.6480071549392012,-0.040568709226954096,0.7258142590816191,56.34171231888864,73.55718373916278,-101.5974276862474,2
1767482345.986903,2,right_wrist,-0.6202,-0.0532,-0.346,-69.86,90.23,60.97,-0.7055386998938645,0.42929645473978245,-0.5414072546853094,-0.15747343100995076,-84.07575654681831,64.04958853135878,-33.675631733173,2
1767482346.037972,1,left_wrist,-0.651,-0.0849,-0.3157,24.71,42.07,-7.84,-0.2148704272447526,-0.6661586888209676,-0.04097704746611964,0.7130106467542726,64.41153046575131,75.36748945492637,-94.56970970550017,2
1767482346.037972,2,right_wrist,-0.6188,-0.0078,-0.3265,21.35,4.06,6.09,-0.7052608621971803,0.42165010271025455,-0.5484958114495138,-0.1548245844808285,-84.25782907834798,64.71962313187977,-34.87208432968304,2
1767482346.1209831,1,left_wrist,-1.0199,0.223,0.0844,24.15,1.61,-4.34,-0.19741326919108834,-0.6757807369164709,-0.02975703570670624,0.7095512071625756,69.29885301669205,76.10822156387482,-92.07589318857733,2
1767482346.1209831,2,right_wrist,-0.9057,-0.6012,0.1708,30.52,-7.35,-2.59,-0.714928231687848,0.4130346060305136,-0.544881275603253,-0.14623417266110278,-81.42627045630054,64.14513094833666,-33.55041169125749,2
1767482346.1931882,1,left_wrist,-0.9945,0.1967,0.0766,7.35,-1.96,-0.98,-0.1917062408854207,-0.6766438037387803,-0.031049544518272028,0.7102378516051533,69.06466464713995,76.67064122489505,-92.68592935398134,2
1767482346.1931882,2,right_wrist,-0.9213,-0.4304,0.0244,2.87,-8.54,0.14,-0.708413063153952,0.41712187231692316,-0.5488695677415558,-0.15133563094941258,-83.35411203603431,64.67601176941763,-34.695631520963964,2
1767482346.266573,1,left_wrist,-0.9496,0.2318,0.1342,-1.26,-9.59,5.81,-0.19654566696397377,-0.6720308139025432,-0.021735510638514904,0.7136329263286939,67.66136753790767,75.40034163945836,-94.43435683435827,2
1767482346.266573,2,right_wrist,-0.9199,-0.4177,0.0776,8.89,-8.12,-3.08,-0.7141824527273679,0.4121608385909963,-0.5451410243086007,-0.15128823802284558,-81.16217802632191,64.60470082488467,-32.95258967458282,2
1767482346.319618,1,left_wrist,-0.9648,0.2372,0.1122,-0.56,-9.17,5.81,-0.19985754210179804,-0.666602649076623,-0.018607958388383885,0.7178799446938692,65.23617413766738,74.69170961067049,-96.82963742243683,2
1767482346.319618,2,right_wrist,-0.8613,-0.3538,0.042,8.61,-9.38,-7.91,-0.7166322505657636,0.40903667708952174,-0.5443339125561113,-0.15108873513921084,-80.2097022645509,64.65895108802394,-32.30779528135363,2
1767482346.372434,1,left_wrist,-0.9223,0.2206,0.0371,-4.2,-20.16,9.31,-0.20321664021064995,-0.6626618727599439,-0.01587115748654743,0.7206457839270388,63.80283568404571,74.05785555782859,-98.19769858638327,2
1767482346.372434,2,right_wrist,-0.8691,-0.4343,0.0717,9.87,-14.35,-10.15,-0.7232259613776598,0.41023861790996763,-0.5363552081593811,-0.14481566160117648,-78.63402364219054,63.46094085468802,-31.07113511654275,2
1767482346.4345589,1,left_wrist,-0.9223,0.2206,0.0371,-4.2,-20.16,9.31,-0.2063917422566782,-0.6586824834273542,-0.013309722023402233,0.7234381010521119,62.42748853595313,73.44085526526881,-99.50821120119954,2
1767482346.4345589,2,right_wrist,-0.772,-0.324,-0.0703,-8.47,-31.08,-42.84,-0.7319490588531177,0.42530570289473474,-0.5147297178962164,-0.1357164391064418,-77.3550171422696,60.337292868560205,-28.89825056343545,2
1767482346.488384,1,left_wrist,-0.6115,0.081,-0.2137,63.91,-68.04,67.34,-0.20808036932968607,-0.6455503089224929,0.03134447685820928,0.7341558978310947,62.392003536427005,69.19985740858091,-103.00869502891761,2
1767482346.488384,2,right_wrist,-0.652,-0.242,-0.0752,-19.95,-64.75,-79.17,-0.7442923642231091,0.44540706698311006,-0.4808971213542652,-0.12798195151605957,-75.39415973024582,56.084794910947096,-25.234945658178937,2
1767482346.5509691,1,left_wrist,-0.4743,0.0913,-0.0996,74.69,-112.49,120.82,-0.2220104756435459,-0.6158457990735333,0.09812417317138326,0.7495444930805908,62.14855344004551,61.59878248822106,-107.48257347019893,2
1767482346.5509691,2,right_wrist,-0.551,-0.3709,-0.0869,-39.76,-87.99,-115.99,-0.7574695376689928,0.4786856466028009,-0.4288065585148681,-0.1149995070190123,-74.48208177766554,49.43890648129958,-21.309707908816293,2
1767482346.6183832,1,left_wrist,-0.1254,0.4407,0.2674,69.86,-160.09,233.66,-0.29649745263265287,-0.49318086416341944,0.29672899507470163,0.7621114087109103,65.62409940604766,35.152784829364336,-114.39703735205046,2
1767482346.6183832,2,right_wrist,-0.3787,-0.2884,-0.0527,-63.28,-116.69,-195.79,-0.7694491548291463,0.5293581343680258,-0.3468604998016742,-0.08611479192593995,-75.23652107057494,38.678823587376804,-17.49657728965378,2
1767482346.691541,1,left_wrist,0.063,1.1034,0.385,124.74,-153.09,264.11,-0.3366669873793823,-0.4171656793159342,0.41357795312911844,0.7359221509747443,70.7968000245194,19.604578051210748,-116.83515319187201,2
1767482346.691541,2,right_wrist,0.1137,-0.6446,0.2962,-69.09,-110.46,-304.36,-0.7764672581254017,0.6164320499456845,-0.12618191973713214,0.034470973157628246,-77.8381125481858,8.827157843420832,-12.21628499429258,2
1767482346.765447,1,left_wrist,0.5675,1.4747,0.204,172.69,-104.51,304.99,-0.4234356363047704,-0.2656382110605425,0.6331957891141273,0.5909329026038967,86.64849219854685,-12.843371929455113,-120.8715174562336,2
1767482346.765447,2,right_wrist,0.4397,-0.9243,0.5324,-186.48,-76.23,-344.68,-0.7152457977988718,0.6882694379865745,-0.007056053648959302,0.12107370305563218,-86.95467147616033,-9.007806407656682,-10.672315786151303,2
1767482346.8168802,1,left_wrist,0.5675,1.4747,0.204,172.69,-104.51,304.99,-0.45037170371486834,-0.18057263671829446,0.7229205582818715,0.4918787632892855,97.20329494073353,-28.263436735558724,-126.92275986011637,2
1767482346.8168802,2,right_wrist,0.754,-1.0941,0.0595,-347.2,-27.79,-363.79,-0.5768953589458052,0.7801291765889343,0.09386486149407366,0.22311342505138534,-105.30258701440506,-27.156014261433764,-7.164652723181018,2
1767482346.887288,1,left_wrist,1.2659,1.1658,-0.0649,150.36,2.8,296.03,-0.5005033075309852,-0.11287320921297292,0.7697000517227708,0.37989196907867395,106.77599694175639,-43.21324417431474,-130.51940653525998,2
1767482346.887288,2,right_wrist,1.5987,-0.894,-0.3128,-250.53,98.77,-315.98,-0.34639104858060993,0.7865347917054623,0.22178718037285464,0.4606372862918605,-134.5833717305172,-61.43373755316244,3.5688523295181303,2
1767482346.939925,1,left_wrist,1.2659,1.1658,-0.0649,150.36,2.8,296.03,-0.5401075730779794,-0.0451329380210285,0.7983704373264375,0.26239564061279325,120.80370207310932,-57.00588094354652,-139.24345756963507,2
1767482346.939925,2,right_wrist,1.6163,0.1083,-0.3289,-67.34,122.78,-211.4,-0.2884139259341771,0.7452647200608931,0.2627851480817936,0.5406864806035226,-149.65791059905573,-73.23401306895815,16.06089813460328,2
1767482347.015878,1,left_wrist,1.0629,0.3533,-0.3016,4.06,35.56,121.38,-0.5933911940224806,0.025386794213160344,0.7874961425093189,0.1645971660421162,136.51860462871036,-70.5519457972277,-152.18587534781764,2
1767482347.015878,2,right_wrist,1.3825,-0.3133,-0.3777,11.41,42.84,-121.38,-0.2712375544466959,0.7202455553070236,0.29642964125734783,0.5655139228191407,-165.4256510245035,-77.27108733003413,33.06889497749698,2
1767482347.06597,1,left_wrist,1.0409,0.367,-0.2845,-37.45,13.86,106.4,-0.6033427241437517,0.06751970873352295,0.7796340538726766,0.15358837259829666,144.89403804327216,-74.05243616399045,-163.0610024282447,2
1767482347.06597,2,right_wrist,1.0941,-0.2899,-0.2772,10.15,55.65,-98.98,-0.260155372145718,0.6934158214982504,0.32043441540563417,0.5906060161082671,173.9470377949425,-80.33171454272073,54.71460200865669,2
1767482347.142804,1,left_wrist,1.0175,0.4641,-0.2347,-24.99,5.25,85.12,-0.608969123991467,0.09962888412997814,0.7737184271239848,0.14349385701439574,155.11814661678898,-76.1518624627192,-175.06329437161347,2
1767482347.142804,2,right_wrist,1.0858,-0.1249,-0.327,16.73,32.76,-45.15,-0.22599960411449335,0.6660651859551608,0.33638603044572557,0.6261994774187989,133.37540417318039,-80.47918011674595,93.66135402058917,2
1767482347.2216132,1,left_wrist,0.9418,0.3343,-0.2621,-0.84,2.45,28.35,-0.6143428086449333,0.12328509292290765,0.7674648358888085,0.1355781140280727,164.79938197020422,-77.52822909754926,173.97939147043016,2
1767482347.2216132,2,right_wrist,1.0409,-0.2113,-0.2996,12.18,17.01,-29.4,-0.2263712184538345,0.6585070500542841,0.34472516908974277,0.6295149674793914,127.67621450842876,-80.11416504778127,100.14784701642476,2
1767482347.293098,1,left_wrist,0.9292,0.2235,-0.2176,-18.9,-3.08,10.15,-0.6116595298742822,0.1288857678246703,0.7673951943360491,0.14270842328382283,163.78650248470925,-77.3054201752822,173.93074147108456,2
1767482347.293098,2,right_wrist,0.9945,-0.0839,-0.1728,22.89,-6.65,3.99,-0.23935621678884497,0.6581852507889202,0.35527042207957493,0.6190991070288006,133.59789997836072,-80.07565030968941,96.32979943788492,2
1767482347.3630452,1,left_wrist,0.956,0.1186,-0.1537,-9.59,-3.08,-9.1,-0.6080833225565745,0.12774081384944594,0.7673182296374795,0.15855501181496084,157.28937099845047,-76.82909370415985,179.19370789360377,2
1767482347.3630452,2,right_wrist,0.9775,0.0332,-0.103,15.82,-8.4,8.47,-0.2484567693844203,0.6611777574195409,0.35490250713459465,0.6125009528729755,139.9218121580308,-80.50495578923282,90.77331598233397,2
1767482347.423852,1,left_wrist,0.9692,0.0493,-0.1401,0.7,-5.74,-10.36,-0.6082778083214976,0.12528385582500692,0.7672690540803717,0.16000081882236078,155.9654868244908,-76.78435560710987,-179.3992433273305,2
1767482347.423852,2,right_wrist,0.9941,0.0712,-0.0615,14.42,-9.1,13.51,-0.25698804876957826,0.6627833371347555,0.35377326440755535,0.6078814590004731,145.23614564422823,-80.974421691692,86.10758003461905,2
1767482347.485874,1,left_wrist,0.9662,0.0112,-0.1513,-0.98,-2.17,-13.02,-0.6090703816583317,0.1233202891556699,0.7666574432350216,0.16143649278114194,154.70848970667907,-76.83380768376885,-178.09708768859073,2
1767482347.485874,2,right_wrist,0.9999,0.0898,-0.0927,16.73,-9.59,14.07,-0.27083833182228056,0.6639424817969997,0.3553745505657101,0.5996131316867439,153.63279372275466,-81.38429758592486,79.09285245284565,2
1767482347.5421262,1,left_wrist,0.9584,0.0361,-0.1742,0.42,-2.73,-14.14,-0.6094196352880826,0.12107450030744513,0.766587585118642,0.1621485363566737,153.72323773334298,-76.80809588781379,-176.9847081130402,2
1767482347.5421262,2,right_wrist,1.0092,0.0278,-0.1342,18.97,-12.53,19.88,-0.28306292445395304,0.669336622935667,0.353028233520546,0.5892664357775819,165.66483349563873,-81.37598607949796,67.95873918569345,2
1767482347.618813,1,left_wrist,0.9096,0.3323,-0.185,-95.76,2.1,-70.84,-0.5902723007625134,0.11722496191574049,0.7631284988314533,0.23552454973449125,131.00445889728672,-72.96499305180245,-160.22150621218105,2
1767482347.618813,2,right_wrist,1.0277,-0.1606,-0.1952,33.81,-20.51,41.86,-0.3033489753250296,0.6786922343562672,0.3494068463316042,0.5703254386140907,-175.43412035774404,-80.44796795553502,50.61863958180423,2
1767482347.6879869,1,left_wrist,0.9096,0.3323,-0.185,-95.76,2.1,-70.84,-0.5765630832489228,0.11476750144784933,0.7555885256948938,0.288945343420049,118.92671483671052,-69.65430910675447,-152.64591839011595,2
1767482347.6879869,2,right_wrist,1.0985,-0.1923,-0.2513,140.35,-45.99,135.73,-0.4104109118967762,0.6993011461865616,0.338313203689268,0.47758241859151573,-129.52249559782248,-71.02186102914447,14.45089437733367,2
1767482347.739129,1,left_wrist,0.9794,0.8799,-0.0659,-171.22,13.23,-182.56,-0.5450499593544098,0.09247614037416321,0.7347718847740274,0.39303814396935766,101.48631700360238,-60.887732314698994,-143.03588437215203,2
1767482347.739129,2,right_wrist,1.0477,-0.6881,-0.2625,265.02,-61.11,213.15,-0.523380808671618,0.6892681164562754,0.332726286180466,0.37453332459958205,-109.96829879859199,-59.83624809601933,7.619885825078583,2
1767482347.817767,1,left_wrist,0.9789,1.2293,0.2616,-159.81,60.69,-260.68,-0.45201921061909267,-0.00939300392153322,0.6506363518055365,0.6101333808420946,79.19350295521683,-35.22145679979669,-136.35769167728228,2
1767482347.817767,2,right_wrist,0.9858,-1.0321,-0.0634,189.98,-23.94,221.83,-0.6110230138786586,0.6763206321354467,0.29706328874237337,0.28459564568017537,-97.90763894502996,-48.4157722275456,4.669410313911945,2
1767482347.8698828,1,left_wrist,0.9536,1.2912,0.5519,-166.39,106.05,-269.99,-0.407775192725831,-0.08062003892623502,0.5751796613377677,0.7045481947349769,69.63049180183192,-20.82326922073442,-134.44096582562292,2
1767482347.8698828,2,right_wrist,1.0033,-0.9809,0.0844,132.09,9.24,238.0,-0.6785897092839757,0.6641794126150857,0.23721150499978239,0.20521309950367994,-89.62997143917579,-36.479504951001495,2.608274541256262,2
1767482347.939976,1,left_wrist,0.7823,1.323,0.6598,-120.82,157.43,-263.06,-0.36945568102137,-0.1686986379115539,0.49430705086243204,0.7685725787428973,62.807984640425055,-6.081027158002571,-132.36711197916597,2
1767482347.939976,2,right_wrist,0.8242,-1.1331,0.3645,143.15,90.37,259.77,-0.7898658075997024,0.6059099100491852,0.06491264878551375,0.06907629779241815,-74.81705918850153,-10.734169900942183,-1.7765715320713849,2
1767482348.017493,1,left_wrist,0.3811,1.037,0.6871,-110.88,197.54,-219.31,-0.30293516395166115,-0.34335824732277453,0.3187645658675346,0.8298943016940741,52.72660001771166,22.133882707115674,-128.8193636321402,2
1767482348.017493,2,right_wrist,0.6539,-0.9477,0.4802,144.34,119.28,261.45,-0.8323274318865325,0.5529259146791176,-0.03777917927028714,0.008758574033158844,-67.27935878843205,3.04978222717454,-3.235384736686124,2
1767482348.084718,1,left_wrist,0.2137,0.7803,0.6173,-59.01,210.98,-190.05,-0.2724011978724693,-0.4317471903767965,0.2411136096246512,0.8253824436303193,51.10230739604574,35.545820261673384,-126.04631321711896,2
1767482348.084718,2,right_wrist,0.2352,-0.8316,0.5187,72.8,167.3,205.45,-0.8460438522728456,0.4678379375674957,-0.24645149602985908,-0.06781684384103695,-59.82833264849265,28.716242166426042,-7.590541747195352,2
1767482348.14213,1,left_wrist,0.0273,0.4607,0.4046,-36.33,188.37,-157.01,-0.24322419801435147,-0.5060526490696557,0.17692017793271952,0.8083637525953984,51.37567352595733,47.06161591751297,-122.84880023679932,2
1767482348.14213,2,right_wrist,0.0083,-0.5861,0.4036,29.19,171.57,172.83,-0.8251704928545207,0.44137790921775477,-0.340590796379951,-0.090978615059043,-60.41495227240966,39.97122839896123,-11.326387093033539,2
1767482348.213883,1,left_wrist,-0.5314,0.5954,0.9311,-79.03,169.05,-121.94,-0.20941819093052766,-0.6178273588157407,0.047061474158971356,0.7564513161176569,54.871679187537225,66.20595141111822,-111.65298117817166,2
1767482348.213883,2,right_wrist,-0.1806,-0.5846,0.4143,15.4,151.69,140.28,-0.7984437688162924,0.41968431855981336,-0.4180078279773981,-0.10780573520475657,-62.787655412711885,49.28821958535838,-15.90164007916038,2
1767482348.289184,1,left_wrist,-0.1215,-0.2401,-0.9721,158.34,208.11,-81.13,-0.14154147797694255,-0.7011146063482191,0.0572282945153368,0.6965121973692565,87.87417713380844,73.8361243077782,-85.22134419651319,2
1767482348.289184,2,right_wrist,-0.3699,0.4592,-0.8486,-214.83,156.17,74.9,-0.6667807461770461,0.4693822604292323,-0.5543886312895697,-0.1665442152066637,-97.1469670521273,63.59296132018273,-42.130287500461755,2
1767482348.365212,1,left_wrist,-1.1927,0.7813,0.5036,13.44,-30.24,-0.84,-0.1650620622708641,-0.6765752154207842,0.05642682228200239,0.7154135218210262,75.59174013280138,71.70160262426418,-95.48325979082803,2
1767482348.365212,2,right_wrist,-0.4538,0.5031,-0.4978,86.03,-17.64,-13.65,-0.6864741509825358,0.44529585593171217,-0.5556153305693303,-0.14750066155507296,-91.79124554944062,63.40508748195103,-40.76492613338331,2
1767482348.442672,1,left_wrist,-0.9945,-0.0605,-0.0342,23.8,13.09,-15.68,-0.15007811727879303,-0.683979198733017,0.054872798817493115,0.7117850731537771,78.37169343528014,73.18067466581145,-93.82408522449114,2
1767482348.442672,2,right_wrist,-0.9248,-0.3548,-0.2098,-24.85,15.96,15.33,-0.6834012010104278,0.4402662831176137,-0.5622426350788835,-0.15169580649068523,-92.64279327084807,64.42854506575446,-41.80624732553584,2
1767482348.497002,1,left_wrist,-0.9911,0.304,0.0112,-21.91,-19.25,14.84,-0.1607032801613801,-0.6787042341579372,0.05448826820903876,0.7145390450556504,76.1860088686182,72.25238024587065,-95.09487771674043,2
1767482348.497002,2,right_wrist,-0.8764,-0.509,-0.039,24.22,-17.08,-7.21,-0.6926064099181182,0.4367604873622345,-0.5558620727744658,-0.14336664071642885,-89.93374986338121,63.53683543100093,-40.08789427113955,2
1767482348.5647209,1,left_wrist,-0.9155,0.1845,-0.0259,15.54,-5.95,-1.82,-0.1540217032154605,-0.684010048027826,0.06539787618205384,0.710021610182716,79.6016895772556,72.02262125165495,-93.12308542583483,2
1767482348.5647209,2,right_wrist,-0.9082,-0.5641,0.0454,-21.49,-1.12,-3.15,-0.6908167241523161,0.4454386534352848,-0.5506945760302979,-0.1452313450603332,-90.42268447606071,62.903591197164154,-39.53556596596562,2
1767482348.618022,1,left_wrist,-0.9287,0.242,0.0956,-1.47,-17.36,3.36,-0.15320466406984382,-0.676704406687767,0.06458343324310445,0.7172366813173578,75.81962664822446,71.97571988058809,-96.90488948915352,2
1767482348.618022,2,right_wrist,-0.8799,-0.2826,0.0322,-5.46,-8.54,-5.18,-0.6922111107075658,0.44474456907739046,-0.5482140849750722,-0.15002454307248708,-89.57752746427377,63.17702668470845,-38.34320102600244,2
1767482348.669374,1,left_wrist,-0.8891,0.1815,-0.0224,12.95,-21.77,13.37,-0.15050154926009773,-0.67271951641105,0.07198844431564745,0.7208435335043287,74.57045965062066,71.47448913104526,-98.98028934632742,2
1767482348.669374,2,right_wrist,-0.8174,-0.2957,0.0664,10.43,-16.45,-14.0,-0.7000523575220663,0.440806044194588,-0.5415795157377733,-0.14935982144658194,-86.88744886543955,62.86639391888367,-36.04259409312023,2
1767482348.7382421,1,left_wrist,-0.7759,0.1796,-0.1967,33.67,-42.42,45.08,-0.15223602052287097,-0.6627649236069422,0.09806122716111042,0.7266022610887619,73.45899790909097,68.95139520077483,-102.07506195169388,2
1767482348.7382421,2,right_wrist,-0.7174,-0.3777,-0.1532,1.05,-45.5,-57.61,-0.721003531648603,0.45067220472628067,-0.5093248935968105,-0.13280295177439747,-81.71150628782273,58.666099310790464,-30.966828610271406,2
1767482348.79019,1,left_wrist,-0.569,0.0146,-0.2011,52.92,-86.73,88.13,-0.15874539920494052,-0.6369889153901768,0.14426775694005656,0.7404267919307047,70.54972860643073,63.82924838015327,-108.24587500117131,2
1767482348.79019,2,right_wrist,-0.5958,-0.3001,-0.1703,-23.94,-86.94,-88.06,-0.7370223236658451,0.47337075492455305,-0.46526253927552896,-0.127471535439266,-78.39824203073997,53.75540186457108,-25.291027478137014,2
1767482348.8510778,1,left_wrist,-0.4553,0.3099,-0.0947,85.05,-117.67,147.28,-0.1752139588516416,-0.5956280039247266,0.22167414676461414,0.7519228166642914,70.48007843072548,54.89024063238636,-113.46918809493741,2
1767482348.8510778,2,right_wrist,-0.4958,-0.3665,0.0468,-36.89,-116.76,-134.89,-0.7560318750898087,0.5068797356761607,-0.3980346263313423,-0.11426799048868319,-75.93059591460558,45.86441849380302,-19.350077468218455,2
1767482348.919567,1,left_wrist,-0.1078,0.7837,0.1318,139.02,-109.34,260.47,-0.2491264398699139,-0.4696442721729218,0.42965580701207157,0.7299083244310305,77.58040955982293,28.132831901779756,-119.5368444021315,2
1767482348.919567,2,right_wrist,-0.407,-0.6588,0.2167,-37.8,-116.69,-168.98,-0.7744156142162689,0.5413679621181174,-0.3153677785548294,-0.0880019903156045,-74.65043128490542,35.71363000784218,-14.635983260382002,2
1767482348.989853,1,left_wrist,0.1137,0.7471,0.3479,153.86,-80.78,304.36,-0.2984827373010431,-0.39565286967901814,0.5446802575169345,0.67652810682138,84.50825798965853,12.133209483747752,-121.35624810473554,2
1767482348.989853,2,right_wrist,-0.0693,-0.8901,0.1913,-175.07,-66.71,-268.24,-0.7193259215263379,0.6849360082703023,-0.11574298442552178,0.006036948840490154,-87.9725544276295,9.104986991533115,-9.751321014633964,2
1767482349.066325,1,left_wrist,0.306,1.544,0.1078,151.69,-71.61,295.47,-0.3773161612093437,-0.2323222893666531,0.7279271140463032,0.5232408479752916,100.14643332994515,-17.83015097332276,-129.63986794566773,2
1767482349.066325,2,right_wrist,0.1088,-0.6378,0.2655,-173.81,-0.56,-283.22,-0.6613193440442439,0.7444887805304854,-0.028813860355633075,0.08696517871267823,-96.35281570802441,-5.24293761773373,-9.12507651866153,2
1767482349.136954,1,left_wrist,0.936,1.1702,-0.2084,102.48,-8.61,287.0,-0.4288562401031904,-0.15152243345190752,0.7753703484396706,0.43809142909432847,107.05694173715969,-32.15986963640321,-133.8282829949777,2
1767482349.136954,2,right_wrist,0.7784,-0.7369,-0.2582,-9.66,50.82,-237.65,-0.56575930259968,0.7761502125500168,0.11235265021908379,0.2547236562811467,-105.65435771326734,-31.502566281311907,-7.671562370859677,2
1767482349.19136,1,left_wrist,1.1956,0.833,-0.264,50.54,5.25,258.51,-0.47638914562875645,-0.0710143983969005,0.7956463801152113,0.3673651792930169,112.95012584585841,-44.90215111277916,-139.1790806676645,2
1767482349.19136,2,right_wrist,0.9965,-0.6368,-0.4319,-65.52,50.96,-260.19,-0.5105603553765298,0.7686087442533357,0.1822352233155347,0.33964546980379334,-110.55937474949002,-45.088091868484646,-5.419695611215479,2
1767482349.271411,1,left_wrist,1.0863,0.7764,-0.285,45.01,31.08,142.1,-0.5464104276895685,0.020826448893278653,0.797950772445371,0.253528042418258,125.69346952919503,-61.95485679413619,-148.76230681556737,2
1767482349.271411,2,right_wrist,1.402,-0.8789,-0.3123,1.12,49.91,-231.63,-0.4767378117775902,0.7367378908039542,0.2500637989979465,0.40915331540385963,-112.93285174086563,-57.27841924229458,-2.295887285330333,2
1767482349.340728,1,left_wrist,0.975,0.6071,-0.3167,47.67,22.75,120.12,-0.5657742509646355,0.045734560942874605,0.7955708651538826,0.21183683673778475,133.42581147707955,-66.86819231230118,-154.85365188250495,2
1767482349.340728,2,right_wrist,1.2781,-0.5778,-0.3192,-40.32,38.5,-148.96,-0.38975203441472417,0.6901910693055764,0.32314842460707355,0.5170152175655718,-128.3997662934217,-74.92232978689832,9.526645265133393,2
1767482349.420109,1,left_wrist,0.9721,0.5158,-0.3094,0.84,7.84,73.22,-0.5808800338821082,0.08861828914817613,0.7883194691471836,0.18242148894544674,144.4705059241907,-71.47224571289657,-166.8649470216782,2
1767482349.420109,2,right_wrist,1.139,-0.4817,-0.2967,5.25,29.12,-112.56,-0.37156152363193196,0.6684845844557048,0.3507486704705578,0.5404125874408713,-139.91149857389485,-79.47157844778707,21.627723278413583,2
1767482349.4903018,1,left_wrist,0.9282,0.4548,-0.2528,-9.31,7.21,54.11,-0.5862263810298883,0.10604051228364683,0.7836784628344949,0.17590368622796163,148.88520644411133,-72.96614113431045,-172.1448480663005,2
1767482349.4903018,2,right_wrist,1.0038,-0.3494,-0.2035,-5.67,8.26,-33.46,-0.3591226998316787,0.6518208531668617,0.37146428512362273,0.5551348905626692,-156.08714604339744,-82.09585188997698,38.46134368408749,2
1767482349.546579,1,left_wrist,0.9228,0.2538,-0.1669,11.27,12.53,25.06,-0.5940260573694525,0.10850554554970976,0.778903693662318,0.16931811997025475,150.35240274625647,-74.17983170027068,-173.2319916304235,2
1767482349.546579,2,right_wrist,0.974,-0.2347,-0.1713,-8.82,5.11,-16.31,-0.356010422153467,0.6515916623533095,0.37081109781936034,0.557838699449726,-157.96691962117808,-82.30347404452979,39.975443189288185,2
1767482349.620548,1,left_wrist,0.9682,0.1181,-0.2352,0.14,1.05,10.15,-0.5988676041607663,0.11254442219484873,0.7773168320723126,0.15642854054371166,155.1250638440741,-75.06749717667935,-177.24297158186107,2
1767482349.620548,2,right_wrist,0.9687,-0.142,-0.1337,-9.8,5.81,-6.86,-0.3553673961189621,0.6525604440396855,0.3668286963356009,0.5597460032863842,-156.2564650091138,-82.41673094312824,37.82273314335315,2
1767482349.6887941,1,left_wrist,0.9667,0.1181,-0.2235,-8.12,-1.96,2.94,-0.5997117154324273,0.11384744039453165,0.7755379471106103,0.16101400957733153,153.68117953178728,-75.20831527816709,-176.28594297228102,2
1767482349.6887941,2,right_wrist,0.9882,-0.0298,-0.1371,-0.98,2.94,1.82,-0.34990711486484727,0.6537167129242614,0.3690298240969568,0.5603895601609892,-160.94758035120617,-82.27488136252796,42.21164615956626,2
1767482349.769535,1,left_wrist,0.9731,0.122,-0.2035,-1.75,-1.61,-1.96,-0.6035537145640939,0.11302169751059457,0.771617541248288,0.16599813121133147,151.0347931310418,-75.68430798427678,-173.97381969579425,2
1767482349.769535,2,right_wrist,1.0063,0.0205,-0.1357,-0.91,2.73,1.05,-0.3469714350379012,0.6520466363131904,0.3711125786865045,0.5627801180577068,-164.5456829971601,-82.50168251423035,45.72034453261618,2
1767482349.835861,1,left_wrist,0.9575,0.1581,-0.2035,2.31,-2.73,-2.45,-0.6025810066114599,0.10879687872808991,0.7722281452832036,0.16947879301732258,148.8754649956554,-75.3610420487347,-171.76079450152315,2
1767482349.835861,2,right_wrist,0.9945,-0.0029,-0.144,3.29,-2.87,-3.08,-0.33884787993662707,0.6513584892385826,0.37964997239804,0.562832240740926,-174.13021809196405,-82.0953447088325,55.360101938673715,2
1767482349.887359,1,left_wrist,0.9487,0.1215,-0.1845,-5.18,-5.04,-8.61,-0.6027989970655031,0.10784919112911094,0.7713291212552034,0.17335889885810796,147.19270007608625,-75.30865533069353,-170.3238817095088,2
1767482349.887359,2,right_wrist,1.0082,-0.0254,-0.1347,-0.77,-4.9,1.47,-0.3416596738260485,0.6533426919381239,0.3767184490083085,0.5607987199957738,-170.13659899397896,-81.97469087624287,51.36015323628748,2
1767482349.9399061,1,left_wrist,0.9374,0.1132,-0.1698,-4.55,-1.12,-10.15,-0.6042881469135215,0.10656401633387018,0.7695479780980921,0.17684981008685144,145.30347354438325,-75.40907775879565,-168.61596511715462,2
1767482349.9399061,2,right_wrist,0.9902,-0.0634,-0.1303,2.8,-6.58,3.08,-0.34557917855409764,0.6561025501812466,0.37446229861820635,0.5566708739543583,-165.4994045903271,-81.60265734225177,46.89586362867288,2
1767482349.991114,1,left_wrist,0.9374,0.1132,-0.1698,-4.55,-1.12,-10.15,-0.6057246027678939,0.10580095834286939,0.7678556576542955,0.17972632479327208,143.7459950280074,-75.52311227899474,-167.23177498863177,2
1767482349.991114,2,right_wrist,0.9775,-0.1166,-0.1366,10.43,-8.47,11.06,-0.35312651826176406,0.6598443717161481,0.3721789422945183,0.5489898925548442,-158.78815138622562,-80.87629576936702,40.71600612987729,2
1767482350.0649002,1,left_wrist,0.9799,0.5427,-0.223,-49.28,4.62,-71.61,-0.5925914947754573,0.08032972063965084,0.7664995551307329,0.23422401304335427,125.46249252329146,-71.09773150329943,-151.52514970619902,2
1767482350.0649002,2,right_wrist,0.9501,-0.1698,-0.1776,27.72,-9.38,28.84,-0.3688031893461242,0.6646321861775052,0.3696540204259668,0.5344194698997744,-148.74679989160984,-79.43387176531274,32.00194934856107,2
1767482350.1206532,1,left_wrist,0.9765,0.5671,-0.0956,-72.45,21.49,-135.38,-0.5818644069450506,0.04866749336765396,0.7555484014927464,0.2970048821510339,110.47672567141367,-65.25263289010813,-139.46017359418627,2
