timestamp,node_id,node_name,ax,ay,az,gx,gy,gz,qw,qx,qy,qz,roll,pitch,yaw,rep_number
1767479174.997706,1,left_wrist,0.0063,-0.1186,-0.9653,6.58,1.26,4.83,-0.06005403343824355,0.821453198634023,0.5662929374594587,-0.030339157952526,-172.35430753324786,-1.0412335418895482,69.09358384778743,0
1767479174.997706,2,right_wrist,-0.2635,0.2469,-0.8921,9.52,16.52,3.01,0.1350277325026149,0.9766926780569735,0.1130844324452451,-0.1226818455340333,165.81041709984598,15.675215589228081,11.245868694549873,0
1767479175.082552,1,left_wrist,0.0605,-0.2035,-0.9941,3.01,-3.22,7.0,-0.06913829356099113,0.8234434306418421,0.5623963358028946,-0.02951566315951324,-171.5396762443275,-1.670826346695279,68.54108781643983,0
1767479175.082552,2,right_wrist,-0.2845,0.3372,-0.9091,31.71,23.73,-0.35,0.12488974467904738,0.9791394547315069,0.11230753927228693,-0.11434813721566882,166.92755517099465,14.594571141319214,11.405322622480666,0
1767479175.1560352,1,left_wrist,0.0156,-0.1293,-0.9653,-4.62,-1.82,8.54,-0.06201492933576489,0.8259993395269966,0.5594465625283084,-0.02997971507044309,-172.18242267422866,-1.138062313977633,68.14154185772732,0
1767479175.1560352,2,right_wrist,-0.1152,0.508,-0.6993,-2.8,122.85,88.27,0.11855253064792605,0.9889600984489251,0.0773773245347082,-0.04377180371786875,166.76312274121705,6.022770028404663,8.248083203083462,0
1767479175.231277,1,left_wrist,0.0264,-0.141,-0.9867,4.27,-2.66,8.12,-0.061633630835300476,0.8293182220746699,0.5545577568531104,-0.029971259549993936,-172.21287514486303,-1.0684788329497057,67.46786962892425,0
1767479175.231277,2,right_wrist,-0.0215,0.182,-0.8716,34.79,3.85,37.31,0.10232147504568273,0.9922385975155706,0.06036158664589432,-0.03673363856738918,168.50129851729932,4.8903803624861535,6.4697774860205595,0
1767479175.2962902,1,left_wrist,0.0264,-0.141,-0.9867,4.27,-2.66,8.12,-0.06712779498738902,0.8307825974870193,0.5516867047746468,-0.030592721810000986,-171.6435158452162,-1.3313999877873397,67.0755577823157,0
1767479175.2962902,2,right_wrist,-0.0727,0.3167,-0.9789,21.28,1.47,60.69,0.09145223806458255,0.9952203304787612,0.010646164846907669,-0.03255212940464315,169.52873623974907,3.8267827819669566,0.8749793529944494,0
1767479175.370934,1,left_wrist,-0.0034,-0.059,-0.998,3.92,-4.27,5.18,-0.06118501728199133,0.8342087271377964,0.5470235726674819,-0.0334275959866075,-172.02956113299769,-0.6398988074325073,66.46429239625375,0
1767479175.370934,2,right_wrist,0.0947,0.2987,-1.0316,16.52,6.09,56.63,0.08761897332626328,0.9957698778176731,-0.014422032751699797,-0.023606586274530092,169.90090496349953,2.549711113198091,-1.8848774321284558,0
1767479175.421534,1,left_wrist,-0.0034,-0.059,-0.998,3.92,-4.27,5.18,-0.05693087325529759,0.8355767362884657,0.5453498403706937,-0.03411663892536995,-172.39441894494357,-0.2910836175709569,66.24263072928473,0
1767479175.421534,2,right_wrist,0.3396,0.1069,-0.997,-42.07,0.63,21.35,0.10536129716198821,0.9939886181075156,-0.023647358135563717,-0.018067279437234688,167.85355834368733,1.7726880670233824,-2.914284203129021,0
1767479175.4718049,1,left_wrist,0.1122,-0.2996,-1.0726,3.43,-12.74,10.01,-0.05980534804097837,0.837343967934483,0.5419419840666829,-0.03971505527253253,-171.7668245600632,0.09673056170307605,65.8301010225659,0
1767479175.4718049,2,right_wrist,0.2879,0.3299,-1.0175,-55.23,-11.06,8.96,0.13089253708751838,0.990823520526473,-0.028098183963074782,-0.018611473995782935,164.89775745743304,1.69194315436514,-3.4730647272769755,0
1767479175.5245929,1,left_wrist,0.164,-0.2333,-1.0209,1.05,-29.61,30.66,-0.05684476366630402,0.8436575219664442,0.5315955960435815,-0.04916076423561951,-171.47621980490663,1.289999988173452,64.52687488297379,0
1767479175.5245929,2,right_wrist,0.2006,0.1459,-0.8125,-39.2,-10.08,21.98,0.1465649504101016,0.9882982664246736,-0.03846352326963676,-0.017487403207900105,163.07473980786597,1.3345813108695834,-4.656106091107047,0
1767479175.578092,1,left_wrist,0.164,-0.2333,-1.0209,1.05,-29.61,30.66,-0.05368872100237763,0.8497473197841683,0.5211987783886066,-0.05829963261441092,-171.2480759899668,2.4710690175100822,63.23548039953665,0
1767479175.578092,2,right_wrist,0.123,0.08,-0.7788,-39.27,-4.06,45.99,0.16027519725400052,0.9852325537237346,-0.05872453890979081,-0.013420311398467395,161.49411242350385,0.43660271918845917,-6.893258312044095,0
1767479175.647766,1,left_wrist,0.2943,-0.2796,-0.9062,32.55,-48.3,42.63,-0.057432062463319826,0.8568667876163777,0.5057395914906713,-0.08190440818446683,-169.52045722399774,4.719114812090866,61.53289520118555,0
1767479175.647766,2,right_wrist,0.041,-0.041,-0.7183,-58.8,14.98,107.17,0.19154757754229199,0.9717552442983505,-0.13764486575626916,0.007427088748061213,158.2184977352685,-3.8512108134764707,-15.382876675454899,0
1767479175.70636,1,left_wrist,0.2943,-0.2796,-0.9062,32.55,-48.3,42.63,-0.060835341083281355,0.8631998798964146,0.4900471257874964,-0.10506589898492305,-167.90344027635234,6.993767432511614,59.90995819740161,0
1767479175.70636,2,right_wrist,0.0844,0.1932,-0.6856,-99.26,10.15,147.77,0.2290370310421476,0.9524711058676353,-0.19978118581994253,0.020695620093633287,154.42131151463298,-7.523830285263043,-21.981929438732763,0
1767479175.7790642,1,left_wrist,-0.183,-0.0337,-0.7627,-28.63,1.89,0.42,-0.02370015532669668,0.8722698343542127,0.47725902513366236,-0.10395894209557408,-171.81430281022733,9.133668629521758,58.02514684230068,0
1767479175.7790642,2,right_wrist,0.2494,0.5231,-0.6715,-153.72,-14.63,179.62,0.2921695393870269,0.9154031908039073,-0.2761109002803185,0.02089806849423958,147.71618873925132,-11.51372734490038,-30.22682266435255,0
1767479175.8427799,1,left_wrist,-0.183,-0.0337,-0.7627,-28.63,1.89,0.42,-0.008290724599389829,0.8729032262542462,0.4778652164463455,-0.09806149290742443,-173.70393981275652,9.396906152374935,57.91440750308647,0
1767479175.8427799,2,right_wrist,0.2889,0.8491,-0.2669,-186.83,-34.16,191.17,0.41614193767044305,0.8003022226991193,-0.43167219232571447,0.0011655159584947278,134.50369161031648,-21.170182987509204,-47.72297635410725,0
1767479175.922782,1,left_wrist,-0.5119,0.1513,-0.8779,-52.85,49.63,-55.16,0.018753438279539614,0.8580308762565014,0.5101281598408915,-0.05657370838597792,-178.52665693160026,6.673841507088528,61.551718618255656,0
1767479175.922782,2,right_wrist,0.2972,1.1082,-0.2499,-103.67,-15.19,197.75,0.4500372000568286,0.7396529562970547,-0.500261177433665,0.010898493415166783,132.24434553481683,-27.800508108075867,-55.64055710447971,0
1767479175.97587,1,left_wrist,-0.5119,0.1513,-0.8779,-52.85,49.63,-55.16,0.029674418534154295,0.8457804032098432,0.5319061102177929,-0.02916896199442613,178.8982014571787,4.640821695527456,64.2864238986917,0
1767479175.97587,2,right_wrist,0.4026,1.0297,-0.1981,-70.49,14.56,188.3,0.4759543552430601,0.6811157957429755,-0.5552217431292331,0.0357426981509806,131.80869325502096,-35.25456447999158,-62.19577342799655,0
1767479176.050682,1,left_wrist,-0.1654,0.2811,-1.117,-65.24,57.96,-32.34,0.044490707474615025,0.837387850880575,0.5447318565624868,0.008328780943603287,175.20242238150004,1.978367817797477,66.00618306697035,0
1767479176.050682,2,right_wrist,0.649,1.2058,-0.2201,-80.57,26.32,130.48,0.537349819713096,0.5657745963623108,-0.6221616109210747,0.06379033830809216,128.0897973776355,-47.80120854102947,-71.08967566678724,0
1767479176.121859,1,left_wrist,-0.1181,0.2884,-0.9472,3.5,57.54,-18.97,0.04927768495386408,0.8210537914055666,0.5651994174063639,0.06318227558135993,171.22720520572838,-2.754045602851978,69.29701621811691,0
1767479176.121859,2,right_wrist,0.6656,1.1829,-0.1825,-45.5,31.01,88.27,0.5560243926396647,0.530252167744474,-0.6353816523027899,0.07719889448013133,126.95044035458541,-52.040445486449734,-72.91995002939721,0
1767479176.172545,1,left_wrist,0.2396,0.4924,-1.1766,105.21,53.48,3.57,0.00012594997940867838,0.8214791475138893,0.5670156632757827,0.06054115902739807,176.03169049031328,-5.70023138426572,69.42742278342058,0
1767479176.172545,2,right_wrist,0.6656,1.1829,-0.1825,-45.5,31.01,88.27,0.5733683078163052,0.49416506026112966,-0.6472276942956873,0.09025513030110305,125.9477293419518,-56.242982380402445,-74.77762005750904,0
1767479176.224949,1,left_wrist,0.2162,0.1893,-0.8291,83.72,53.27,-16.94,-0.041807629480752964,0.8148525956831422,0.5746577527103136,0.06352823526258194,179.71713399616957,-8.718643088407278,70.40677053662901,0
1767479176.224949,2,right_wrist,0.6656,1.1829,-0.1825,-45.5,31.01,88.27,0.5893720612091651,0.45757135665504495,-0.6577674883334943,0.1030095060000208,125.12191694767225,-60.4131137958867,-76.71472184726112,0
1767479176.292712,1,left_wrist,0.1405,0.0415,-0.9384,-16.1,49.21,-3.78,-0.04398697907209751,0.8123940822917863,0.5748112110623856,0.08759607506270184,178.29276865275895,-11.12169296031352,70.72902874618151,0
1767479176.292712,2,right_wrist,0.7969,0.9228,-0.3148,98.35,51.8,-49.14,0.596133298588397,0.4957102955488182,-0.6159270751831804,0.13975060378157042,120.84995048698093,-60.79751346963165,-65.5155629521787,0
1767479176.342837,1,left_wrist,0.2474,0.0844,-0.9438,-21.84,61.39,-4.83,-0.05080220610904669,0.8083330269303827,0.57418707883437,0.1196914864460797,176.7230238557971,-14.58648600269481,71.1945167753404,0
1767479176.342837,2,right_wrist,0.8198,0.771,-0.3201,100.45,51.94,-67.41,0.5918725451779319,0.5384591419745162,-0.5790780403522326,0.15626025044931538,118.76313400946798,-58.62304762605161,-57.40222653886126,0
1767479176.3958132,1,left_wrist,0.2474,0.0844,-0.9438,-21.84,61.39,-4.83,-0.054289515040284474,0.8035231507214746,0.5735341680984777,0.14987245522414158,174.90263708012117,-17.645440528347578,71.82823343409802,0
1767479176.3958132,2,right_wrist,0.8023,0.669,-0.3148,95.55,51.73,-68.32,0.5863112016864713,0.5785312567466401,-0.5407463025073675,0.17068742211636354,117.23949505744903,-56.26213350156294,-50.0110408233256,0
1767479176.470766,1,left_wrist,0.4124,0.1625,-0.9843,-9.03,48.72,-16.59,-0.06548277083369773,0.789179235945039,0.5768506619860679,0.20037827737402356,172.01408044822296,-23.067562883134258,73.96207327093634,0
1767479176.470766,2,right_wrist,0.7725,0.5944,-0.2874,99.68,48.51,-58.24,0.5761009854490644,0.6157221580222035,-0.5038794004720737,0.18734841463167232,117.06461866157164,-54.22117796003019,-43.79582828763789,0
1767479176.527643,1,left_wrist,0.4124,0.1625,-0.9843,-9.03,48.72,-16.59,-0.06839904765148853,0.780258007911261,0.5811339154274892,0.220912615553381,170.46390270029926,-25.102294504836145,75.48497402255526,0
1767479176.527643,2,right_wrist,0.8804,0.5958,-0.2352,83.72,46.9,-33.32,0.5689782447502513,0.6387285529748147,-0.47370948850159594,0.20949680932935202,116.61427591391185,-53.773200505507276,-38.35764067454501,0
1767479176.594256,1,left_wrist,0.507,0.731,-1.1375,77.42,42.35,-21.0,-0.09972721977006527,0.767186187318786,0.5947694477152068,0.21846999722787086,173.11242375224464,-26.990562772667168,77.22488316346949,0
1767479176.594256,2,right_wrist,0.9975,0.6324,-0.1488,67.27,33.39,-12.18,0.5534725830915885,0.6647177203383063,-0.4335664296138419,0.2526630229101107,116.68044705720837,-54.669854157289386,-30.870013322021595,0
1767479176.647158,1,left_wrist,0.4934,0.0737,-0.9004,10.22,43.33,-17.64,-0.11741227145607072,0.7580481936661992,0.5984561081265221,0.23114407030463713,173.4979617826909,-29.40428262998564,78.28779207084006,0
1767479176.647158,2,right_wrist,1.1551,0.5617,-0.0786,70.91,22.19,-18.13,0.5404304257833932,0.6803534944636654,-0.41469844154942737,0.27033179619707315,117.81840125055047,-54.693663191452295,-28.08558126579849,0
1767479176.697367,1,left_wrist,0.4934,0.0737,-0.9004,10.22,43.33,-17.64,-0.1322378266212011,0.7496314767643038,0.6026906554936787,0.23943637993268757,173.93498458633724,-31.223319332867952,79.2935250521272,0
1767479176.697367,2,right_wrist,1.2434,0.4499,-0.0161,37.87,1.75,-28.21,0.5338645961315803,0.6919350443467174,-0.4016531535330827,0.27365896963026926,118.36531906558935,-53.858728254149646,-26.552591064388736,0
1767479176.751818,1,left_wrist,0.6007,-0.0127,-0.7793,11.76,48.3,-4.76,-0.15258375857047468,0.7424084252776912,0.6012500853907916,0.25307362864346716,174.61760239429412,-34.003944994000285,79.65242012644855,0
1767479176.751818,2,right_wrist,1.1829,0.3811,0.0073,19.81,-0.56,-30.59,0.5323726123765118,0.6998224187451657,-0.3905860829183325,0.2725261375420487,118.13572766185193,-52.87441279911806,-25.150258904311848,0
1767479176.821731,1,left_wrist,0.611,0.0752,-0.7388,8.19,43.82,-5.04,-0.18796455730956238,0.7266536656504714,0.5977883107469749,0.2815899695060731,175.2907926431687,-39.343099478158216,80.56980273124874,0
1767479176.821731,2,right_wrist,1.0868,0.3162,0.0088,7.28,10.71,-16.03,0.534664883290554,0.7008630207056662,-0.38297435936334406,0.2761433121650123,117.14031482902848,-52.8069408876491,-23.550861280267082,0
1767479176.8732932,1,left_wrist,0.7271,0.0024,-0.7344,-18.27,59.22,-17.01,-0.1992925278949902,0.7157577087643577,0.5943756758266514,0.30771894100824004,173.7164425416668,-42.64186720625541,81.86806076232934,0
1767479176.8732932,2,right_wrist,0.9701,0.2889,-0.002,3.85,29.26,10.15,0.5377945279012781,0.6943169521807835,-0.37949979271879525,0.29099986769794345,115.6184585277404,-54.319109464322004,-21.523304524115456,0
1767479176.943645,1,left_wrist,0.7252,0.1464,-0.7203,-38.99,62.37,-14.49,-0.1998910655147949,0.704902209506247,0.5881622553425132,0.3423763986477154,169.9966837798675,-45.874830426824396,83.92457319587116,0
1767479176.943645,2,right_wrist,0.9755,0.3021,-0.0512,-10.43,54.32,84.42,0.5393604841151288,0.6497522374394545,-0.3982562218297071,0.35819586805467724,111.24477241665613,-63.519281846794684,-17.10413583965161,0
1767479176.9941518,1,left_wrist,0.8496,-0.0488,-0.6393,-4.83,78.54,-25.06,-0.21877367459563726,0.6869691872097562,0.5861523620962052,0.36964418504465646,168.11904194525266,-49.848110631156935,86.48111930154317,0
1767479176.9941518,2,right_wrist,1.0429,0.3792,-0.1054,-20.16,52.22,107.45,0.5367253126461641,0.6145601278451598,-0.4198967876617987,0.39740215869962336,108.33050807979122,-69.91655541993094,-15.109996652002167,0
1767479177.047298,1,left_wrist,0.8667,0.1615,-0.5822,-48.65,67.83,-42.84,-0.2158446794930248,0.6676530404003501,0.5831626097889766,0.40935542322391644,161.68570187470533,-52.9737665282212,91.45600195649916,0
1767479177.047298,2,right_wrist,1.0716,0.4553,-0.1386,-6.93,45.15,116.34,0.5277503037049459,0.5853603603647926,-0.4387534478830331,0.43165759280208205,106.3871662451205,-75.57050681448729,-13.469502082631777,0
1767479177.1256151,1,left_wrist,0.9374,0.1279,-0.4831,112.91,42.56,6.16,-0.2626536149747919,0.6313222799076474,0.5911860164958127,0.4277199449788338,160.6649214977003,-58.278356361615366,97.08920803979943,0
1767479177.1256151,2,right_wrist,0.9111,0.5431,-0.3079,4.27,1.82,50.68,0.5175056446717259,0.5792435118890585,-0.44951736597380976,0.4411337658299346,110.32783646380891,-77.50192859683094,-17.252220294931732,0
1767479177.1963708,1,left_wrist,0.9941,0.0088,-0.5246,79.24,1.26,21.49,-0.29248323110474067,0.6284418944044223,0.5974580176126469,0.40318514614290757,167.23282153708718,-58.89808022577598,94.33309486155171,0
1767479177.1963708,2,right_wrist,0.693,0.4143,-0.2645,-3.01,-13.86,-6.58,0.5163485716354731,0.5917537102736576,-0.45191279274358775,0.4230679930011932,115.43877182980714,-75.32834212278016,-22.74879789676037,0
1767479177.27507,1,left_wrist,0.9653,0.1405,-0.3723,103.81,-13.72,31.78,-0.3525147161696712,0.6178007907725126,0.6119705257833586,0.34575661002663993,-178.61565262628338,-59.1680963966148,88.67079806434901,0
1767479177.27507,2,right_wrist,0.5383,0.2757,-0.2328,-4.55,-17.5,-46.83,0.5219720200714638,0.6058682553685258,-0.4443025769160434,0.40381194576804813,115.23189605772689,-72.39053512928578,-22.715079357000185,0
1767479177.3313549,1,left_wrist,0.957,-0.0259,-0.4412,113.26,-9.59,14.21,-0.38474906825136657,0.6036757219521572,0.6245586462537566,0.3122022975490764,-171.6674211187296,-59.040885774785146,87.22421546675902,0
1767479177.3313549,2,right_wrist,0.5636,0.2503,-0.2347,6.02,-14.63,-57.12,0.5261667500200864,0.6232443101334316,-0.4316745319432378,0.38519109482332214,114.82397044111347,-69.13172957372883,-21.87607380379407,0
1767479177.392849,1,left_wrist,1.0897,-0.0312,-0.2503,133.49,16.59,6.02,-0.426562250482648,0.5781666956601418,0.6363244914356305,0.28081855368155073,-164.14464294333206,-60.17907375137837,86.25695264865246,0
1767479177.392849,2,right_wrist,0.7154,0.2811,-0.161,13.93,-11.97,-56.91,0.5263624240996823,0.6587899093158646,-0.40479222540841414,0.3536689244595921,115.67141186338985,-63.141103312496455,-20.880673053431376,0
1767479177.444052,1,left_wrist,0.9072,-0.0029,-0.1781,68.39,8.12,-11.83,-0.4459621460780242,0.5591631684178581,0.6452627925839151,0.2684962641401041,-161.61629983837696,-61.1388479448438,87.25797763917846,0
1767479177.444052,2,right_wrist,0.9087,0.3645,-0.1747,22.05,3.01,-55.44,0.5283526384917852,0.6706356589059171,-0.38628965922099157,0.3491011337442573,114.27262548045782,-61.215105450154326,-18.052999841138327,0
1767479177.524628,1,left_wrist,0.8457,0.0327,-0.3553,17.78,30.52,-52.78,-0.4704155284456602,0.514894577248915,0.6627913343212722,0.2725810926412154,-163.2423002787739,-64.7259113049142,93.6507295129696,0
1767479177.524628,2,right_wrist,1.0375,0.3709,-0.1362,35.63,3.78,-44.38,0.5250990639694226,0.6832257502588027,-0.36814210883619153,0.34920614957840324,113.96524826968349,-59.74544136398445,-15.696767167888858,0
1767479177.596116,1,left_wrist,0.8457,0.0327,-0.3553,17.78,30.52,-52.78,-0.4750832547194195,0.48981488634291587,0.6715612021956778,0.2887608524498699,-168.51713025747182,-67.06884664974399,100.16383695652988,0
1767479177.596116,2,right_wrist,0.9331,0.3967,-0.0795,25.62,-0.07,-17.08,0.5187461717842423,0.697996635321731,-0.3463608304587632,0.35176310418042966,114.03992628264751,-58.255816031393664,-13.023796261602723,0
1767479177.6482282,1,left_wrist,0.7823,-0.0542,-0.4402,23.17,47.46,-72.87,-0.4815128434328673,0.4585207386613189,0.6815527904971769,0.30559762366907384,-175.90780137320883,-69.48795405868134,109.29905804218726,0
1767479177.6482282,2,right_wrist,0.8642,0.4621,-0.0527,16.66,0.98,22.19,0.5123233362297781,0.6961692962302406,-0.34965654022374654,0.36140477863393117,114.90234024347964,-59.482288978774854,-13.266119789727552,0
1767479177.728101,1,left_wrist,0.8579,-0.0346,-0.5671,34.09,53.34,-65.17,-0.4976849476786257,0.3940721179381019,0.6947631219118136,0.3381139795235522,164.30057413422338,-73.34119976735543,132.59797196710846,0
1767479177.728101,2,right_wrist,0.8642,0.4621,-0.0527,16.66,0.98,22.19,0.5060230543079979,0.6943915926245731,-0.35257841596048684,0.3707417500092321,115.7618397354757,-60.65744113226713,-13.50625033098647,0
1767479177.791578,1,left_wrist,0.8403,-0.0917,-0.5353,36.47,33.74,-56.91,-0.504019411459115,0.3660081003149051,0.7035785063582349,0.34202308221375477,156.46982839545794,-73.65832415821646,142.7628127933809,0
1767479177.791578,2,right_wrist,0.8233,0.5797,-0.0669,13.37,4.48,26.18,0.4951417904457125,0.6890491103238903,-0.3593797758774298,0.38844833325212985,117.27779597967437,-63.02541912650636,-14.110944529023273,0
1767479177.85023,1,left_wrist,0.8403,-0.0917,-0.5353,36.47,33.74,-56.91,-0.5100654466239879,0.3376543026902684,0.7116828929302478,0.34544213979399463,148.5777859215854,-73.59508581269567,153.00189191604852,0
1767479177.85023,2,right_wrist,0.8555,0.5915,-0.0747,23.38,7.49,18.55,0.489135415088857,0.6894676111129844,-0.3568300045387302,0.3975591865281144,117.72652372924475,-63.80342367567612,-13.509333995889072,0
1767479177.9314518,1,left_wrist,0.8501,-0.1815,-0.486,35.98,-27.86,-5.25,-0.5046409141210193,0.31867177225702875,0.732803763912258,0.32677896651665655,150.41846387689586,-71.41933419328618,154.48847504421855,0
1767479177.9314518,2,right_wrist,0.9389,0.5934,-0.0512,3.29,-1.61,1.33,0.49063178178305217,0.6894666062891082,-0.3547065186306029,0.397617327536823,117.15746755416255,-63.68214604684173,-12.89617479303587,0
1767479177.999373,1,left_wrist,0.8501,-0.1815,-0.486,35.98,-27.86,-5.25,-0.4995718452298699,0.3157496970409159,0.7452729368158687,0.308704308233693,155.00267670372773,-69.98136572896642,151.71770586219114,0
1767479177.999373,2,right_wrist,0.9262,0.4714,-0.1074,-9.31,-5.04,-17.92,0.5009474809129859,0.6930675292146968,-0.34390898464381225,0.3878603248547486,114.76149566218668,-61.90737337735563,-10.784076285622454,0
1767479178.074889,1,left_wrist,0.8599,-0.1571,-0.4211,-7.42,-30.31,32.83,-0.4869725816716172,0.3537919108961507,0.7468693145518621,0.2826220364114624,168.02977088543824,-68.03132724496078,137.40098668469489,0
1767479178.074889,2,right_wrist,0.8657,0.3958,-0.1196,15.33,-3.85,-14.21,0.4997145353558337,0.6969684187720997,-0.3374548315680163,0.38812967297003215,114.63244843120297,-61.43682019702283,-9.933892668463338,0
1767479178.150781,1,left_wrist,0.894,0.0893,-0.2704,15.75,-30.1,57.12,-0.48871223949147996,0.37151287996057014,0.7444768275746789,0.2624743419821586,175.88183725474028,-67.32331877528392,129.70242374687874,0
1767479178.150781,2,right_wrist,0.9209,0.3348,-0.1615,14.98,-10.99,-1.33,0.48977428106492227,0.702477068597816,-0.3354430930072583,0.39258763742033675,116.52487058173931,-61.66051440509851,-10.526667949328468,0
1767479178.225085,1,left_wrist,0.9311,0.0547,-0.2162,28.98,-23.17,57.33,-0.49961050777586835,0.39838931818425694,0.7384809849416186,0.2152234340314239,-168.8825670231539,-65.42134866495694,116.15545098613045,0
1767479178.225085,2,right_wrist,0.9384,0.367,-0.185,-3.64,-17.71,6.72,0.48612461654071437,0.7015668332068239,-0.34384067869612234,0.3914848955082199,118.14177042897292,-62.08027348767085,-12.56131489225192,0
1767479178.277246,1,left_wrist,0.8545,-0.02,-0.1571,-0.42,-1.89,39.62,-0.504859299710926,0.4101246566605461,0.7304771409887366,0.20812976718236162,-164.74882032103687,-65.27073904218057,111.5752245710742,0
1767479178.277246,2,right_wrist,0.9618,0.4138,-0.1342,-10.92,-19.95,14.7,0.48545615477893317,0.6982028773517132,-0.3541331336653093,0.3891462289235617,119.30531594282438,-62.5282325045475,-14.651882765138108,0
1767479178.34014,1,left_wrist,0.9823,-0.0986,-0.1976,16.52,16.94,22.4,-0.5177657916943889,0.41097360793791854,0.7225755468162971,0.20224702141861506,-160.76497451284104,-66.13286234616946,108.14969791116692,0
1767479178.34014,2,right_wrist,0.9789,0.429,-0.1781,21.98,-2.66,18.76,0.47347036070745185,0.6983811627791262,-0.3609119278370697,0.39728094511536904,122.21260929710601,-63.723652258075006,-16.793509716225742,0
1767479178.3993118,1,left_wrist,0.9823,-0.0986,-0.1976,16.52,16.94,22.4,-0.5304093488949392,0.4114581151878121,0.7146477803781903,0.19658761927310092,-156.64047892931595,-66.90954875375604,104.58169744944037,0
1767479178.3993118,2,right_wrist,0.7725,0.4163,-0.2699,-13.58,-5.39,8.68,0.47566874747060195,0.6975647080937977,-0.36561646484697713,0.3917490540314841,122.52880369934333,-63.42701815811802,-17.88716163823625,0
1767479178.471736,1,left_wrist,0.8589,-0.2752,-0.305,25.97,25.34,23.45,-0.5631148121741993,0.4134644071180066,0.6945988218790754,0.17170139487136346,-143.49052536744995,-67.55742292477105,93.5890289937023,0
1767479178.471736,2,right_wrist,0.7725,0.4163,-0.2699,-13.58,-5.39,8.68,0.47791640799585905,0.6966894840934217,-0.37025079155301693,0.3861787423931332,122.80649510303464,-63.12453581972146,-18.946839867544686,0
1767479178.532328,1,left_wrist,0.9853,-0.2996,-0.3538,71.82,11.13,-0.14,-0.5788442053523909,0.3975281837223598,0.6964089794182422,0.14807181521816826,-138.3967598724262,-67.51055942261485,92.07073567424972,0
1767479178.532328,2,right_wrist,0.7725,0.4163,-0.2699,-13.58,-5.39,8.68,0.4802119292167839,0.6957549548824163,-0.37481550914448203,0.38057178021921684,123.04678492879411,-62.816900068664786,-19.973617323710123,0
1767479178.60137,1,left_wrist,0.9853,-0.2996,-0.3538,71.82,11.13,-0.14,-0.592164094701449,0.3805654679328449,0.6990354114428963,0.12594087149265315,-134.18769724180578,-67.4798417342712,91.349944632891,0
1767479178.60137,2,right_wrist,0.8086,0.4124,-0.3304,-9.8,-3.64,7.35,0.4678232250063007,0.7012443005060115,-0.3764431522074772,0.38430250364606905,126.04335682162603,-63.02412208863631,-21.79017987164418,0
1767479178.6788669,1,left_wrist,0.8623,-0.3533,-0.327,60.34,2.31,-1.05,-0.6126268814871134,0.34721280196881726,0.7060233204765993,0.07525054931051675,-126.71752956840052,-66.53646098273512,91.18914782240044,0
1767479178.6788669,2,right_wrist,0.8086,0.4124,-0.3304,-9.8,-3.64,7.35,0.4685778131939745,0.7011065058062937,-0.3803749414602576,0.3797359667025864,126.50456986657403,-62.74050239160339,-22.800625695404392,0
1767479178.747537,1,left_wrist,0.8564,-0.2865,-0.3152,69.51,7.0,-25.62,-0.6212247266017384,0.32120121074785113,0.7121071316422726,0.061749933902192626,-125.32948286684471,-67.58187262611789,93.27990391749903,0
1767479178.747537,2,right_wrist,0.815,0.4573,-0.2704,-8.68,10.08,-14.77,0.485106662734612,0.7010883731221148,-0.369733470665433,0.3693829713362095,122.21177990406927,-61.2421148651195,-19.431005263738125,0
1767479178.80177,1,left_wrist,0.8564,-0.2865,-0.3152,69.51,7.0,-25.62,-0.629234128289881,0.2950740013173866,0.7174296494250709,0.04785857987488215,-123.9210575578392,-68.60789510854208,95.34724373165714,0
1767479178.80177,2,right_wrist,0.7998,0.4094,-0.2372,3.85,12.39,-17.57,0.49120339537270535,0.7040205345636081,-0.3583475839019071,0.3669622874339578,120.06447974582329,-60.312671831571535,-16.91049524702621,0
1767479178.87281,1,left_wrist,0.9823,-0.4128,-0.1967,84.35,-7.07,-35.98,-0.6446576778043016,0.23096756392234966,0.7287242709689227,0.005603549281719463,-120.23035244168159,-70.41476536912373,100.68327426952804,0
1767479178.87281,2,right_wrist,0.8403,0.3841,-0.2328,-8.54,10.08,-17.08,0.49622132209337094,0.7015097165988196,-0.3547969553968242,0.368466602907909,118.49444569425005,-60.352070916652124,-15.489242748138693,0
1767479178.9263291,1,left_wrist,0.9887,-0.4631,-0.1615,44.8,0.98,-34.02,-0.6498314306346472,0.21028386899386634,0.7304058737162884,-0.0026581649767119077,-119.28069956989438,-71.47109337062311,102.1712568180446,0
1767479178.9263291,2,right_wrist,0.8618,0.4026,-0.2308,-6.09,9.94,-17.78,0.5001460394074896,0.6999262054889129,-0.3509257907729281,0.3698761083191086,117.1679163251971,-60.31951881679633,-14.17530610500209,0
1767479178.991373,1,left_wrist,0.9218,-0.4006,-0.1444,40.11,-5.11,-9.38,-0.6521347485436008,0.19884983789469649,0.731361972387436,-0.016990499015240787,-117.6449118861144,-71.28672986708048,102.66782792145166,0
1767479178.991373,2,right_wrist,0.8647,0.3035,-0.1264,-13.93,11.27,-6.79,0.5098996066207377,0.692010121245739,-0.34578319333193636,0.37624243044962813,113.8422575536501,-60.85106873326559,-11.232530087715784,0
1767479179.044183,1,left_wrist,0.9218,-0.4006,-0.1444,40.11,-5.11,-9.38,-0.654028723660599,0.18744872235269944,0.7322074644205682,-0.031331041508873905,-116.08940292384364,-71.08906111559273,103.23826999947036,0
1767479179.044183,2,right_wrist,0.9155,0.3353,-0.1064,3.57,16.45,3.92,0.5106256807114194,0.687115074777039,-0.3438953244459971,0.38583713408163056,112.50486996661586,-61.815661784416136,-9.57393087878982,0
1767479179.0982568,1,left_wrist,0.9814,-0.3387,-0.1098,25.41,-10.92,-2.94,-0.6547452008210142,0.18027217799801493,0.7328553733606661,-0.04163730992872507,-115.09709162841001,-70.8485991416658,103.68614153643006,0
1767479179.0982568,2,right_wrist,1.0233,0.3279,-0.0244,-8.68,21.14,15.26,0.5142544889760569,0.676873349802943,-0.34590186711050924,0.39716078258556803,110.26720728378345,-63.30597939495661,-7.647239046809418,0
1767479179.177212,1,left_wrist,0.8969,-0.303,-0.1078,36.19,-3.36,15.82,-0.658876150451422,0.16841217558379817,0.7298067323673796,-0.07001207662035872,-110.62072508550426,-69.73864586516513,102.51447865395875,0
1767479179.177212,2,right_wrist,0.954,0.4441,-0.0337,-0.98,15.82,14.07,0.5164627736688765,0.6696881176904963,-0.34571868393473815,0.40652505459915195,108.3248000862568,-64.36807873911955,-5.722992152961865,0
1767479179.248873,1,left_wrist,0.8935,-0.3401,-0.1518,0.21,0.21,20.3,-0.6558133209765709,0.17695764740222125,0.7297749436658685,-0.07761063492222596,-110.30166333393342,-68.39193637450398,102.09945736033872,0
1767479179.248873,2,right_wrist,0.9087,0.449,-0.0517,-15.82,3.08,4.34,0.5224367320094029,0.6587552037199887,-0.3458993839575556,0.41647936178993894,104.99698512483883,-65.52428817589768,-2.8441663097324232,0
1767479179.2998242,1,left_wrist,0.8428,-0.2699,-0.1991,13.44,2.1,25.27,-0.654198757370198,0.18068213841045755,0.729206670532195,-0.0873818194252315,-109.4906647134507,-67.29665043824821,101.77400917983026,0
1767479179.2998242,2,right_wrist,0.8525,0.4895,-0.04,-29.89,-2.8,-8.47,0.5351205926021074,0.6534261079444965,-0.3466259435585264,0.4080817664167781,102.75055013626654,-64.72593772469804,-2.1803054191223943,0
1767479179.371676,1,left_wrist,0.9306,-0.7379,-0.1562,140.63,2.03,72.87,-0.6611601984772831,0.16520423931491982,0.7097738507789872,-0.17831385816090156,-97.50696293223808,-61.598007179537085,98.6027164992014,0
1767479179.371676,2,right_wrist,0.8491,0.5485,-0.0673,-62.86,-10.64,-26.04,0.5584625058736905,0.6451840140212894,-0.34958765874821407,0.38684064734150814,99.7002313716801,-62.82679001251079,-2.3875541466986254,0
1767479179.4272351,1,left_wrist,0.8804,-0.8496,-0.0283,152.53,2.59,112.35,-0.6613184991968383,0.158682626071884,0.6853233585959867,-0.26040269001238925,-88.95857650763833,-55.466134751678375,97.59796877270922,0
1767479179.4272351,2,right_wrist,0.8316,0.6964,-0.0727,-125.09,-16.87,-65.31,0.6030663072431253,0.6276736059158193,-0.3526847901835157,0.3434389498556952,94.08003156104877,-58.92803863963961,-3.166497193318956,0
1767479179.497735,1,left_wrist,0.8804,-0.8496,-0.0283,152.53,2.59,112.35,-0.6556187116730703,0.15154429214726783,0.6570081700144382,-0.3399098365096341,-81.99563959041316,-49.32958139681529,98.32833728560952,0
1767479179.497735,2,right_wrist,0.8316,0.6964,-0.0727,-125.09,-16.87,-65.31,0.6811539592035275,0.5872658014218604,-0.356624430641377,0.25291733394809657,84.84734409919818,-51.52610341395418,-6.860231873102241,0
1767479179.5726998,1,left_wrist,0.8872,-1.1551,0.5412,224.49,62.86,206.99,-0.6325725966733265,0.1471615001504267,0.5156519360908597,-0.5588367235760269,-60.87219011481398,-29.202389736721152,100.32095156499285,0
1767479179.5726998,2,right_wrist,0.8076,1.2371,0.5827,-177.73,75.32,-191.87,0.7565148487115392,0.5510377967466872,-0.2997173390728491,0.1849652586152451,73.57783621165403,-41.09632665503617,-3.8387739274341874,0
1767479179.6241128,1,left_wrist,0.8316,-1.1361,0.8696,173.95,116.2,229.95,-0.6099826746220411,0.17557679984779628,0.41973208012121316,-0.6487826330391923,-52.32330683846911,-16.513200198906432,101.68563798000882,0
1767479179.6241128,2,right_wrist,0.834,1.3059,0.7749,-141.26,124.6,-209.79,0.8195393554136867,0.5161236809957802,-0.2151014931916594,0.12531136608545795,64.6827801403862,-28.81091507127447,-1.0883369670404652,0
1767479179.699353,1,left_wrist,0.6105,-0.8677,0.8852,60.27,215.11,209.51,-0.5916311965473666,0.25260225821022814,0.3263798084024248,-0.6925610782351408,-48.717539299708854,-2.0807506948515346,99.92988800847755,0
1767479179.699353,2,right_wrist,0.69,0.9809,1.0224,-111.23,220.15,-219.52,0.9106714965206821,0.41260483841116913,0.011126020564852694,0.01763191455471544,48.75519206275316,0.32740551254999767,2.3667445124745017,0
1767479179.775554,1,left_wrist,0.1879,-0.5744,0.6486,10.99,212.66,150.29,-0.536565251901649,0.39907268971526416,0.15415253777682209,-0.727375909603906,-45.82632351252392,24.527247196954487,96.67048941359292,0
1767479179.775554,2,right_wrist,0.4695,0.7608,0.7554,-62.09,243.32,-172.13,0.9147373750443226,0.3815427979489557,0.13288807951269735,-0.004624538218224047,45.97253772596729,14.279027860399086,5.503552012281262,0
1767479179.8426182,1,left_wrist,0.0015,-0.4241,0.5109,-0.98,189.77,121.73,-0.5100825627351403,0.4624676798413416,0.09041965565136165,-0.7195579963891772,-47.27625040087024,34.98078260055097,93.63025471791335,0
1767479179.8426182,2,right_wrist,0.0288,0.5441,0.428,-28.42,192.5,-104.93,0.886026133298882,0.34468228969619114,0.3096383038146212,-0.016611173710094306,46.461090259825646,34.065923772708516,12.834646801745826,0
1767479179.9023302,1,left_wrist,0.0015,-0.4241,0.5109,-0.98,189.77,121.73,-0.478862906901809,0.522050706839347,0.025866360176072824,-0.7053256746307549,-49.785310979896096,45.370028643592576,89.69878881784622,0
1767479179.9023302,2,right_wrist,-0.164,0.3889,0.3436,-34.37,144.69,-82.46,0.8697228767945364,0.3219634030999783,0.37352477971375597,-0.02002307629477636,46.70108343096595,41.49995710492781,15.940579808587284,0
1767479179.9761548,1,left_wrist,-0.4382,-0.2884,0.2508,4.48,131.11,68.39,-0.4327233778500565,0.6016425448094636,-0.07100395216567315,-0.6676340055105676,-58.014531317196614,59.8603531662786,78.6929980918101,0
1767479179.9761548,2,right_wrist,-0.4011,0.3606,0.2347,-22.12,97.23,-57.19,0.8535760515759211,0.30764398647890623,0.4197581077815323,-0.023795644792585842,47.786765945484355,46.98978591608053,18.606914852720887,0
1767479180.0286238,1,left_wrist,-0.5812,-0.2845,-0.0439,25.83,89.25,38.99,-0.4236742248185025,0.6238324539544489,-0.10576778296710398,-0.6481870075092797,-63.021039370446275,63.94102481643105,71.78269149251001,0
1767479180.0286238,2,right_wrist,-0.5968,0.3172,0.2259,-25.06,64.61,-39.97,0.8423181183233603,0.2914917164604745,0.4525748926073615,-0.02662204651327039,48.00244583297313,51.07273869798205,20.39764412347249,0
1767479180.1019578,1,left_wrist,-0.7452,-0.3294,-0.0493,1.4,48.16,12.46,-0.4169381600617843,0.6392514579420235,-0.11880719663047945,-0.6351417119289976,-67.98825385265032,65.65795310193033,66.4087051529661,0
1767479180.1019578,2,right_wrist,-0.8457,0.2181,0.1771,16.94,31.08,-2.73,0.8216663692236601,0.2970348285065875,0.4853807128576063,-0.032252936714540104,52.356315343192485,54.76598157158419,24.075491135486246,0
1767479180.179616,1,left_wrist,-0.8935,-0.3255,0.0405,-2.66,-11.34,-9.52,-0.41222078485598457,0.6462466900248185,-0.11202344947787853,-0.6323685530857456,-70.35281307276728,65.46240304350547,65.05900909677412,0
1767479180.179616,2,right_wrist,-0.8457,0.2181,0.1771,16.94,31.08,-2.73,0.811284724480053,0.30111167886552737,0.4999229684119833,-0.03501254532677035,54.89619384729054,56.3300603591801,26.140200856527272,0
1767479180.246293,1,left_wrist,-0.8935,-0.3255,0.0405,-2.66,-11.34,-9.52,-0.4123681512887346,0.6463049838533119,-0.10846638529072188,-0.6328328522691011,-70.38330586261407,65.15697144767363,65.3067231003827,0
1767479180.246293,2,right_wrist,-0.8135,0.1928,0.0791,11.62,-28.0,13.72,0.8079764562472351,0.31308237113135196,0.4974248524120378,-0.041496882290024975,56.36684737250326,56.07809840206007,25.974240186194315,0
1767479180.2969768,1,left_wrist,-0.8281,-0.3855,0.1054,-3.08,-41.37,-32.06,-0.4226005896144684,0.6393850887694472,-0.0894958949572973,-0.6360706994529636,-68.69457514031441,62.75164377816341,67.55442757680379,0
1767479180.2969768,2,right_wrist,-0.875,0.307,0.2796,-1.47,-43.82,16.73,0.8174037666187568,0.31216805619135457,0.48213286589196563,-0.04415978530269646,53.97149978073723,54.66307272129318,23.304661113249573,0
1767479180.3491259,1,left_wrist,-0.7218,-0.3265,0.0083,-10.22,-71.12,-52.01,-0.4350466359153785,0.6259160856522453,-0.05988418815347037,-0.644497759739848,-65.87946506672543,59.194177656323866,71.5505133821664,0
1767479180.3491259,2,right_wrist,-0.6251,0.2289,0.0312,36.75,-58.31,36.12,0.8228497268411414,0.3316991287348685,0.4589024419128865,-0.04798503767194389,54.438585797021915,51.91055589869614,21.437609635340745,0
1767479180.424242,1,left_wrist,-0.588,-0.4026,-0.0122,-39.97,-107.8,-82.32,-0.45989210973429373,0.5863431980941106,0.049279189390213606,-0.6650356854680463,-63.04830884976835,47.269381040757665,80.61942887390366,0
1767479180.424242,2,right_wrist,-0.5671,0.266,-0.0117,44.17,-104.72,71.47,0.8354055418930922,0.35998611294632354,0.4126874977378766,-0.04686798769902334,54.583262403858846,46.32483102421286,18.473336489524534,0
1767479180.490742,1,left_wrist,-0.4426,-0.3138,0.0776,-58.17,-146.93,-123.97,-0.474142584901154,0.5538034085323958,0.12569079190937016,-0.6728242108532863,-62.91855114555264,38.758118308500556,85.36461484392001,0
1767479180.490742,2,right_wrist,-0.2274,0.3855,0.2718,68.11,-175.7,141.26,0.8607035529422465,0.44611431757417097,0.24362932508169147,-0.02856854158273659,57.344216780228244,26.415336607064642,10.82459564050561,0
1767479180.542676,1,left_wrist,-0.2298,-0.2821,0.3362,-159.46,-138.25,-222.46,-0.4902819497029198,0.5263866991284143,0.2527076805719875,-0.6470544652161225,-69.32986123415235,25.68388937692074,87.77940838628132,0
1767479180.542676,2,right_wrist,-0.0068,0.6837,0.7608,73.78,-201.95,165.76,0.8650562665886357,0.4843607712019879,0.13010449209809352,-0.01204658010573311,59.23768260233015,13.695697794829872,6.215689397666378,0
1767479180.6230211,1,left_wrist,0.1074,-1.1644,0.4973,-114.87,-107.52,-257.18,-0.5218048670259355,0.43780631306323203,0.47979455612126765,-0.5530302857045182,-81.00972328311805,-0.944160769939996,94.13463707578677,0
1767479180.6230211,2,right_wrist,0.1972,1.0394,0.5944,114.31,-162.33,197.96,0.8446300050933735,0.5343550988577007,0.02192564676916551,0.024167102319025625,64.65963510958285,0.6423271941794199,3.684406768999731,0
1767479180.673974,1,left_wrist,0.6076,-0.8047,0.1113,-250.74,46.27,-316.75,-0.5532760153527786,0.43007517863259953,0.5834541563208911,-0.4104902423095668,-93.04322294811053,-17.01002672227665,91.06909890739647,0
1767479180.673974,2,right_wrist,0.4275,0.7432,0.6817,102.27,-128.45,226.87,0.8144359920587816,0.5693750551270317,-0.07987712011681576,0.07826689670711083,69.67695431559,-12.664165944561825,2.1455098389915137,0
1767479180.746192,1,left_wrist,0.6076,-0.8047,0.1113,-250.74,46.27,-316.75,-0.5683648630966373,0.40878347452337926,0.6667563944231717,-0.2555256618219516,-105.4981802969231,-33.29929117664281,91.35159917441952,0
1767479180.746192,2,right_wrist,0.8769,0.8755,0.346,107.31,-87.71,244.09,0.7043306080316444,0.6248032087725895,-0.2632221432430637,0.2103650356018747,84.01444427343927,-39.32099004460456,-2.414504476438213,0
1767479180.821951,1,left_wrist,1.2903,-0.5505,-0.2372,-54.6,103.39,-218.61,-0.6456902875965581,0.3171735936977301,0.6913326546517387,-0.06741012221114223,-107.34942040252646,-58.21298979747007,86.18698126765199,0
1767479180.821951,2,right_wrist,1.0302,1.1263,0.2596,145.74,-76.79,236.39,0.6305866195528701,0.641798817088987,-0.3358410536878927,0.27868545043088744,94.53836001598086,-51.37734570924388,-7.3279371823342885,0
1767479180.87303,1,left_wrist,1.1488,-0.1859,-0.3967,-36.68,85.47,-132.23,-0.667089935609452,0.28744541349160585,0.6872780962203702,-0.003869176517132793,-105.78996871490905,-66.16716407552627,82.13857363035171,0
1767479180.87303,2,right_wrist,1.0194,0.8135,0.002,83.72,-43.05,142.87,0.584070089759272,0.6453156267451065,-0.3755001030010688,0.3184800539646923,102.58190769043696,-58.176562983960736,-12.330159190864146,0
1767479180.948255,1,left_wrist,1.1488,-0.1859,-0.3967,-36.68,85.47,-132.23,-0.6842343986050115,0.2568483721470331,0.6800273994976268,0.05843746592343639,-101.79811859102938,-73.86620418132165,75.77250709396627,0
1767479180.948255,2,right_wrist,0.9526,0.7608,0.0039,58.73,-20.93,119.7,0.49801863956943776,0.6414323404394121,-0.4379754522255418,0.38564166077805573,124.44623487210386,-68.58589203254849,-29.133373116187734,0
1767479181.028457,1,left_wrist,1.1458,-0.2381,-0.3621,-1.61,43.68,-74.48,-0.6986307417929792,0.21184665393710078,0.6739281904856631,0.11338816475349492,-89.24626873872315,-81.76771683000123,62.58494763506387,0
1767479181.028457,2,right_wrist,1.0038,0.5729,-0.08,27.09,-8.96,89.95,0.4762206375508026,0.6312098419260402,-0.4576784111746602,0.4065937920960538,133.29746666454747,-71.65959536178934,-37.26431316302783,0
1767479181.0984719,1,left_wrist,1.0321,-0.1718,-0.2718,27.23,13.02,-35.35,-0.7005052626994032,0.19353762124678633,0.6769188928616864,0.1166892393474406,-85.6301737316685,-83.48289170956137,60.245143913246785,0
1767479181.0984719,2,right_wrist,0.9199,0.4387,-0.0839,18.97,2.94,52.15,0.4456651121055145,0.618008761890604,-0.4741636270807048,0.4411537519188659,148.1813308785796,-75.44575085224629,-50.126636187635654,0
1767479181.174633,1,left_wrist,0.9853,-0.163,-0.1503,36.96,3.08,-8.26,-0.7036992584122007,0.16290145034109424,0.6843729295601516,0.09951966877026082,-83.74818958232409,-84.62886117770836,62.336858702774606,0
1767479181.174633,2,right_wrist,0.8838,0.3904,-0.0786,28.49,10.01,37.17,0.43593598449919896,0.6144323726934844,-0.47405228843030217,0.4557489491364329,153.131833162521,-76.74686560095734,-53.881675030442565,0
1767479181.2529101,1,left_wrist,0.9628,-0.1376,-0.1157,18.83,0.14,-2.87,-0.7026024755904766,0.1577714529743737,0.687539566781937,0.09352686261066931,-87.05146407398537,-84.65124812368424,66.5578750561886,0
1767479181.2529101,2,right_wrist,0.9467,0.3279,-0.1391,17.78,5.04,10.71,0.4258353255529558,0.6150722459703155,-0.4651232094344274,0.47329780032624014,156.18452344318715,-78.05769599607403,-54.79322204037852,0
1767479181.325881,1,left_wrist,0.9843,-0.08,-0.0986,5.95,1.19,3.08,-0.6997685517017127,0.15196147532652998,0.6928448545140309,0.08483921050612699,-93.76103919249412,-84.53025085564475,74.46043751425138,0
1767479181.325881,2,right_wrist,0.9653,0.2064,-0.1088,-3.78,-3.99,-5.88,0.43049596770954085,0.6165968402295616,-0.4623472194724189,0.46980486060796495,152.82782132341327,-77.80588978081944,-51.65696173598169,0
1767479181.394697,1,left_wrist,0.9916,-0.0293,-0.1132,-3.5,-2.1,6.37,-0.6966065739108357,0.15412677682135875,0.6955326609088317,0.0849619647839335,-98.85546909489264,-84.39276832969757,79.36542569825968,0
1767479181.394697,2,right_wrist,0.9838,0.1459,-0.1025,4.13,1.05,-7.7,0.43833366850547417,0.6189104988073447,-0.4544674617181211,0.46719665640933794,146.6493569705817,-77.6134368825624,-45.49109164461063,0
1767479181.448916,1,left_wrist,0.9916,-0.0293,-0.1132,-3.5,-2.1,6.37,-0.6934577979531463,0.15616825986714966,0.6981853416661957,0.08523488575986692,-103.65394928606607,-84.23719747422146,83.9720325166384,0
1767479181.448916,2,right_wrist,0.9814,0.1137,-0.1196,-3.85,-2.24,-7.07,0.4420595309571981,0.6181126521389068,-0.4525796045695635,0.46657456197628966,144.455744528586,-77.66775637043582,-43.486684977198955,0
1767479181.524662,1,left_wrist,0.9706,-0.0234,-0.1474,0.63,-3.36,9.87,-0.6881975511911985,0.1578672796325158,0.703165025556116,0.08379140403724901,-111.2762754450188,-83.87352685327849,91.57003725001347,0
1767479181.524662,2,right_wrist,0.9775,0.1166,-0.1108,-3.92,-2.87,-7.14,0.44561145571755384,0.6173746010195347,-0.4508937474208407,0.4658045309848801,142.38274434367335,-77.68737535695537,-41.60921238143513,0
1767479181.578242,1,left_wrist,0.9706,-0.0234,-0.1474,0.63,-3.36,9.87,-0.6850115049559469,0.1598289856520277,0.7060729033266826,0.08170060349386574,-114.93672465460362,-83.4398037152682,95.23694604231167,0
1767479181.578242,2,right_wrist,0.974,0.1254,-0.1093,-9.52,-4.41,-8.26,0.45070103520052807,0.6161114767706368,-0.45025740024645333,0.4631884050621112,139.97994042732375,-77.58454962830795,-39.68762655361292,0
1767479181.642829,1,left_wrist,0.9599,-0.1113,-0.1947,4.41,-4.97,11.06,-0.6815544146382319,0.16282628071611072,0.7093419479303595,0.07619175218918689,-117.534081792146,-82.62278898304187,98.03261524645795,0
1767479181.642829,2,right_wrist,0.8979,0.3099,-0.124,-31.15,-9.38,-22.61,0.4727334183063037,0.6180930514340924,-0.4484527318388975,0.4397433823169594,131.19733107521375,-75.37562437184211,-33.29739413081046,0
1767479181.6961138,1,left_wrist,0.9677,-0.121,-0.2372,39.13,-9.59,33.04,-0.6796181472294051,0.16239652988645556,0.7133845327012539,0.053188810288649385,-115.97877631671022,-80.72762025746951,98.38382699126348,0
1767479181.6961138,2,right_wrist,0.8657,0.4665,-0.0981,-52.92,-0.7,-56.84,0.5003716329844335,0.6192386207972606,-0.44033981468655004,0.4150573538914985,121.32890799709052,-72.68948158329482,-25.9031149605495,0
1767479181.7710102,1,left_wrist,1.0624,-0.8769,0.0376,290.85,27.09,209.51,-0.7008734974350481,0.12316581880169168,0.679227428483725,-0.17960128637473327,-83.56899624322985,-65.21175664767821,88.25229659460308,0
1767479181.7710102,2,right_wrist,0.8804,0.7891,0.0029,-113.54,5.39,-113.19,0.5539643825283918,0.6144201433883094,-0.42528391131459525,0.3670762115223302,107.58002409491999,-67.25909055922502,-17.4486409952323,0
1767479181.8228538,1,left_wrist,1.0297,-1.1663,0.2894,270.48,38.64,247.31,-0.6983816872893596,0.1179404677792479,0.6228667486823986,-0.33225002378434343,-71.26458642918112,-52.3377258391561,89.69112284828296,0
1767479181.8228538,2,right_wrist,0.9287,0.8789,0.0883,-169.75,31.22,-163.87,0.6307568953564919,0.595744433059366,-0.3959009976059136,0.30082671014000184,92.59857604075718,-59.07784247658383,-10.337733348134588,0
1767479181.87661,1,left_wrist,1.0297,-1.1663,0.2894,270.48,38.64,247.31,-0.6764768751860561,0.11068451414308256,0.5512617650990986,-0.47564529011359413,-61.38989769803814,-39.831988565951384,94.50038690793288,0
1767479181.87661,2,right_wrist,0.9731,1.1244,0.3148,-168.7,67.69,-210.98,0.7111539255812824,0.5721753547020154,-0.33902030477097916,0.22790500335654548,80.07484406725284,-47.987129094798554,-5.470564495482203,0
1767479181.9454138,1,left_wrist,0.9184,-1.1878,0.7754,142.45,155.12,268.24,-0.6578200238960668,0.16526717855970777,0.4545142679097698,-0.5773875268125714,-54.360374834636126,-24.02472050099068,95.01975522148612,0
1767479181.9454138,2,right_wrist,0.9638,1.2654,0.8755,-198.31,163.38,-252.84,0.8639604917249686,0.4739477586576437,-0.14866564496164164,0.08273038625490495,57.47487111165917,-19.5909186367762,0.1235834040394726,0
1767479182.000937,1,left_wrist,0.9184,-1.1878,0.7754,142.45,155.12,268.24,-0.6253249460474923,0.2117313389943326,0.35438519121576606,-0.6622308420674266,-48.08151615781169,-9.368396293042887,97.470238363614,0
1767479182.000937,2,right_wrist,0.8633,1.1292,1.0604,-133.07,217.07,-235.13,0.9050126714003919,0.4234513316884778,-0.02500482769825393,0.03187150589102397,50.0734656647878,-4.143312506662335,2.0979098450537443,0
1767479182.074093,1,left_wrist,0.5949,-0.9077,0.795,58.38,211.19,216.72,-0.5585205410085794,0.3528188310638347,0.16295676214569021,-0.7328156462502872,-42.20474161785201,19.57697232165742,97.75563771013127,0
1767479182.074093,2,right_wrist,0.6978,1.0585,1.0063,-102.97,253.96,-202.16,0.9202201575616076,0.37684001841447984,0.10576603910767586,-8.432163510997296e-05,44.99683747433875,11.228345853595146,4.652435559067691,0
1767479182.1267252,1,left_wrist,0.1586,-0.5988,0.5841,-1.96,221.83,166.46,-0.5189440834715561,0.4304858246038387,0.08673011077374014,-0.7333872653177136,-43.057180839958065,32.77964041456184,96.1970216563837,0
1767479182.1267252,2,right_wrist,0.5207,0.7457,0.8886,-63.21,260.05,-168.28,0.9110906980738979,0.34037896080186864,0.23163131801804643,-0.020070760819664794,42.746831716468726,25.832238302183814,7.733072579330791,0
1767479182.1977642,1,left_wrist,-0.0468,-0.3806,0.4895,4.62,199.15,141.12,-0.4814318186175445,0.49306577153639897,0.015724241822177007,-0.7244738071048096,-44.10793889679738,44.369761551494335,94.02846374590138,0
1767479182.1977642,2,right_wrist,0.0298,0.3855,0.3523,-27.72,215.95,-123.34,0.8495753232854463,0.2878115436095498,0.4397014725444021,-0.04526478180442561,45.10061127495315,50.63981788108205,16.130048235382866,0
1767479182.279762,1,left_wrist,-0.2284,-0.2713,0.2001,-7.63,179.55,115.99,-0.397412222017097,0.6015281338162524,-0.11149067673188796,-0.6839570593398654,-52.320330414779484,65.707110911745,84.48403863720885,0
1767479182.279762,2,right_wrist,-0.2128,0.3621,0.1781,-43.26,162.19,-96.67,0.8193557779342179,0.2591519939113599,0.5089499584957978,-0.04966178575831759,47.10309851090706,59.28987972955059,20.927049181147385,0
1767479182.3475368,1,left_wrist,-0.6071,0.2303,-0.4826,-53.76,41.44,23.24,-0.3715110333455471,0.6242864837611398,-0.11137026747769121,-0.6781169529053406,-57.966039355200714,68.34599048900184,81.34825912202349,0
1767479182.3475368,2,right_wrist,-0.5919,0.245,-0.3074,-1.61,62.86,-35.98,0.7711804794095576,0.23201470836066648,0.5895467915979693,-0.062325145796062686,55.25847437216146,69.75386069700305,30.84719478173235,0
1767479182.42304,1,left_wrist,-1.0575,-0.4875,0.1981,4.69,-7.84,-9.45,-0.39082249055677915,0.6136722007653179,-0.10773199072804963,-0.6775382122482974,-56.174471434689515,66.31686993173848,81.60097805427678,0
1767479182.42304,2,right_wrist,-0.8359,0.1596,-0.0952,9.24,7.21,-4.9,0.7658402866491674,0.2341732545281185,0.5952025155654111,-0.06622316568570907,56.991441780801225,70.50584146521837,32.098959068967375,0
1767479182.481615,1,left_wrist,-1.0102,-0.3616,0.0386,-6.3,-1.12,-4.27,-0.3892337384168371,0.6174410152822918,-0.10513098462349588,-0.6754340571790263,-57.537217185938175,66.33706615776237,80.61144893954173,0
1767479182.481615,2,right_wrist,-0.9853,0.141,0.1391,19.46,-2.38,4.27,0.763439254063058,0.2387277369582629,0.5956848385955321,-0.07300100019755225,57.56956059453036,70.80291574310749,31.733692380033617,0
1767479182.542795,1,left_wrist,-1.0102,-0.3616,0.0386,-6.3,-1.12,-4.27,-0.38757227425845875,0.6211741215170961,-0.1025896364559209,-0.6733541486286632,-58.88539710606226,66.35701828349112,79.63712877520125,0
1767479182.542795,2,right_wrist,-0.916,0.2401,0.1274,4.13,-10.15,4.62,0.7596705544812338,0.24571575294578235,0.5967154699750943,-0.08034342101793239,58.93858296486611,71.10217109399014,31.9050600944008,0
1767479182.5928562,1,left_wrist,-0.9506,-0.3963,0.0473,-0.42,-2.52,-4.48,-0.3881834232179882,0.6235920622657629,-0.10066597268505653,-0.6710535982775657,-59.94031527583041,66.21724953958287,78.68729399325984,0
1767479182.5928562,2,right_wrist,-0.9111,0.2503,0.1762,-6.65,-17.78,7.49,0.766888372638063,0.24191029026979355,0.5890204281716894,-0.08010349911562895,55.65248362767314,70.42120820732661,28.933210808719178,0
1767479182.644622,1,left_wrist,-0.9091,-0.4016,0.0576,-1.33,-7.56,-13.44,-0.39163208777688496,0.6250611307578882,-0.09482482275409626,-0.6685290895906045,-61.05930029533908,65.50756048995558,77.722979538297,0
1767479182.644622,2,right_wrist,-0.8926,0.2152,0.0932,3.57,-24.92,13.09,0.7710614745172928,0.24524201734483198,0.5821380558556846,-0.08022368333864537,54.65980087092926,69.56631405531844,27.61246699488984,0
1767479182.726917,1,left_wrist,-0.6217,-0.245,-0.1444,-37.1,-100.73,-74.13,-0.41344291723410337,0.5992566784429748,-0.02158284547438121,-0.6851938180629451,-58.91999669515287,57.04104249357309,83.65893260622278,0
1767479182.726917,2,right_wrist,-0.7989,0.1757,-0.1152,14.84,-46.9,31.64,0.7798372451580192,0.2570410716924535,0.5653293223089064,-0.07865440779319925,53.75954829218516,67.2446041850184,25.734864610019184,0
1767479182.795972,1,left_wrist,-0.6217,-0.245,-0.1444,-37.1,-100.73,-74.13,-0.4244588373571354,0.5788238836841412,0.025934217909944757,-0.6957909336917492,-58.07936710406466,51.578913594727155,87.19559014460151,0
1767479182.795972,2,right_wrist,-0.4207,0.2289,-0.0532,71.12,-148.75,111.51,0.82094846213798,0.33527585976468605,0.45606346361563943,-0.07509885170388891,53.305417469967416,53.05061705381906,17.675236756662166,0
1767479182.84608,1,left_wrist,-0.2967,-0.408,0.1069,-113.68,-160.16,-198.24,-0.45242234562753253,0.5457951425911536,0.14284520509252802,-0.6906641230604478,-62.26554782503984,38.657935323900645,89.62164229770403,0
1767479182.84608,2,right_wrist,-0.1903,0.3728,0.1152,78.19,-189.56,158.62,0.84667183400118,0.3895221737432997,0.3577917203722137,-0.0583469494015285,54.5115482510048,40.64113829474761,13.717136262617036,0
1767479182.896172,1,left_wrist,-0.2967,-0.408,0.1069,-113.68,-160.16,-198.24,-0.47146436616379783,0.5061537896617706,0.25612791762269604,-0.6752245422546918,-66.5881097991775,26.233126851009658,92.75146200856354,0
1767479182.896172,2,right_wrist,0.042,0.5861,0.508,32.55,-219.38,201.32,0.8739694499676247,0.4242435197056789,0.2358063752448254,-0.02429382441941312,54.083251495439264,25.644632531059464,10.069155548747709,0
1767479182.974273,1,left_wrist,0.2455,-0.8296,0.551,-161.63,-152.18,-291.55,-0.5324965121062109,0.38019587845454295,0.5079164379287724,-0.560285151224487,-78.68262650655123,-6.59735271689866,98.3231313281663,0
1767479182.974273,2,right_wrist,0.2406,0.9784,0.5256,183.12,-179.55,248.57,0.8505530906459485,0.5129967275739282,0.11389266039017916,0.020548951319060756,62.96386310464367,9.942537610249508,8.86598273646012,0
1767479183.024935,1,left_wrist,0.9994,-0.5827,0.1532,-206.92,-24.92,-304.99,-0.5618201222632452,0.34693599638126205,0.6089362400732224,-0.43953409442333374,-88.9061427181274,-22.286915871811274,97.95065219449961,0
1767479183.024935,2,right_wrist,0.6564,0.9257,0.7071,23.24,-178.78,268.8,0.8436197101907296,0.5305968263556357,-0.01632162895171252,0.08066223941473417,63.94579387347437,-6.496167413761115,6.865765479312717,0
1767479183.0901818,1,left_wrist,0.9994,-0.5827,0.1532,-206.92,-24.92,-304.99,-0.576987101562178,0.3046639634536178,0.6927903604125094,-0.30709488846790456,-100.609319358273,-37.75894482186056,100.82869886002264,0
1767479183.0901818,2,right_wrist,1.1297,0.9545,0.2059,120.05,-94.92,286.02,0.7022424936431271,0.6339827932209425,-0.2179052109896623,0.23966354967997314,82.66550411584095,-37.58442221813157,4.364550499971281,0
1767479183.1431308,1,left_wrist,1.1653,-0.9238,-0.2469,-82.67,8.89,-275.31,-0.6019217586485001,0.23856484928705543,0.7336191582264532,-0.20634907277051565,-107.87090930763658,-51.69362414786027,105.10727979737449,0
1767479183.1431308,2,right_wrist,1.261,1.2688,0.2679,155.75,-48.51,275.73,0.6194239812904769,0.6517669787253061,-0.2925257887991765,0.32548794099468714,91.925474208043,-51.87628507915867,2.034096929062313,0
1767479183.1965408,1,left_wrist,1.2449,-0.568,-0.1557,-107.66,60.06,-250.11,-0.6297058692456894,0.18770645440725664,0.7476523541564367,-0.09619128097559371,-116.36193277415917,-64.88945373584713,108.7593533170059,0
1767479183.1965408,2,right_wrist,1.2712,0.8511,0.0566,76.02,-29.82,183.19,0.5660636426123293,0.6479711144025543,-0.3420293258613548,0.3777847636726503,98.81681238522198,-61.25967470626844,-1.8531993901181758,0
1767479183.24695,1,left_wrist,1.2459,-0.4255,-0.2826,-49.14,68.88,-143.71,-0.6516144235394896,0.15421574817165967,0.742046412428267,-0.03135710212204518,-121.0184631136236,-73.21294455117967,110.94265222724087,0
1767479183.24695,2,right_wrist,0.9975,0.9516,-0.0049,50.19,-11.2,111.44,0.5336664702019553,0.6455315087773299,-0.36455515490456986,0.4069259254340456,104.19379839956028,-66.1303932091743,-5.152112059079731,0
1767479183.3243148,1,left_wrist,1.1512,-0.4978,-0.3055,-37.8,37.52,-98.07,-0.6753151624392201,0.10709101079982294,0.7266481869605752,0.06680837651425978,-148.94845719191474,-84.71088579114152,134.80676452533842,0
1767479183.3243148,2,right_wrist,0.935,0.5739,-0.1142,45.15,4.34,102.69,0.5050390717416071,0.6400669429588381,-0.38122612074085277,0.43579409060998514,109.29852242518169,-70.55181047235266,-8.260067926184245,0
1767479183.3968809,1,left_wrist,1.0868,-0.3865,-0.3157,0.49,36.12,-78.68,-0.6824625338171315,0.08380274567471464,0.7206971346899281,0.08841736143432127,166.12080061830014,-86.87904028569757,179.88452840836797,0
1767479183.3968809,2,right_wrist,0.9184,0.6007,-0.0825,-23.66,-8.47,50.89,0.48659484795969477,0.6219154306145589,-0.41624960265736477,0.45075816064734214,117.57090980632078,-74.96261321221318,-17.743990403328564,0
1767479183.4484448,1,left_wrist,1.0804,-0.4197,-0.2869,17.01,16.66,-50.47,-0.6850009092203356,0.0653497294247339,0.7193097650847319,0.09537625011068372,132.27894451684105,-86.30505733258074,-145.33734197231962,0
1767479183.4484448,2,right_wrist,0.8862,0.5222,-0.0703,-12.04,-6.79,38.43,0.4838183844543671,0.6149652831993168,-0.42760181201431674,0.4526523629515516,120.4094014376518,-76.04708635676583,-21.383863240711218,0
1767479183.521933,1,left_wrist,0.9755,-0.1854,-0.1615,9.59,-1.47,0.35,-0.6855294075229486,0.049960387583275014,0.7216640927073094,0.08218472115119735,132.90919808957457,-86.07614712562273,-143.63866498878096,0
1767479183.521933,2,right_wrist,0.8755,0.4699,-0.08,-9.52,-1.82,22.61,0.48433999685733775,0.6105263752069849,-0.43310076835990113,0.4528752996873611,121.20927065092943,-76.53705162508034,-22.780677799456193,0
1767479183.572899,1,left_wrist,0.9755,-0.1854,-0.1615,9.59,-1.47,0.35,-0.6841142577970695,0.05030334518396464,0.7236815601430809,0.07577766987011342,142.10794025298486,-86.18620899806209,-152.34335708797101,0
1767479183.572899,2,right_wrist,0.9043,0.3953,-0.123,-7.21,-4.41,9.38,0.48603998680388233,0.6100792939510851,-0.43531334442152375,0.4495227229944837,121.45859628074311,-76.32403731584539,-23.47432359350036,0
1767479183.625238,1,left_wrist,0.9765,-0.1454,-0.124,0.98,-1.82,9.8,-0.6829391903368517,0.05633229922359505,0.725012533927611,0.0691198959352052,158.0023359158461,-86.43630164637071,-168.18585158165152,0
1767479183.625238,2,right_wrist,0.9248,0.3548,-0.1078,-9.8,-5.25,-2.59,0.4908759547103569,0.6111643367365721,-0.43483909614282307,0.4432086540831917,120.2668178947308,-75.61558219158559,-22.831583599093904,0
1767479183.6782951,1,left_wrist,0.9999,-0.0239,-0.0859,-2.45,-3.71,10.5,-0.6806109208457962,0.06324702082623994,0.7271235721139635,0.06371734189584816,174.26706817830018,-86.23027852961347,175.42574192420892,0
1767479183.6782951,2,right_wrist,0.9521,0.2557,-0.1152,-3.15,-3.85,-9.31,0.4957203650748893,0.6142788430272226,-0.430815991811262,0.43740187912128786,118.46934298347908,-74.68796313937281,-21.22979189048533,0
1767479183.750609,1,left_wrist,0.9999,-0.0239,-0.0859,-2.45,-3.71,10.5,-0.678107299182724,0.07003433872408686,0.7292799263556555,0.058450587758220186,-172.4613923566311,-85.74767647182007,162.02887770553636,0
1767479183.750609,2,right_wrist,0.9701,0.1947,-0.1113,2.94,-3.08,-7.42,0.4968638322388652,0.6146792018867029,-0.4287467431581178,0.4375751834966672,117.6261238304583,-74.57818570562442,-20.29876453748384,0
1767479183.827167,1,left_wrist,0.9848,0.0459,-0.0898,-5.74,-1.96,3.22,-0.6732392305909821,0.07215965745428961,0.7330489386988349,0.06466201127287813,-178.41174374872304,-85.11430028610373,167.2977934711305,0
1767479183.827167,2,right_wrist,0.9721,0.1854,-0.0913,1.19,-1.89,-5.11,0.4966125255647407,0.6135939052813272,-0.42870925756495,0.43941653511438206,117.39456627889334,-74.8076275140282,-20.008660943889566,0
1767479183.8946428,1,left_wrist,0.9936,-0.0298,-0.0859,-0.28,0.42,-3.29,-0.6734871028289373,0.07455146198091124,0.732807145522988,0.06205553408072011,-173.6526943691877,-85.08639409116512,162.55612061231622,0
1767479183.8946428,2,right_wrist,0.9794,0.182,-0.0908,-0.14,-0.7,0.28,0.4939884466133164,0.609825127327411,-0.43052022426439,0.44580384160750464,117.63446569117251,-75.71231598884417,-20.05752974720387,0
1767479183.949471,1,left_wrist,0.9804,-0.0673,-0.0942,-0.14,2.87,-2.87,-0.6740091367764116,0.07693336512275481,0.7323004295553226,0.05940556999049285,-168.80173230154983,-85.06631193448473,157.7269175218859,0
1767479183.949471,2,right_wrist,0.9701,0.2196,-0.0883,-0.14,0.07,1.75,0.49570028433265795,0.6075634998537093,-0.42958866011979246,0.44788548185280047,116.26860304381765,-75.96131962055966,-18.74927001059433,0
1767479184.020767,1,left_wrist,0.9765,-0.1132,-0.1132,5.6,1.26,0.7,-0.674128901308169,0.08101746002375124,0.7323549170149791,0.051406917008546694,-158.42332123914386,-84.7051189528086,147.66591855405687,0
1767479184.020767,2,right_wrist,0.9575,0.2381,-0.0961,-2.1,1.12,1.68,0.499280911576476,0.60714874596756,-0.42717365123608375,0.44677918852047604,114.47273567634072,-75.7154146475007,-17.10686143952047,0
1767479184.076569,1,left_wrist,0.9711,-0.2591,-0.1957,24.85,-1.89,31.5,-0.6736478675707513,0.08683038412567798,0.7332838810915796,0.03088340397748858,-141.6107026332833,-83.37051255822782,132.0454462254808,0
1767479184.076569,2,right_wrist,0.9428,0.2835,-0.0883,-12.81,-2.52,-4.9,0.5060368940318607,0.6070584183562605,-0.4259167719535811,0.44045617483470934,112.65791352782428,-74.9775761917623,-15.97566777830829,0
1767479184.142825,1,left_wrist,0.9711,-0.2591,-0.1957,24.85,-1.89,31.5,-0.6727083646599398,0.09252103083100024,0.7340246803797148,0.010539618777558551,-130.9840387687927,-81.69744766586665,122.60375725998063,0
1767479184.142825,2,right_wrist,0.8608,0.5065,-0.0712,-65.45,-2.52,-40.04,0.5459365103932581,0.5988650730202917,-0.4255280918544516,0.40279001226289374,104.32279296882555,-71.27251745878661,-12.569577187422688,0
1767479184.195851,1,left_wrist,1.0663,-0.6144,-0.2045,166.46,-1.96,149.73,-0.6753787911937186,0.09449560755775423,0.7258334218673453,-0.08999951254502721,-105.47878237880529,-74.45406220032744,105.11109162928688,0
1767479184.195851,2,right_wrist,0.8784,0.7462,0.0044,-131.11,3.36,-102.13,0.5996656483747943,0.5855573396768345,-0.41700071890851115,0.3516164281423873,94.68688187891021,-65.76997452150367,-9.346505560233235,0
1767479184.275123,1,left_wrist,1.1517,-1.1126,0.0961,291.2,20.72,232.82,-0.6575317232079719,0.07354732536734014,0.6321055828849104,-0.40334272770460766,-72.60340606823922,-50.527463817004225,101.29274476899324,0
1767479184.275123,2,right_wrist,0.8711,1.2717,0.2118,-176.54,35.98,-183.82,0.6774633491766541,0.5643602402407214,-0.38222449845637246,0.27648754499535916,82.7077680629081,-56.09497153433821,-5.844731283770597,0
1767479184.3523352,1,left_wrist,1.1653,-1.2908,0.467,261.45,79.17,287.35,-0.6270243941767223,0.09330633777504689,0.5437409792182386,-0.5499818942084497,-61.31416770861653,-35.39739585047353,103.93228155430107,0
1767479184.3523352,2,right_wrist,1.1063,1.3937,0.8896,-179.97,165.2,-274.05,0.8452327790252724,0.4810357386991861,-0.20670694007017162,0.1070439549071757,59.56506106255912,-26.898727220819694,-1.1509130487410177,0
1767479184.4230468,1,left_wrist,0.8237,-0.8701,0.832,74.2,252.0,262.71,-0.5594622654475037,0.24426499199657684,0.3402938541618104,-0.7152179248627369,-49.504466706662335,-1.7969607190744068,104.7616443539542,0
1767479184.4230468,2,right_wrist,1.0458,1.4503,1.1195,-170.52,239.12,-264.53,0.9031453159068433,0.421099523242877,-0.07054553187698652,0.04502285877576956,49.88943090848992,-9.517215339641991,1.2730325178245798,0
1767479184.474834,1,left_wrist,0.8237,-0.8701,0.832,74.2,252.0,262.71,-0.5180960771013685,0.33593410156529396,0.22714038041711906,-0.7530816568484843,-45.803491497937095,15.700600729738518,104.27950271653243,0
1767479184.474834,2,right_wrist,0.955,0.9877,1.1522,-127.89,282.52,-239.19,0.9274895474006956,0.36578920716197894,0.07720658513948175,0.0007338919291247039,43.28751080300494,8.202938861470386,3.350386113174861,0
1767479184.526131,1,left_wrist,0.5939,-0.7125,0.7071,41.02,260.96,213.85,-0.47655258468866435,0.4260774595098728,0.1246884792488743,-0.7588204106814531,-44.49950746852562,31.856343755379378,102.42214704729464,0
1767479184.526131,2,right_wrist,0.7056,0.7359,0.8696,-70.49,301.98,-197.68,0.9179191068094209,0.32645560329753154,0.22392347027364692,-0.026637039821403266,40.54841861966302,25.371065064404938,6.182002527103768,0
1767479184.5908191,1,left_wrist,0.3728,-0.507,0.5519,19.32,239.54,184.03,-0.43049376836455994,0.5047065211751978,0.03635588565807017,-0.7474119964654888,-45.058218416276645,46.314789220760815,99.99619461403594,0
1767479184.5908191,2,right_wrist,0.2025,0.3577,0.4275,-37.31,244.93,-122.29,0.8552602433334076,0.27106555738946403,0.4394873124996351,-0.04363807881045973,42.340116031362705,50.84218417841684,15.017135919511295,0
1767479184.648594,1,left_wrist,0.1078,-0.4704,0.4499,2.38,223.44,154.63,-0.3834760077601774,0.5738849583414264,-0.03773689592480635,-0.7226189402082788,-48.72491089287158,59.13100407739167,95.27882651250266,0
1767479184.648594,2,right_wrist,-0.1435,0.3967,0.2328,-63.98,183.12,-95.2,0.8230923210774731,0.23432958598883724,0.5155431757809542,-0.0427072595618854,43.6180456046125,60.30727385254836,20.232922646473515,0
1767479184.721143,1,left_wrist,-0.3182,0.4929,-0.976,-193.13,75.11,42.21,-0.24674533307512814,0.6798215503944713,0.03333749215148897,-0.6898173757176246,-79.09982090860969,67.13953596199413,83.18772335882998,0
1767479184.721143,2,right_wrist,-0.2977,0.1357,-0.5109,59.64,138.88,-52.29,0.7801126784180696,0.24754947905793684,0.571409032176404,-0.06029247330102279,54.731276999485125,67.12831612240959,29.06809449385526,0
1767479184.8013902,1,left_wrist,-1.0014,-0.4734,0.5192,13.72,-28.28,-21.56,-0.257885811691855,0.6669590334801081,0.0388400322425959,-0.6979627552260271,-74.91781414028706,65.64287594985336,86.84774879718105,0
1767479184.8013902,2,right_wrist,-1.0063,0.3806,0.3128,-26.18,-52.71,12.6,0.7924621086009181,0.25417047108043983,0.5507502806648343,-0.06383812661834691,51.537790013707436,64.87032735140407,24.898474018652824,0
1767479184.876155,1,left_wrist,-0.9018,-0.4797,0.1093,21.28,-24.71,-19.32,-0.2821652002359464,0.6448249772129048,0.049039520886481884,-0.7086456617586884,-69.32031297288428,62.403311284019395,91.13389343757459,0
1767479184.876155,2,right_wrist,-1.0111,0.2772,0.2811,5.32,-13.51,6.86,0.7948890228553674,0.2537660355478835,0.5470212310298697,-0.06724591696836055,50.414879097335984,64.65837026944111,23.507926257377576,0
1767479184.949501,1,left_wrist,-0.9018,-0.4797,0.1093,21.28,-24.71,-19.32,-0.2939054100429698,0.6365246830105726,0.052600262452349854,-0.7111182392933736,-67.69949089240988,60.970457969648464,91.99722692215754,0
1767479184.949501,2,right_wrist,-0.7008,0.2357,0.0205,39.55,-67.27,36.96,0.8080517730681317,0.27735218533684936,0.5149880790680424,-0.0701097407507007,49.98130688598591,60.59421487941499,20.551413591031867,0
1767479185.029112,1,left_wrist,-0.772,-0.408,0.0922,-21.21,-44.8,-36.12,-0.2999767408327875,0.6173344278997173,0.09727769793868277,-0.7207282487684368,-66.79717032307784,56.25299256690182,95.97469169211494,0
1767479185.029112,2,right_wrist,-0.7008,0.2357,0.0205,39.55,-67.27,36.96,0.8167495781705629,0.2979663697120488,0.4884549188847673,-0.07448463798734295,50.171036932523585,57.381514952134644,18.317957134410026,0
1767479185.0977302,1,left_wrist,-0.4743,-0.2987,-0.0283,-77.07,-115.78,-125.51,-0.3119069338970888,0.5867692528127366,0.17026575776994843,-0.7276163001689316,-67.5658456779895,48.38908564361609,100.13297742986903,0
1767479185.0977302,2,right_wrist,-0.3636,0.2952,0.1205,63.42,-147.14,102.55,0.8514104146676754,0.3616505506391,0.3735871212341841,-0.0688610765658501,50.86162024938806,43.31109145851847,12.134715453924235,0
1767479185.173825,1,left_wrist,0.0576,-0.6495,0.3138,-37.59,-175.77,-252.28,-0.3725455212133657,0.4682291299816276,0.3380922006244578,-0.7264055205857273,-68.38184010947101,25.362193719876505,108.31424963933672,0
1767479185.173825,2,right_wrist,-0.1645,0.3616,0.1479,88.97,-175.42,151.48,0.8648051217692488,0.41505757726744996,0.27775778741243723,-0.051864442986470916,53.972125455606076,31.56504415125092,9.51618964414752,0
1767479185.225271,1,left_wrist,0.0576,-0.6495,0.3138,-37.59,-175.77,-252.28,-0.4175217754079503,0.3745996447198551,0.4283410241726373,-0.7084311118568182,-69.03499633436545,9.966519222471671,112.10971108621875,0
1767479185.225271,2,right_wrist,0.082,0.61,0.5153,70.0,-204.61,194.39,0.8749809050777069,0.45699700526898845,0.15837015438925686,-0.021932786491828733,56.12893741509737,17.28879536738693,6.396086372988316,0
1767479185.27826,1,left_wrist,0.3221,-0.9457,0.5319,-174.58,-117.53,-311.43,-0.45950046654864835,0.30402278880388894,0.5485103100044145,-0.6289403031674322,-77.58387292220002,-6.987749154071191,113.3158056180722,0
1767479185.27826,2,right_wrist,0.3123,0.9301,0.4529,90.37,-198.17,229.46,0.8640361593549135,0.5019474851016649,0.03164244738874319,0.022113187255007424,60.37271979524361,1.86135848197799,4.014896122713218,0
1767479185.3482602,1,left_wrist,0.4582,-0.9189,0.1527,-304.43,-89.88,-339.57,-0.48274014940969534,0.250771815623471,0.6830472109198229,-0.48736223929584843,-93.71061170510737,-24.521533093211872,116.6547569769538,0
1767479185.3482602,2,right_wrist,0.8276,1.3298,0.4085,164.29,-122.5,287.77,0.7440700126974769,0.6153601256351606,-0.1991141774075546,0.16746723959619278,79.10850419911503,-30.15991078935636,0.275726166840516,0
1767479185.4231,1,left_wrist,1.3005,-0.7222,-0.3528,-125.09,35.35,-264.6,-0.5622520127032221,0.148742241702638,0.7889439475828111,-0.19828229199023442,-121.05462079186435,-55.91271594211571,125.25410785666503,0
1767479185.4231,2,right_wrist,1.0414,0.8647,0.2952,256.69,-59.36,313.32,0.6363893172960712,0.6633120879625217,-0.2824592721440017,0.2743036098452242,93.28244487804996,-46.33640079814896,-2.1240714214005703,0
1767479185.4976928,1,left_wrist,1.4313,-0.7398,-0.3719,-114.31,65.8,-230.79,-0.5963616654246077,0.10052243932638989,0.7905664271480537,-0.09619109870576267,-134.81123352273167,-67.45643550517134,134.453368206225,0
1767479185.4976928,2,right_wrist,1.2283,0.8301,0.0063,64.19,-33.04,165.83,0.5152224509095485,0.6523335118096009,-0.4010029402721989,0.38497202150541066,115.4140046389942,-66.27280900137305,-18.320676294203512,0
1767479185.571903,1,left_wrist,1.1219,-0.3333,-0.2772,-7.84,46.2,-92.54,-0.6334095471261539,0.04079890705994668,0.771551861765284,-0.042842962067046936,-148.72273836207432,-76.88604590782437,148.88945559946745,0
1767479185.571903,2,right_wrist,0.9687,0.7901,-0.0717,9.03,-21.28,99.19,0.4946474576899416,0.6406237288156779,-0.4294364370689438,0.4006363403346047,123.2102500882657,-69.74375022057946,-26.386241403507626,0
1767479185.623956,1,left_wrist,1.077,-0.3518,-0.2684,-2.1,28.98,-64.54,-0.6430438084203706,0.02331361309395706,0.7649811787777699,-0.027476026141070753,-157.21780361119778,-79.28115930241758,157.55655897084208,0
1767479185.623956,2,right_wrist,0.9335,0.4099,-0.083,16.38,-4.13,94.78,0.47533429585759684,0.6261741726146413,-0.4511957036618114,0.4223572536716459,131.78049041008626,-73.31066990057408,-34.71104297134328,0
1767479185.675906,1,left_wrist,1.077,-0.3518,-0.2684,-2.1,28.98,-64.54,-0.6520683895000262,0.005818795006313734,0.7580430073513555,-0.011989830909119356,-170.21005245080073,-81.28423629056692,170.7115334771602,0
1767479185.675906,2,right_wrist,0.9316,0.4992,-0.0854,14.0,-9.38,72.38,0.45913822291978185,0.616989916445153,-0.46747167712254944,0.43587356692887297,141.28387445954934,-75.26834804568516,-43.9849512042014,0
1767479185.741238,1,left_wrist,1.0082,-0.2699,-0.1986,9.1,13.3,-32.76,-0.6558631567881651,-0.004325445082945306,0.7548094286924725,-0.009356091579301184,-176.53379151593083,-81.96559844208983,177.64513335252417,0
1767479185.741238,2,right_wrist,0.9204,0.4329,-0.121,3.99,6.86,32.83,0.44862411495682397,0.6021328478758073,-0.4809230443443181,0.4526427536222902,150.80303929742914,-77.58325814726795,-53.58086899500327,0
1767479185.792717,1,left_wrist,1.0082,-0.2699,-0.1986,9.1,13.3,-32.76,-0.6594771814820068,-0.014462986567950581,0.751555782995261,-0.0066763890287824396,176.02461294364866,-82.5070436227245,-174.30798912236344,0
1767479185.792717,2,right_wrist,0.9228,0.3567,-0.1264,2.73,2.87,19.18,0.44776438434198257,0.5993979093002392,-0.482179296618538,0.4557766211136761,152.08499915681173,-78.01128700278846,-54.86557676615567,0
1767479185.8791099,1,left_wrist,0.9804,-0.1371,-0.1449,-3.15,6.37,-1.33,-0.662620476815044,-0.006953939387879124,0.7488372333307491,-0.011337742718137502,-176.34674928980067,-83.00061192596374,177.83170702084973,0
1767479185.8791099,2,right_wrist,0.9209,0.3035,-0.143,9.8,5.32,8.33,0.4476698349439189,0.6000281072173899,-0.4786946570541904,0.4587040600846825,151.1965888879815,-78.25548815973711,-53.56683590762466,0
1767479185.9430678,1,left_wrist,0.9989,-0.0059,-0.1244,-1.33,-1.54,7.84,-0.6599230823212033,-0.005901325081212961,0.7512291456179786,-0.011021368156904951,-176.10340119569852,-82.58481272665675,177.4775299477692,0
1767479185.9430678,2,right_wrist,0.9687,0.1864,-0.1654,9.17,-3.36,-4.97,0.44928776747862187,0.6083482812040051,-0.46831127979540954,0.4568779005014296,146.41640986146862,-77.60601861671364,-47.90044546729856,0
1767479185.994467,1,left_wrist,0.9989,-0.0059,-0.1244,-1.33,-1.54,7.84,-0.6618851227405602,-0.004147215307206162,0.7495055943742157,-0.011499952246110053,-174.56804557147439,-82.87069518943757,175.8383953400496,0
1767479185.994467,2,right_wrist,0.9716,0.1537,-0.1386,1.82,-6.3,-8.12,0.45218055074014796,0.611151820274422,-0.46450468144559515,0.4541603274425487,143.77711767374393,-77.21356694984364,-45.20012691032318,0
1767479186.0558279,1,left_wrist,0.997,0.0166,-0.1137,-3.22,-5.18,10.08,-0.6614073195297565,-0.00286966588777434,0.7499540906369477,-0.01004911075984483,-174.84011399508503,-82.79690284041574,175.8889887932412,0
1767479186.0558279,2,right_wrist,0.9906,0.1547,-0.1298,4.06,-3.43,-9.66,0.45490869378928767,0.6134241819365369,-0.4597501537033023,0.45320927781788034,141.11713972782297,-76.98413639609616,-42.34459602155627,0
1767479186.128238,1,left_wrist,0.9858,0.0415,-0.0922,3.5,-7.0,6.09,-0.6602816237907925,-0.003988863125067843,0.7509341129188154,-0.010498776595191578,-175.3043591788574,-82.63057334514008,176.4807228346606,0
1767479186.128238,2,right_wrist,0.9653,0.0952,-0.1435,-2.31,-6.44,-8.75,0.45526605954389693,0.6133732171119778,-0.46011684467074376,0.4525467940526307,141.07252887286296,-76.93426311074015,-42.38269043921653,0
1767479186.197804,1,left_wrist,0.9931,0.0351,-0.0649,8.05,-6.72,3.01,-0.6603919280214426,-0.006837039167580471,0.7507884921597985,-0.012344891249382095,-175.7345217214921,-82.65669624932609,177.29204896514028,0
1767479186.197804,2,right_wrist,0.9726,0.1215,-0.0878,6.23,-5.18,-8.47,0.4592943667430804,0.6162718806295209,-0.4536448292916703,0.45106986452251224,137.4997097289123,-76.57542202424858,-38.58304322064555,0
1767479186.274295,1,left_wrist,0.976,0.0239,-0.0166,11.2,0.21,-1.05,-0.6637297625030123,-0.014932903012533121,0.7476264417051545,-0.017161422977202793,-177.1757437997576,-83.19558477229133,179.78111380090397,0
1767479186.274295,2,right_wrist,1.0043,0.1752,-0.0771,0.35,0.07,-1.26,0.4615942211775214,0.6149569426126248,-0.45166066485759276,0.45250566574181983,135.95259247252775,-76.78294991860739,-37.049086721293,0
1767479186.352704,1,left_wrist,0.9658,0.0117,-0.0688,-4.13,3.5,-4.76,-0.6674842392149368,-0.01607017286241548,0.7443270594122825,-0.013556126677393676,179.32829030593936,-83.76713965662202,-176.92398481192913,0
1767479186.352704,2,right_wrist,0.9648,0.2172,-0.1259,1.61,2.17,2.94,0.46333577887135796,0.6138162041273519,-0.4470476148461787,0.4568348209459342,133.70148087494508,-77.18505719671485,-34.45105727673886,0
1767479186.426882,1,left_wrist,0.9614,-0.1932,-0.1664,2.45,0.77,10.57,-0.6690496737193624,-0.011987542570416544,0.7426914391361106,-0.025263791343937688,-168.26890213956014,-83.93389382742849,171.29190550287535,0
1767479186.426882,2,right_wrist,0.9648,0.2172,-0.1259,1.61,2.17,2.94,0.4659832255737483,0.6137017397660509,-0.4441589438400679,0.45711337838536603,131.70263125594963,-77.16240807018744,-32.42855567991882,0
1767479186.4912589,1,left_wrist,0.9614,-0.1932,-0.1664,2.45,0.77,10.57,-0.6677345336329755,-0.006259955601594446,0.7436653727809557,-0.032453333825373465,-159.39625559985515,-83.48814648227533,162.5385996959723,0
1767479186.4912589,2,right_wrist,0.8745,0.4304,-0.1454,-12.74,6.02,-28.56,0.4847745200559887,0.618741793398357,-0.43100104426410163,0.4431595171604969,122.19814118298734,-75.07844532539907,-23.74660659861683,0
1767479186.578521,1,left_wrist,1.0228,-0.3777,-0.2342,36.05,-8.68,71.96,-0.6547533733363016,0.02523999164958747,0.7482300067160648,-0.10398471029887119,-122.66821458103087,-77.04925725992113,129.0931108581308,0
1767479186.578521,2,right_wrist,0.9179,0.5905,-0.103,-37.52,10.92,-68.11,0.5124773476117365,0.6225612015247973,-0.4144720968009603,0.42189738031215074,112.38005345444664,-71.82881350539452,-15.557700361987616,0
1767479186.644193,1,left_wrist,1.0873,-0.5158,-0.2928,168.7,-1.54,151.27,-0.6438408805759535,0.02910009927652314,0.7368820505992515,-0.20402683212244363,-104.53653007744691,-69.55290744334978,118.97744383135277,0
1767479186.644193,2,right_wrist,0.9721,0.9906,0.1113,-177.17,27.79,-192.57,0.6542235479964024,0.596828141997826,-0.35889031295147017,0.29493297787127426,86.98431847980778,-55.249060376369144,-4.274682981908678,0
1767479186.6943328,1,left_wrist,1.1878,-0.8965,-0.0288,249.06,-0.84,226.87,-0.6191791169543401,0.03467438929480993,0.7032654168537281,-0.34760992694718534,-89.09184686677281,-57.86403544943705,115.71834409761294,0
1767479186.6943328,2,right_wrist,1.0453,1.2551,0.367,-207.48,63.56,-252.91,0.74519560755011,0.5624330302310533,-0.2952670227956454,0.20290386453326428,74.9648904828599,-41.936227929135484,-2.290450191728762,0
1767479186.7452009,1,left_wrist,1.1844,-1.1043,0.164,243.32,35.14,277.13,-0.5834131530775691,0.06125744565540457,0.6422645978439709,-0.4933282928478624,-76.6390726332327,-43.548722830129236,115.47579752523681,0
1767479186.7452009,2,right_wrist,0.9628,1.4001,0.6627,-224.98,121.52,-276.99,0.8313944455807918,0.505680896871186,-0.20191184715064747,0.1109130847879288,62.91843395286363,-26.609672688936797,-1.2677336525776812,0
1767479186.797985,1,left_wrist,1.0526,-1.3113,0.7442,169.26,147.84,312.41,-0.5550713342352753,0.13648981022870552,0.5489676571103599,-0.6098367462368641,-66.32462387276125,-26.292856540337514,112.73823369483218,0
1767479186.797985,2,right_wrist,0.8974,1.2732,0.8872,-195.44,169.96,-276.5,0.8923314986449079,0.4415093031942417,-0.08830302239334406,0.031884290101368826,52.76584796012252,-10.704603150324482,-1.2287256428134201,0
1767479186.8741739,1,left_wrist,0.9043,-1.1551,0.8618,104.58,209.02,287.0,-0.4918581301274443,0.3163233052122977,0.3342292305222015,-0.7391251368148961,-54.40185028057569,7.9794711989374445,108.60971786983731,0
1767479186.8741739,2,right_wrist,0.7832,1.2722,1.0248,-152.18,216.51,-245.84,0.9224566698697917,0.38353588781977216,0.03641562746871798,-0.025452250255971347,45.10526788401324,4.974213066925695,-1.094170314006717,0
1767479186.947498,1,left_wrist,0.3953,-0.6764,0.5446,2.94,259.77,211.33,-0.4594125924721166,0.42260503404998234,0.24805273629267435,-0.7408204202715926,-55.485309874556116,23.467684737938924,103.92140088670409,0
1767479186.947498,2,right_wrist,0.4421,0.6895,0.8223,-61.18,265.86,-172.06,0.9003852780178292,0.3074683774580869,0.29590615721054103,-0.08490638442978438,38.37221301317351,35.80801671645352,2.0539956426194395,0
1767479187.0317929,1,left_wrist,-0.0278,-0.2962,0.3963,-15.05,203.07,142.66,-0.3903787653607784,0.5845438068434735,0.1085722242731875,-0.7029402745274359,-64.30484824343786,47.4790437295421,91.00258894644452,0
1767479187.0317929,2,right_wrist,0.1937,0.4587,0.4353,8.47,250.88,-136.43,0.8564951389363293,0.3014532871325468,0.4059569832822923,-0.10363841170029942,41.49476106110639,49.27806611904989,5.914291614508793,0
1767479187.082308,1,left_wrist,-0.0278,-0.2962,0.3963,-15.05,203.07,142.66,-0.352055240792032,0.6503278113079793,0.042772564303627046,-0.6717896642648873,-73.72217815336755,57.52762371012487,79.94496490055928,0
1767479187.082308,2,right_wrist,-0.0088,0.2503,0.3562,-20.93,188.02,-106.75,0.8191529503991031,0.2822262384625796,0.4862424585854301,-0.11360046498366017,43.73166138594462,59.39931633533645,9.994577012799363,0
1767479187.144871,1,left_wrist,-0.3762,0.9838,-1.1556,-242.06,96.81,30.45,-0.2713500105167107,0.7144208146803745,0.08742846558430874,-0.6390057392149027,-94.13202362487851,59.950209353666125,70.39056496788571,0
1767479187.144871,2,right_wrist,-0.4626,0.1039,-0.3977,68.11,130.27,-40.88,0.7407734951165367,0.2778572333997519,0.5979446403403669,-0.12849978158929193,63.16524198155353,73.19460339998498,29.39476042885716,0
1767479187.223892,1,left_wrist,-1.0326,-0.5768,0.3026,5.6,-8.19,-1.96,-0.18943839549073432,0.7639987726758259,0.130964348333048,-0.6027166076436152,-114.2695907361619,60.61358075214352,60.83067059033573,0
1767479187.223892,2,right_wrist,-0.5549,-0.2367,-0.7715,85.12,15.33,8.33,0.7233398520577776,0.30815591816040483,0.6002249510279013,-0.14679712766707603,71.62632733404924,73.49724190551196,33.68724266239428,0
1767479187.275399,1,left_wrist,-1.0326,-0.5768,0.3026,5.6,-8.19,-1.96,-0.1922587790394533,0.7592695453453571,0.13063556987554795,-0.6078492142600862,-112.54321320695148,60.78697180356207,62.295038468579776,0
1767479187.275399,2,right_wrist,-1.0409,0.5226,0.1649,-36.54,-53.97,13.79,0.7443861944481426,0.29916563198104057,0.5809989359130365,-0.13722009555570183,62.97032747932116,71.27641951550659,26.521859889035277,0
1767479187.326136,1,left_wrist,-0.998,-0.4519,0.0795,29.82,-30.1,-17.22,-0.20526482078199026,0.7455805431045929,0.13015945798542616,-0.6205115007718535,-107.30203091998149,60.67413803157397,66.4042606559961,0
1767479187.326136,2,right_wrist,-1.0873,0.3084,0.1488,41.16,14.98,1.4,0.7329907349022224,0.3126071991987014,0.5860433089341385,-0.146814718642817,67.65167313095326,71.97457703872873,29.245035962671995,0
1767479187.376996,1,left_wrist,-0.998,-0.4519,0.0795,29.82,-30.1,-17.22,-0.21796082853567256,0.7315639799002144,0.12933568533761838,-0.6329135020165476,-102.1410965519372,60.41836578703731,70.42642607396301,0
1767479187.376996,2,right_wrist,-0.9008,0.2616,-0.0015,1.05,-19.6,12.04,0.736193301778841,0.31583115326103456,0.5805717502794605,-0.14562468136691925,66.87583789079744,71.2288998365911,28.250160252510177,0
1767479187.4281878,1,left_wrist,-0.9565,-0.5061,0.1635,5.6,-8.33,-8.54,-0.2222607170535859,0.7260584338257754,0.13075273915756266,-0.6374504259376428,-100.25092107439121,60.172879864626,72.07011079213233,0
1767479187.4281878,2,right_wrist,-0.9243,0.387,0.1274,-13.3,-19.6,9.45,0.7441751691718597,0.31596520106781595,0.5719615091194009,-0.13866990080066494,64.88951209218956,69.86910903115134,26.776459638331637,0
1767479187.495234,1,left_wrist,-0.8735,-0.3499,0.0815,6.51,-18.97,-18.41,-0.2275169958389373,0.7173240134916244,0.13477969521571853,-0.6446058563418817,-97.4538803243055,59.7065449091023,74.75531238385453,0
1767479187.495234,2,right_wrist,-0.9223,0.2586,0.0903,12.81,-20.3,6.93,0.7513850117861411,0.32337668974629763,0.556923581091318,-0.14382004525200742,62.369581307151556,68.42611275467017,23.066309236951852,0
1767479187.55314,1,left_wrist,-0.8091,-0.3279,-0.0532,-11.55,-31.15,-29.19,-0.22686069619342458,0.7084206957023852,0.14688446485925716,-0.6519963929395568,-95.22067785628768,58.99594554879676,78.05045551031344,0
1767479187.55314,2,right_wrist,-0.7071,0.164,-0.1645,28.91,-62.79,45.57,0.7624356879338784,0.3405119351077423,0.5308022756737247,-0.1448875010260358,60.755485669746136,65.24095121561167,19.609590933775337,0
1767479187.626226,1,left_wrist,-0.508,-0.1757,-0.1937,-33.04,-138.46,-113.89,-0.23598881421804704,0.6562839130325203,0.2150714219135259,-0.6836263515508872,-85.63670638209726,52.730604386785146,92.5745455424994,0
1767479187.626226,2,right_wrist,-0.7071,0.164,-0.1645,28.91,-62.79,45.57,0.7726034066590949,0.3571572129557036,0.5041673238726688,-0.14607535997404666,59.69098559683866,62.053615327356,16.667740419403916,0
1767479187.6942651,1,left_wrist,-0.508,-0.1757,-0.1937,-33.04,-138.46,-113.89,-0.24425204598227504,0.6090430407763777,0.26983106360571774,-0.7046976015488793,-80.5750398245849,46.599507210286134,101.65581846193818,0
1767479187.6942651,2,right_wrist,-0.326,0.2328,-0.0551,70.35,-166.88,134.33,0.8164832742453698,0.4257930157402025,0.3643315476570661,-0.1389888269114867,57.94906447090597,45.504228354789944,6.8256338853517375,0
1767479187.7448041,1,left_wrist,-0.2186,-0.551,0.1386,-88.55,-163.87,-219.38,-0.26966966623837385,0.5354389192601161,0.37246566485400606,-0.7084156713097941,-79.64804281538302,33.89973429230689,109.8006865956681,0
1767479187.7448041,2,right_wrist,-0.0937,0.4407,0.1362,81.76,-195.93,199.5,0.8377603532741672,0.47342635085116147,0.247229262697041,-0.11359037136999278,59.770661153064886,31.452471734388627,2.9408343085547437,0
1767479187.799099,1,left_wrist,-0.2186,-0.551,0.1386,-88.55,-163.87,-219.38,-0.29074415325345887,0.45274183455473804,0.46858371884291405,-0.7006582383932156,-80.68367414514957,21.22053159072574,116.84682949939982,0
1767479187.799099,2,right_wrist,0.183,0.7657,0.3889,72.17,-204.26,243.04,0.8487146821917249,0.511535072308575,0.11354933127573576,-0.0715668037381433,62.11345448544325,15.423993815479735,-0.3156484998784605,0
1767479187.875154,1,left_wrist,0.3045,-0.8403,0.1889,-107.8,-96.74,-297.71,-0.3821445906037904,0.27716216099589397,0.6554327946217791,-0.5895375307125342,-90.74606853123524,-10.02891799068974,124.25619727067351,0
1767479187.875154,2,right_wrist,0.4494,0.9682,0.7037,124.67,-173.53,276.5,0.8290088308581439,0.5587502689605698,-0.02014483147000546,-0.011691067562443902,67.98420601791524,-1.1652307967909763,-2.4016554846975238,0
1767479187.9452002,1,left_wrist,0.9882,-1.2995,0.3626,-228.48,-146.79,-325.57,-0.39237504804528994,0.1781786766957418,0.7649176273520695,-0.47874335944062063,-104.99886395112647,-25.446331589805524,134.1165565858184,0
1767479187.9452002,2,right_wrist,0.8999,0.9521,0.5602,229.95,-70.7,276.85,0.725246188954644,0.6310168207846384,-0.23245271257427305,0.1476532211313885,83.55983023765091,-31.568275037668332,-5.333226330000581,0
1767479188.02327,1,left_wrist,1.5621,-0.856,-0.0415,-113.47,7.21,-302.26,-0.4940259078044299,0.009774037150818251,0.8229706875734768,-0.280289346944585,-126.98687004367873,-53.8677936606169,150.20145846399055,0
1767479188.02327,2,right_wrist,1.1234,1.2566,0.1464,135.8,-69.3,251.65,0.6580153133421192,0.6461389837546422,-0.3156889369783051,0.22329522195805906,92.7691321218881,-44.75008718788285,-9.244904335076178,0
1767479188.073964,1,left_wrist,1.3405,-0.5841,-0.2294,-32.27,31.5,-129.64,-0.5230974282042761,-0.027071721126645826,0.8173293265809173,-0.24001869600532738,-132.83625566606443,-60.23641963894533,155.37432456647244,0
1767479188.073964,2,right_wrist,1.1985,0.9755,0.0781,105.77,-44.1,198.8,0.6004807971343293,0.6474878700361734,-0.37354183598584956,0.2839872659068723,101.74370523244536,-54.722655498206365,-14.30197324671021,0
1767479188.1479528,1,left_wrist,1.3405,-0.5841,-0.2294,-32.27,31.5,-129.64,-0.5498406313363747,-0.06244791838733649,0.8085309170843286,-0.20013318999976018,-141.03564887220102,-66.08135994972612,162.91697904240968,0
1767479188.1479528,2,right_wrist,0.9448,0.7432,-0.0688,45.15,-14.77,122.71,0.5416886611181995,0.6305614710823779,-0.43169332665774013,0.3501521059790638,113.79653005000817,-65.40488731189316,-23.366594933549713,0
1767479188.221835,1,left_wrist,1.0707,-0.4773,-0.2625,29.26,20.16,-54.18,-0.5840488888502392,-0.1121505111173718,0.7846409183474946,-0.17506509516095284,-150.73486547841736,-72.90225620091915,174.43764375618863,0
1767479188.221835,2,right_wrist,0.9579,0.6281,-0.0952,29.82,-4.62,107.1,0.5185333609637608,0.6179959183220574,-0.4544908104661669,0.37768015794678683,120.73707191199458,-69.74264326862834,-29.418637297665907,0
1767479188.293378,1,left_wrist,1.0707,-0.4773,-0.2625,29.26,20.16,-54.18,-0.5928082141853704,-0.1336662899452642,0.7744339635325475,-0.17596528138780487,-154.1298034975935,-74.84516717369502,179.65023363973947,0
1767479188.293378,2,right_wrist,0.9111,0.5788,-0.0498,-13.37,-3.22,57.4,0.49589248543862363,0.5941930643695438,-0.4871897649357836,0.4045631941766966,132.8254900620418,-74.57184085343437,-41.91922470421069,0
1767479188.354861,1,left_wrist,1.0126,-0.3592,-0.2664,13.23,10.29,-31.36,-0.5965713611683288,-0.14388453939779253,0.7695527423141751,-0.17660245511539566,-156.08692547885772,-75.69797004400387,-177.507868559392,0
1767479188.354861,2,right_wrist,0.8608,0.5095,-0.0986,7.77,-2.38,36.82,0.48961286378059615,0.5897418761815931,-0.49321935843312775,0.41136167488621433,136.68590789996557,-75.50454458855494,-45.63059104199627,0
1767479188.4210792,1,left_wrist,0.9697,-0.2162,-0.1747,11.55,0.56,-3.99,-0.5969913885445456,-0.14700760058591475,0.7655901455922011,-0.18937205798570156,-152.02778521856212,-75.87830752138579,179.76238412313296,0
1767479188.4210792,2,right_wrist,0.8608,0.5095,-0.0986,7.77,-2.38,36.82,0.4832338140777068,0.585242323860568,-0.49918288293670215,0.41808247114319075,141.05346221267936,-76.3616054186109,-49.846959240149474,0
1767479188.473856,1,left_wrist,0.9858,-0.0874,-0.1127,-7.98,-0.56,10.43,-0.5991980025987441,-0.14165049370794236,0.76484870527752,-0.1894817916035013,-150.24901954002564,-75.99438462836758,177.53905278704195,0
1767479188.473856,2,right_wrist,0.9077,0.3963,-0.1039,7.07,0.98,4.48,0.4837807548796861,0.5867895138687582,-0.4961509108651618,0.4188896289828356,139.95661295607084,-76.32602767684656,-48.470783920388754,0
1767479188.527912,1,left_wrist,0.9823,-0.0303,-0.101,-8.33,0.77,15.68,-0.6014244203588991,-0.13535317811808978,0.7641897684255888,-0.18968969819929568,-148.15087138121436,-76.06153407796403,174.92765896263475,0
1767479188.527912,2,right_wrist,0.9282,0.3509,-0.1049,6.02,-0.14,-6.23,0.48637998452371733,0.5904468230400571,-0.4907391485424915,0.41711167318165826,137.3193010654889,-75.91503842417926,-45.561927189557174,0
1767479188.591757,1,left_wrist,0.9853,0.0254,-0.101,-3.78,-0.42,13.37,-0.6029213041145354,-0.13185295840236672,0.7635815712625296,-0.18985226475767436,-146.9026402400805,-76.12575278254485,173.39759561513887,0
1767479188.591757,2,right_wrist,0.978,0.2103,-0.1166,6.51,0.42,-15.75,0.4930156881782296,0.598729900195057,-0.47532478859692495,0.41536054599330013,130.81135902327782,-75.03033289224402,-38.167317376524935,0
1767479188.64886,1,left_wrist,0.9853,0.0254,-0.101,-3.78,-0.42,13.37,-0.6043725378370663,-0.12843820702393352,0.7629957583088545,-0.18993402877724944,-145.70245946258206,-76.18143466485527,171.9164243827948,0
1767479188.64886,2,right_wrist,0.9711,0.182,-0.1098,-5.53,-2.17,-17.22,0.49873904300303584,0.5994131391224795,-0.47130832622501684,0.4121064392395782,127.86733427475507,-74.61475430790485,-35.469397930798536,0
1767479188.724761,1,left_wrist,0.975,-0.0825,-0.1825,18.41,-4.55,17.01,-0.6029702079914239,-0.1317727001147622,0.7608186797274809,-0.20054381156489695,-142.76382838278155,-76.01390143219811,170.15277348744465,0
1767479188.724761,2,right_wrist,0.9555,0.2069,-0.1318,-20.72,-12.46,-21.07,0.5074047726982789,0.5995976429454715,-0.4708187946819747,0.4016873483089248,125.19392931573357,-73.63636523789128,-33.85898941041065,0
1767479188.791738,1,left_wrist,1.057,-0.4846,-0.2137,69.09,-9.66,84.35,-0.5864587458474388,-0.11953151380451658,0.761612361866451,-0.24844509831923817,-128.37900986240732,-72.30773144002654,158.91463156043477,0
1767479188.791738,2,right_wrist,0.8784,0.6388,-0.0142,-49.0,0.49,-69.37,0.5523409694124379,0.6021888777858245,-0.4585809637938993,0.3492728283526162,112.92392369730398,-68.00897660368912,-26.394986109661158,0
1767479188.844197,1,left_wrist,1.056,-0.5944,-0.2137,100.59,-6.37,153.58,-0.5590559523981545,-0.09146576620967992,0.7580088007261315,-0.323284880131441,-113.15751215436856,-65.05019242249993,148.1164923180952,0
1767479188.844197,2,right_wrist,0.8784,0.6388,-0.0142,-49.0,0.49,-69.37,0.5782109068451369,0.6042643907233421,-0.444550608246729,0.32079814528225653,106.88370032806912,-64.39327598778134,-22.626572146461942,0
1767479188.906441,1,left_wrist,1.056,-0.5944,-0.2137,100.59,-6.37,153.58,-0.5272109577965294,-0.06272238508020017,0.7494746429565481,-0.39547726603974614,-103.99799926274264,-57.126715751802585,143.4839005528,0
1767479188.906441,2,right_wrist,0.8804,1.0316,0.1835,-172.76,31.43,-184.03,0.6541014214398023,0.5883359925364674,-0.4069247137877698,0.24581368486172944,92.35785571137905,-55.243487473907116,-16.010937348874315,0
1767479188.9717782,1,left_wrist,1.0829,-1.0941,0.245,246.75,48.86,269.43,-0.4310937071321377,0.010291214413102611,0.6360899131473663,-0.6398764950903807,-76.96143718337866,-32.36144428535417,138.03842088275678,0
1767479188.9717782,2,right_wrist,0.8804,1.0316,0.1835,-172.76,31.43,-184.03,0.7215594648707793,0.5647046303364952,-0.36384732756567084,0.1675581730481582,81.99577284936623,-45.58722970093512,-13.985130310416146,0
1767479189.036818,1,left_wrist,0.9501,-1.2532,0.6671,155.68,156.31,280.35,-0.3936784117684168,0.10069008303940487,0.5523319572865812,-0.7278792648818819,-67.29600920427498,-16.75631982488278,134.38344504363002,0
1767479189.036818,2,right_wrist,0.9174,1.4215,0.6837,-180.46,131.6,-257.04,0.7989854643134644,0.531876461894017,-0.2663768687088838,0.0881647373712972,69.99681282956037,-31.29523099987011,-9.597976650875523,0
1767479189.0946949,1,left_wrist,0.8198,-0.9682,0.6515,65.59,194.74,259.21,-0.3600833887930295,0.20813907756941338,0.48113590454798383,-0.7717035174590531,-63.22317793383579,-1.4471460177484494,130.86241360507108,0
1767479189.0946949,2,right_wrist,0.7691,1.2512,0.9018,-90.86,230.58,-237.23,0.8866316890884489,0.46166734719203717,-0.014977926258310481,-0.022872913365635756,55.02028912464227,-0.31171657010549225,-3.117864218295081,0
1767479189.1782038,1,left_wrist,0.3704,-0.7471,0.7081,35.84,230.3,218.12,-0.28740349644053004,0.4174529752672545,0.3250030958076166,-0.7984392471501766,-59.884927872661414,28.67283854694485,123.657511200315,0
1767479189.1782038,2,right_wrist,0.6466,0.9101,0.9438,-110.88,235.13,-221.62,0.8996349776579221,0.41646588839745563,0.11696392529988153,-0.0594349304213576,49.606764248217054,15.067387206512834,-0.5646781516784394,0
1767479189.236898,1,left_wrist,0.1303,-0.5309,0.4587,-8.47,238.28,181.02,-0.2565798137515442,0.5200255764938849,0.2640230293010704,-0.7707347396907133,-64.6161045424071,41.768121476594224,116.04468445872942,0
1767479189.236898,2,right_wrist,0.4065,0.7867,0.8369,-77.77,257.81,-187.74,0.8880464487115266,0.37878887531384803,0.2480401878977614,-0.07980324590490785,47.022055147023146,30.066153713138398,3.058189928942676,0
1767479189.294029,1,left_wrist,-0.0576,-0.2689,0.4826,24.85,200.27,150.5,-0.23443432013896845,0.5961676705185893,0.19743543677227104,-0.7420538433806275,-69.75126493358229,52.39212152304733,107.08133722811948,0
1767479189.294029,2,right_wrist,0.0566,0.2547,0.243,-14.7,208.6,-126.35,0.8131568636622795,0.3443648301528414,0.4578594292466403,-0.10273033574689908,53.599188879632194,54.624606796433504,14.839325189775389,0
1767479189.345866,1,left_wrist,-0.0576,-0.2689,0.4826,24.85,200.27,150.5,-0.20934733619648913,0.6655361496760757,0.12893771870796425,-0.704705889712981,-80.03675834378927,62.132259803364846,93.2463930947976,0
1767479189.345866,2,right_wrist,-0.2757,0.3518,0.1171,5.04,163.31,-90.86,0.7730920300500628,0.33793206086641986,0.5257519266008989,-0.10823838037909805,61.83977054746806,62.38270445534526,23.923193046849963,0
1767479189.421643,1,left_wrist,-0.2918,1.8217,-1.1444,-203.49,87.29,16.59,-0.09949571338791198,0.7747156940177848,0.14211310964317453,-0.608046100659744,-126.36449458200929,66.042431426332,57.16615579115528,0
1767479189.421643,2,right_wrist,-0.4524,0.1049,-0.7408,52.43,126.63,-37.1,0.7301398456414593,0.3538707388899239,0.5733467682283517,-0.11377517007796521,76.58990875290398,66.60222515113196,37.11744753232967,0
1767479189.479132,1,left_wrist,-0.6939,-0.7447,0.0137,233.87,-114.1,-31.29,-0.18177415036936195,0.725807044280684,0.0967542620089865,-0.6563542530624222,-100.48156316569678,66.57744781925662,72.47851931047734,0
1767479189.479132,2,right_wrist,-0.4587,-0.9091,-0.4529,61.95,-49.56,44.87,0.7330386642788057,0.380296653572758,0.5498860794081122,-0.1251162324675792,75.83371562187189,64.33451356143301,32.829432772295604,0
1767479189.545372,1,left_wrist,-1.0536,-0.4812,0.2518,-32.48,15.47,12.81,-0.16925195682834235,0.7310642061072583,0.10067879994948647,-0.653270756194759,-103.24103135063393,67.0853037393716,71.0873013382215,0
1767479189.545372,2,right_wrist,-0.9765,0.0791,-0.02,16.59,-5.81,0.91,0.7408238668800463,0.37910304570827,0.5389958217260965,-0.13017059252157825,72.66464752024797,63.80515303420282,29.266848352471733,0
1767479189.62704,1,left_wrist,-0.9789,-0.509,0.0986,59.92,-32.62,-19.6,-0.21902009966910874,0.6955736368599655,0.0851909550317396,-0.6789329958303062,-87.56992703415244,65.11833791157719,81.30789789460208,0
1767479189.62704,2,right_wrist,-1.018,0.4138,0.0776,-15.47,-0.21,12.18,0.7418020636928764,0.3766509243776841,0.540817281306097,-0.12401793300610883,72.8187602597227,63.609012451869745,30.172509378192586,0
1767479189.68811,1,left_wrist,-0.8213,-0.2855,-0.0342,-3.01,-24.78,-22.82,-0.22079517595970813,0.6896025798518091,0.09274715329289272,-0.6834440267430213,-85.79735258649963,64.37624170406785,83.54685113484396,0
1767479189.68811,2,right_wrist,-0.9902,0.4514,0.0996,22.75,-4.48,7.14,0.7370815335822217,0.38610054603447824,0.5396209258532342,-0.12824366489326514,74.49896650213464,63.446731146510864,30.612983276266412,0
1767479189.747514,1,left_wrist,-0.7169,-0.2137,-0.0434,-7.0,-59.92,-48.44,-0.22744581152279988,0.6722059132683504,0.11245812052287234,-0.6955291396600582,-81.26903420788572,62.119072434420985,89.1196704811895,0
1767479189.747514,2,right_wrist,-0.7681,0.183,-0.0834,23.24,-42.7,22.19,0.7441802563126029,0.3966355656890932,0.5183889597179431,-0.14194668219986933,71.54375419255418,62.14732930913177,25.33985022766217,0
1767479189.827623,1,left_wrist,-0.4948,-0.3001,0.0244,-49.42,-128.1,-127.4,-0.2510799215755852,0.6130293724763144,0.19753911990839856,-0.7225871280120547,-73.9807631212631,51.881713952851406,101.42806816962798,0
1767479189.827623,2,right_wrist,-0.6442,0.1225,-0.162,45.5,-89.39,57.89,0.7566858581656023,0.418566808712089,0.4793369339095655,-0.14988142809214297,68.78875724072543,58.30813846928159,19.393251345007005,0
1767479189.89955,1,left_wrist,-0.3328,-0.4338,0.0102,-92.19,-151.55,-186.69,-0.272429670835287,0.5563463677236853,0.2945942034710475,-0.7276503616782569,-74.17881978552161,40.47670760598771,107.7990794246717,0
1767479189.89955,2,right_wrist,-0.3279,0.2313,0.1347,79.52,-151.41,152.88,0.7946784994540148,0.49012863210638563,0.32821023713780373,-0.14331101399747861,66.0587271399721,41.462131790931636,7.202635249008535,0
1767479189.971951,1,left_wrist,0.1918,-1.2473,0.6251,-151.55,-149.45,-300.72,-0.35693631478248655,0.3903005928709923,0.510289401442813,-0.67813467775154,-79.806792915445,9.501364643815483,116.52902647653963,0
1767479189.971951,2,right_wrist,-0.0712,0.6456,0.2045,46.62,-176.75,199.99,0.8171990327312416,0.5218403532780748,0.2160598137719023,-0.11483267595326684,65.74090956153162,28.22767455915422,2.459852237072913,0
1767479190.02864,1,left_wrist,0.1918,-1.2473,0.6251,-151.55,-149.45,-300.72,-0.3841820142806468,0.29568501167584976,0.6214277726632558,-0.6154689895813616,-86.95391003228134,-6.517855144836055,122.23524484118525,0
1767479190.02864,2,right_wrist,0.1576,0.4865,0.5519,42.7,-177.8,240.52,0.8304618081344679,0.544789651751788,0.0917379219330284,-0.07156517486603073,66.40041261837294,13.317420360508413,-1.1133884396151583,0
1767479190.096749,1,left_wrist,0.672,-0.2621,-0.2235,-158.55,-14.7,-281.12,-0.4327409366725805,0.23707058999851102,0.6979864202911574,-0.5189872582006533,-95.33250039816564,-20.97873081176774,123.33199228392164,0
1767479190.096749,2,right_wrist,0.5348,0.672,0.4534,189.98,-93.73,280.91,0.7348955937910548,0.660073024527938,-0.1471430113058695,0.05080357015873941,84.89678229680638,-16.459506552799546,-7.162817534279938,0
1767479190.1729221,1,left_wrist,1.2883,-0.671,-0.2821,-173.11,42.77,-245.07,-0.5425253942473267,0.13644296842003456,0.7721947819065281,-0.3012718569030988,-110.54004685380319,-49.082871727293885,124.83203189925442,0
1767479190.1729221,2,right_wrist,0.8735,1.0302,0.2172,82.81,-87.01,282.8,0.6929459629669569,0.6627101620517547,-0.2555578366938028,0.1238197303563429,90.60225147917028,-31.21753271238296,-11.269019936296242,0
1767479190.2508879,1,left_wrist,1.2883,-0.671,-0.2821,-173.11,42.77,-245.07,-0.5759365015215396,0.09654610656862524,0.7920953169681076,-0.1776541706765211,-124.85659226882555,-61.41276170170096,131.6425691884634,0
1767479190.2508879,2,right_wrist,1.2268,0.9706,0.0517,143.71,-12.18,229.46,0.5494673938285973,0.6765330209191104,-0.3953287640673921,0.29000659134961027,113.91069541366372,-55.77534245031228,-22.6071521542219,0
1767479190.324158,1,left_wrist,1.222,-0.2045,-0.2904,-60.2,80.5,-130.34,-0.6421924260752223,0.042355567348774485,0.7633853085308098,-0.05511591898448346,-140.67127556992352,-77.37240729943036,141.71155131058833,0
1767479190.324158,2,right_wrist,1.1175,1.0028,-0.0849,71.75,-13.37,154.49,0.507877733915836,0.6664798088534473,-0.4317599556731329,0.33383860241188706,123.90259826980365,-62.074331828591575,-30.319407880613426,0
1767479190.391179,1,left_wrist,1.1824,-0.3514,-0.3655,-57.19,58.73,-118.93,-0.6599709648762629,0.022459445514118347,0.7509438529389652,-0.0041507301375443735,-164.43890658502804,-82.31396703774757,162.95199436137406,0
1767479190.391179,2,right_wrist,0.9721,0.5949,-0.1762,33.11,-5.11,121.73,0.45453391821793865,0.6333382458074616,-0.487707281085194,0.39296716346720784,145.3029503556819,-70.24071984163956,-50.41243894536578,0
1767479190.4809868,1,left_wrist,1.0668,-0.2899,-0.3411,44.73,35.35,-60.13,-0.6777458198390973,-0.029696264008537143,0.7345026497116331,0.016869889186205148,141.15318615398718,-84.04862977283241,-140.11246711038459,0
1767479190.4809868,2,right_wrist,0.9765,0.5446,-0.0825,-36.82,-17.5,78.89,0.4502076722059183,0.6119868624165663,-0.5166524183168724,0.39478527171588196,153.16805572553872,-71.515338266246,-60.85102830078645,0
1767479190.532036,1,left_wrist,1.0438,-0.3255,-0.2977,44.03,14.91,-43.33,-0.6797941551125616,-0.05384911055936565,0.7313214212258875,0.012213059522971971,129.64363520351273,-83.20737011917745,-126.26350374362534,0
1767479190.532036,2,right_wrist,0.9038,0.6812,-0.0649,-8.89,-4.55,50.26,0.4457155846581349,0.6003039025964949,-0.5301263403779913,0.3999236244056021,158.5504160869942,-72.31151565530068,-67.13637554920787,0
1767479190.590828,1,left_wrist,1.0126,-0.2996,-0.2381,41.51,10.22,-18.9,-0.6805187136139971,-0.06923077407636635,0.7294521365607409,0.000980208604378976,127.64577880327857,-83.06128485664576,-122.10322532394076,0
1767479190.590828,2,right_wrist,0.894,0.427,-0.1737,1.54,1.05,10.64,0.446579551078075,0.5931004012723642,-0.5344679870776249,0.40390913502749265,160.37947355913948,-73.03482530934829,-69.45479318697117,0
1767479190.673256,1,left_wrist,0.9984,-0.1362,-0.181,3.43,-2.24,9.03,-0.6758022986261522,-0.05989621394994576,0.7345342672137325,-0.012771335672357303,144.20697855193515,-83.89561131838215,-138.30786855298524,0
1767479190.673256,2,right_wrist,0.9248,0.3567,-0.1786,0.84,0.49,-3.57,0.4502463692421968,0.5950473968063422,-0.5307953118006756,0.40181231876168044,158.08674341731452,-72.97401742147547,-67.17033039603325,0
1767479190.7264352,1,left_wrist,0.9814,-0.0473,-0.1532,3.15,-5.95,18.76,-0.6718209274301894,-0.052402298122460986,0.7385320594639663,-0.021932573087477522,158.4689374442714,-84.05469213351833,-152.43479264115828,0
1767479190.7264352,2,right_wrist,0.9711,0.2533,-0.1752,4.69,-3.57,-9.31,0.453061758316692,0.5990126174032917,-0.5257359969666702,0.39940028647474246,155.57378720964914,-72.72170282616437,-64.43700559641286,0
1767479190.78018,1,left_wrist,0.9994,-0.002,-0.1142,-6.09,-7.28,18.97,-0.6678916049272794,-0.0417961151693418,0.7425378746420069,-0.028484970537901267,172.74178878361616,-83.85316436177696,-167.03646034453243,0
1767479190.78018,2,right_wrist,0.9736,0.242,-0.1562,3.22,-5.74,-12.95,0.45627034608551503,0.6034263893098507,-0.5205340873796535,0.39590179065433895,152.85910646170572,-72.32682350546641,-61.55306078001685,0
1767479190.844105,1,left_wrist,0.9877,0.0576,-0.1147,0.28,-8.96,20.93,-0.6641292832157657,-0.038467290871547,0.7459880689728989,-0.030892776799800507,177.5293543071685,-83.33501560116774,-171.8974275085318,0
1767479190.844105,2,right_wrist,0.9584,0.2123,-0.1313,2.17,-6.93,-17.22,0.4631908999740173,0.6118604147252685,-0.5096929899822147,0.38896539567996574,147.5955414508833,-71.4696360412841,-55.973370601571816,0
1767479190.898614,1,left_wrist,0.974,0.0171,-0.1444,-2.59,-9.94,22.26,-0.6580919721421107,-0.031658826512327425,0.7514491476605721,-0.035168926429017075,-175.13235511039008,-82.42454944414104,-179.43880978819664,0
1767479190.898614,2,right_wrist,0.8916,0.3431,-0.1357,-9.03,-8.12,-25.48,0.47124802987942477,0.6172783369975068,-0.5035011516534754,0.378654643827297,143.31350196312366,-70.39334261266939,-52.081750268100144,0
1767479190.971873,1,left_wrist,1.1405,-0.1737,-0.2723,59.22,-13.3,73.5,-0.641677581108495,-0.012502418989994284,0.7611451831112485,-0.09354988855521755,-141.52352585070034,-78.28192804902739,150.17011098231424,0
1767479190.971873,2,right_wrist,0.9213,0.5534,-0.1113,-21.49,-0.21,-56.49,0.489155554141131,0.6256425980684328,-0.48915291111776366,0.3605934176882347,135.23063376520818,-68.39571184846184,-44.76822354811092,0
1767479191.0431051,1,left_wrist,1.0707,-0.4187,-0.2377,182.49,-12.74,126.35,-0.626850766085493,-0.01889832132529537,0.7548646285219794,-0.19204260755231042,-117.79719609928975,-72.4841078460358,135.1573856950692,0
1767479191.0431051,2,right_wrist,0.895,0.8096,0.0956,-154.7,16.66,-166.18,0.5776720264902658,0.6275729788649778,-0.4432475554757721,0.27564250502039794,110.5944234549594,-59.101126590466414,-27.59554816428882,0
1767479191.09324,1,left_wrist,1.039,-0.6217,-0.1962,164.92,-8.26,170.87,-0.6035169179422241,-0.005136062036605295,0.7408178122796973,-0.2948388027946768,-102.77910309067428,-63.795123108550044,127.93692050456362,0
1767479191.09324,2,right_wrist,0.916,1.1112,0.2284,-184.87,47.46,-203.84,0.6596690197313438,0.6095899178566956,-0.39215947080279506,0.19861486831007064,94.47730295763965,-49.42349910406467,-19.40133753459448,0
1767479191.148468,1,left_wrist,1.0063,-1.0463,0.1205,221.9,21.84,248.78,-0.5716472926573553,0.0219975859741108,0.6979631700930605,-0.4307933288741516,-87.73981224345107,-51.171363159849285,123.43538977189016,0
1767479191.148468,2,right_wrist,0.9179,1.1766,0.5026,-186.62,89.39,-223.86,0.7398439880480561,0.5798183100072445,-0.31784906453101003,0.12415141121329534,80.84368700294897,-37.900200533766636,-13.55052563631911,0
1767479191.226924,1,left_wrist,0.9209,-1.2151,0.3709,211.82,75.04,265.93,-0.49669293212807125,0.10658601154008854,0.5408882702205001,-0.670354706447169,-64.73829262533079,-23.22917567248935,121.77309329955136,0
1767479191.226924,2,right_wrist,0.915,1.1775,0.7432,-187.32,145.25,-236.25,0.8136643096097719,0.5360409542165936,-0.21733954902459923,0.058086204038489915,68.66536469662886,-24.57953710556245,-8.75903768656148,0
1767479191.295323,1,left_wrist,0.7584,-1.0897,0.569,203.7,129.78,255.99,-0.4590244096092988,0.15498622293731415,0.4369403856712429,-0.7578647382296695,-54.6782527453762,-9.567847878987468,122.55004704285003,0
1767479191.295323,2,right_wrist,0.609,0.9209,0.8491,-122.01,216.93,-181.51,0.8963223940753486,0.44321149016001915,0.011647613427095188,-0.00583729137728574,52.62263917782857,1.492972820730634,-0.007994200630817579,0
1767479191.345579,1,left_wrist,0.406,-0.7603,0.3797,55.72,192.43,192.15,-0.4339843660292227,0.23981129727845596,0.36790641227679066,-0.7866339577881555,-52.02590905034338,3.3225050043355377,120.60736419625248,0
1767479191.345579,2,right_wrist,0.405,0.8291,0.7218,-57.05,228.41,-146.65,0.9001058314583714,0.41719769030850395,0.12443185352168973,-0.01650130919170758,50.26341595952896,13.755096332700646,4.376378064924173,0
1767479191.3965151,1,left_wrist,0.406,-0.7603,0.3797,55.72,192.43,192.15,-0.4035495127615477,0.3211294317605239,0.2937623498904155,-0.8048151095711001,-49.6840307592748,16.248526939176465,119.17773190394448,0
1767479191.3965151,2,right_wrist,0.1713,0.6398,0.6095,-54.46,213.22,-121.03,0.893342275675667,0.38830182477826924,0.2252806132285108,-0.020246398886539358,48.915121823107306,24.722815811523475,8.788281409430583,0
1767479191.473483,1,left_wrist,-0.0503,-0.6046,0.5012,26.32,147.21,127.75,-0.35102019733737105,0.44417762906823816,0.1791099643669896,-0.8046183415514512,-47.94971284089725,36.089232618639215,116.37405186275554,0
1767479191.473483,2,right_wrist,-0.0317,0.5466,0.6022,-10.64,197.12,-107.1,0.8721292649230536,0.3732119958549534,0.3153277527062514,-0.025918329189230715,50.5316418894932,34.70555186146251,13.374392256874184,0
1767479191.53121,1,left_wrist,-0.4646,-0.6895,0.5832,-10.5,167.93,109.2,-0.3248992457982169,0.5089255808060534,0.1386289083646917,-0.7849950694409391,-51.03078054406327,45.14770340468337,112.58539847750359,0
1767479191.53121,2,right_wrist,-0.2011,0.4929,0.4607,-32.34,150.36,-92.68,0.854544235251132,0.3490958439093116,0.38334768511210005,-0.03050891809779261,51.11191681130307,42.56888937534101,17.0151601818069,0
1767479191.602914,1,left_wrist,-0.4646,-0.6895,0.5832,-10.5,167.93,109.2,-0.29645757249004057,0.5699520827711636,0.09615193846769146,-0.7602778017192336,-55.57398920023648,54.06017714475952,107.29951670218462,0
1767479191.602914,2,right_wrist,-0.6617,0.49,0.162,7.35,136.15,-71.26,0.8060149986744971,0.31633534138607705,0.4985136596253885,-0.041903518573108305,57.103117309517756,56.1121048516641,26.391984164987463,0
1767479191.678923,1,left_wrist,-0.8174,-0.5627,0.1503,95.13,-62.44,-21.07,-0.29558555279241566,0.5684752805977324,0.10467217480807751,-0.760597641431183,-56.18487050512975,53.406273211428655,107.4665683987391,0
1767479191.678923,2,right_wrist,-0.5714,0.0815,-0.5656,133.56,97.23,-34.09,0.7610233129172668,0.35750273771050733,0.5367972124198935,-0.06988606773994425,70.28737463475919,60.1117900522424,33.83263158747842,0
1767479191.74587,1,left_wrist,-0.8174,-0.5627,0.1503,95.13,-62.44,-21.07,-0.3226324616791999,0.5368404703540862,0.08766991668485757,-0.7746125417066865,-49.75005552322028,50.815587026349526,109.93502463748524,0
1767479191.74587,2,right_wrist,-1.0433,0.3284,0.3582,-7.14,-21.91,9.1,0.7766713323906612,0.35194740332446073,0.5175620304762493,-0.07102261150497269,65.4112654208058,58.64322690723338,29.21531747496299,0
1767479191.8225799,1,left_wrist,-0.914,-0.3084,-0.0312,-0.21,8.68,-2.17,-0.31794681405709774,0.5536769727985859,0.08771409001342825,-0.76462923802105,-52.61822487248497,52.27329054452711,107.56899928240573,0
1767479191.8225799,2,right_wrist,-0.9457,0.2879,0.1025,27.16,-0.56,3.85,0.771088743291329,0.3602457598869412,0.5191351275793297,-0.07838278998652919,66.98302757317987,58.98947120465333,29.430748017440845,0
1767479191.9009469,1,left_wrist,-0.7491,-0.4529,-0.0005,-8.47,-33.74,-35.49,-0.32548397345910185,0.5453463277847795,0.1041630742248488,-0.7653807025010227,-53.29754259506124,50.08420474670922,107.53407544934083,0
1767479191.9009469,2,right_wrist,-0.7984,0.3431,0.062,17.57,-33.18,24.64,0.7767568794881264,0.37286800410599596,0.50090080515092,-0.08195477460794705,66.11659818019385,57.063421137270836,26.926998425904728,0
1767479191.973221,1,left_wrist,-0.6808,-0.3216,0.0127,-9.52,-68.25,-62.58,-0.345694372193362,0.5151687772935265,0.14710002861551014,-0.7703623261278075,-53.84074758118981,43.79101108536629,108.5955018992968,0
1767479191.973221,2,right_wrist,-0.7344,0.2582,-0.0712,35.91,-61.04,46.48,0.7831324915560643,0.39295734147972766,0.4743934125464878,-0.08508183459983368,65.73368748569287,54.08546422131179,24.105826508563553,0
1767479192.032711,1,left_wrist,-0.5929,-0.367,0.0093,-28.35,-95.97,-90.09,-0.361331622305813,0.4841528171821224,0.19071535615964277,-0.7737332623465043,-54.596095479854455,37.68988147634893,109.955293465504,0
1767479192.032711,2,right_wrist,-0.5924,0.1918,-0.0024,33.6,-105.49,82.67,0.7989399960075935,0.4163773727340901,0.4258355279693257,-0.08359945797389305,63.93651085077513,48.59487516060012,19.52406390707174,0
1767479192.093948,1,left_wrist,-0.4314,-0.3367,0.1493,-48.3,-127.47,-133.28,-0.3823513293848979,0.439826440080056,0.2534470101467475,-0.7720911711525918,-56.33730092358815,29.036101945358478,111.51994473007727,0
1767479192.093948,2,right_wrist,-0.2606,0.5397,0.2152,60.9,-155.19,162.68,0.8295489655051266,0.4902241586564171,0.2625816977861016,-0.05079015738064811,64.13052272638724,29.041689110303125,11.425185554320162,0
1767479192.176826,1,left_wrist,0.3099,-1.0878,0.3919,-140.7,-112.35,-269.22,-0.46072575778666014,0.33337279027491623,0.48029051291222813,-0.6677689585648119,-71.55656114738103,0.15284130909397983,110.682552797806,0
1767479192.176826,2,right_wrist,-0.0239,0.6925,0.3831,64.4,-162.61,204.47,0.8337902394831208,0.5300669556347083,0.15346902074868254,-0.01643528999660192,66.01916002016564,15.863444063960227,8.08528454567258,0
1767479192.244971,1,left_wrist,0.3099,-1.0878,0.3919,-140.7,-112.35,-269.22,-0.4924956474007025,0.2661659215398464,0.578989117170482,-0.5927692145349259,-78.79827213938357,-14.758731204540803,112.70215702477488,0
1767479192.244971,2,right_wrist,0.303,1.1585,0.4612,301.35,-73.22,270.76,0.7096472277801814,0.6958352616864819,-0.053191951698709175,0.09687474888788393,88.47793685745388,-12.140682260018082,3.722266445240085,0
1767479192.32707,1,left_wrist,0.8428,-0.7218,0.1635,-159.88,28.49,-306.25,-0.6073756291001582,0.177490050881632,0.6921509272729225,-0.3471587833952299,-91.74022044946607,-45.85312782492076,106.61736566722114,0
1767479192.32707,2,right_wrist,0.6407,0.7574,0.1562,140.07,-0.35,280.42,0.6492047169443017,0.7245900878530965,-0.1343661904378452,0.1882768359345672,95.52881271957038,-26.571187641814365,3.188066082824271,0
1767479192.3932421,1,left_wrist,1.0848,-0.6803,-0.286,-113.12,21.0,-267.33,-0.6391808981594462,0.12735568328060928,0.7208646645700454,-0.2357592940660632,-98.12063929119923,-59.482632469486376,107.23499021515899,0
1767479192.3932421,2,right_wrist,1.2664,0.8818,-0.0376,22.19,6.37,259.7,0.5446975789477049,0.7044672842537163,-0.29461359668252257,0.3467466244312845,106.43784630459758,-54.04651657229128,-3.647042859954374,0
1767479192.477511,1,left_wrist,1.5401,-0.6178,-0.304,-79.24,40.95,-207.83,-0.6875223167750745,0.03776698844968632,0.7244559850943626,-0.03240747106196025,-117.9758552518413,-83.57103940269717,117.54089636984385,0
1767479192.477511,2,right_wrist,1.3537,1.1439,-0.2006,18.62,-14.07,191.8,0.5093744550984363,0.6837540358274856,-0.3502978086608677,0.3876977279146615,113.00843671631917,-62.50427500314313,-10.491607136850998,0
1767479192.543933,1,left_wrist,1.0863,-0.3806,-0.2347,2.52,42.42,-78.05,-0.6996823148963772,0.01574351306155208,0.7141820879734522,-0.011863609720816211,-117.8665181504599,-87.47306218142212,117.55205867630417,0
1767479192.543933,2,right_wrist,1.0038,0.5612,-0.144,-22.75,-21.7,104.3,0.47848889785877335,0.6435180122867636,-0.4297117367799775,0.4150671822270756,127.32004114557806,-70.98459503986905,-28.57514647909869,0
1767479192.624191,1,left_wrist,1.0751,-0.2933,-0.2767,-28.35,29.89,-80.15,-0.7174294204748368,-0.01977399144868849,0.6952214570514264,0.039637628014534895,68.6987442413678,-84.85891486897918,-70.30993857103523,0
1767479192.624191,2,right_wrist,0.9418,0.57,-0.0498,-19.95,-17.36,97.65,0.4657571376939817,0.6238796417198369,-0.46143130188500725,0.42535354115764074,137.28528453100395,-73.85656998132349,-40.21818812081327,0
1767479192.690912,1,left_wrist,1.0355,-0.3079,-0.2972,23.17,20.44,-58.1,-0.7202686022340488,-0.04246167852475019,0.6907279017838199,0.048011583914634406,71.6921024884829,-82.28237458857869,-72.14282581031826,0
1767479192.690912,2,right_wrist,0.9267,0.5563,-0.0883,7.21,-1.4,59.85,0.4408581848505102,0.5990998808301686,-0.494529077186101,0.44962694031502876,158.0209527058658,-77.10412778550129,-61.48218675549872,0
1767479192.744541,1,left_wrist,0.9765,-0.2572,-0.2294,9.8,4.06,-20.86,-0.7191531657717342,-0.0492460840148276,0.6913876899870811,0.04875048209017688,74.20105522179757,-81.73977021704131,-74.160792797187,0
1767479192.744541,2,right_wrist,0.8745,0.5353,-0.1298,-1.82,-4.62,34.23,0.43646338647863087,0.5937537881145232,-0.5022384881541354,0.45245182326951405,163.06180060474634,-77.34512576384266,-66.86151337220768,0
1767479192.7953541,1,left_wrist,0.9765,-0.2572,-0.2294,9.8,4.06,-20.86,-0.718043594640609,-0.056005383189040046,0.6919791908257651,0.049412475282675755,76.38012853493991,-81.19226604847172,-75.84433145584589,0
1767479192.7953541,2,right_wrist,0.8706,0.4738,-0.1547,-8.47,-2.59,11.83,0.43861058707575706,0.5917550477858624,-0.5050411570917698,0.4498668091429038,162.9136599202636,-77.27920985413411,-67.26333140430076,0
1767479192.879062,1,left_wrist,0.9823,-0.1537,-0.1308,-0.63,-2.52,7.42,-0.7139777301867583,-0.04532198069413256,0.6975942334312915,0.03929382071947132,79.28654336009065,-83.0120438250126,-78.79717968039233,0
1767479192.879062,2,right_wrist,0.8833,0.4094,-0.163,-3.36,-3.92,-4.62,0.44239847370078544,0.5946205059512205,-0.5027928927293552,0.4448700387645555,159.68451574356286,-76.88770590322068,-64.24396164683044,0
1767479192.9467258,1,left_wrist,1.0077,0.0356,-0.0888,-11.34,-2.8,18.48,-0.7114704352496265,-0.034542490250978684,0.7009825056953275,0.03521594584940189,81.4225064568897,-84.2816810097306,-81.47714354876943,0
1767479192.9467258,2,right_wrist,0.9809,0.2225,-0.1127,2.73,0.07,-18.48,0.4544636471239857,0.6038800632429172,-0.48681219099822937,0.4379561089378696,148.93489228417081,-76.26947723997128,-53.1291164181516,0
1767479193.004228,1,left_wrist,1.0077,0.0356,-0.0888,-11.34,-2.8,18.48,-0.7087577623024904,-0.024012808634340875,0.7043416486117433,0.03144298695016802,85.14570824407357,-85.49111338047199,-85.74823334879616,0
1767479193.004228,2,right_wrist,0.9721,0.1474,-0.2499,6.09,2.73,-15.61,0.45551186562936635,0.6102285963957752,-0.4814160432245933,0.4340145086718561,146.46335440506058,-75.52976211431974,-50.26226964137997,0
1767479193.076235,1,left_wrist,0.9711,0.0693,-0.1064,-9.66,-1.12,14.0,-0.7031460975161878,-0.010517277858309436,0.7104849275483288,0.02619389510655068,100.66946136707197,-86.96613987035651,-101.94018501694104,0
1767479193.076235,2,right_wrist,0.975,0.1308,-0.1552,1.26,1.26,-14.28,0.4598296367027803,0.6112934866130647,-0.4759959542095706,0.43394104439468767,143.36941411806583,-75.5314114275492,-47.047234619075084,0
1767479193.127092,1,left_wrist,0.9799,-0.0664,-0.161,-10.08,-3.08,17.08,-0.7001519365798377,-0.0003864435689376881,0.7136476543997153,0.022229299014036,119.94108160491493,-87.86587809781842,-121.71135212407083,0
1767479193.127092,2,right_wrist,0.9838,0.1527,-0.1464,-30.38,-7.28,-16.8,0.4716050048946506,0.6082578344342318,-0.4772712786472218,0.42405571896407807,139.17350102043883,-75.02473581597212,-44.35035892780021,0
1767479193.1978319,1,left_wrist,0.9872,-0.0737,-0.2172,69.93,-13.16,60.83,-0.6935635572133572,-0.001376062954781587,0.7201331985962776,-0.019387491735468824,-145.02538189472082,-87.39882916148862,146.70831497460773,0
1767479193.1978319,2,right_wrist,0.8276,0.5051,-0.0337,-84.98,8.4,-75.53,0.5354705447467625,0.6016110613038841,-0.46614648017355803,0.3661186769986234,117.610854188513,-70.00752144012623,-29.582479441040537,0
1767479193.28214,1,left_wrist,1.0448,-0.7696,-0.0673,191.59,1.82,142.17,-0.6722976907224001,-0.028746149728974348,0.7085016307572057,-0.21263798611599782,-91.22178862538647,-74.7686885652535,111.0536855348272,0
1767479193.28214,2,right_wrist,0.875,0.8745,0.0844,-102.48,23.24,-110.67,0.58612383923587,0.5955776752474252,-0.44431492565666453,0.3230020505584901,104.22931085487042,-64.90323667415159,-20.79879988098813,0
1767479193.344942,1,left_wrist,1.0307,-0.8906,0.0,134.68,15.89,178.43,-0.6545617887501487,-0.00812659888041482,0.6900943026816926,-0.3086303233726567,-83.4881762591196,-65.28996160776877,109.99886980461181,0
1767479193.344942,2,right_wrist,0.8013,0.9604,0.2967,-104.16,66.5,-167.51,0.7133115866642055,0.5645088016489646,-0.3611815455486349,0.20509579309811052,81.19852058301899,-48.31624148772284,-9.974335297783021,0
1767479193.426244,1,left_wrist,0.8594,-0.7867,0.1493,120.54,52.64,186.27,-0.6194624255761365,0.05597514163051277,0.6143309999742906,-0.48552086390737287,-70.2614746354523,-44.97156308720376,108.65264393058919,0
1767479193.426244,2,right_wrist,0.8057,1.1658,0.6212,-161.42,106.05,-184.73,0.7831686405674586,0.5289773676654879,-0.2923164885201014,0.1462220758595894,70.06727110857526,-37.775023650497744,-5.825311768466518,0
1767479193.4954839,1,left_wrist,0.9184,-1.1009,0.3675,135.59,63.07,197.54,-0.5924662947193957,0.08893412888100423,0.5594682585512747,-0.572773670846741,-64.36159118573279,-34.128714528030805,109.92868827528503,0
1767479193.4954839,2,right_wrist,0.7842,1.1927,0.873,-154.07,139.86,-193.97,0.8901360594813973,0.43532337041604174,-0.1314131986469204,0.02969730630769781,52.605273345014645,-15.05861743574887,-3.6541527713845086,0
