timestamp,node_id,node_name,ax,ay,az,gx,gy,gz,qw,qx,qy,qz,roll,pitch,yaw,rep_number
1767651571.287592,1,left_wrist,-0.2826,0.1947,-0.9955,26.81,-113.05,-87.15,-0.09469951421155165,-0.1268018014373613,0.9804757758876694,0.11670714655842201,165.1664565752961,-8.980819013137745,-164.0906057227287,1
1767651571.287592,2,right_wrist,1.3205,0.2952,-0.1937,118.65,-289.52,114.45,-0.6561401969143508,-0.06904908215288387,0.7475405679414868,-0.07678128371393989,-169.23319917257896,-82.56229274997811,-178.90427975943325,1
1767651571.3668962,1,left_wrist,-0.1103,0.6466,-0.9252,-134.33,-170.52,-76.58,-0.02303625177649581,-0.14514068952020723,0.9707663877084795,0.18977916599331668,157.96520358391092,0.5938080559950194,-163.10883730041814,1
1767651571.3668962,2,right_wrist,1.3205,0.2952,-0.1937,118.65,-289.52,114.45,-0.4318192552038415,-0.0832772103114488,0.8777002314858172,-0.19036633296800418,-154.69186515227815,-52.159546535366985,178.29779050446774,1
1767651571.41902,1,left_wrist,-0.4568,0.7974,-0.8638,-63.21,-44.87,-82.11,0.00127834082439743,-0.17587666458049792,0.9588053739948563,0.22306505665244708,154.61440367432692,4.641175479901161,-160.25708529991024,1
1767651571.41902,2,right_wrist,1.3205,0.2952,-0.1937,118.65,-289.52,114.45,-0.3062277256541545,-0.0862581203018419,0.9163791299561233,-0.24296791332094714,-150.52441018424136,-37.096359178735945,-179.33313847363866,1
1767651571.470874,1,left_wrist,-0.6891,1.1429,-0.9072,8.12,-35.28,-6.44,0.01928343985194683,-0.17540934960968205,0.9581613587176953,0.22535864677718628,154.66026149568506,6.662075302949823,-160.7509115987751,1
1767651571.470874,2,right_wrist,1.3205,0.2952,-0.1937,118.65,-289.52,114.45,-0.1743110287527222,-0.08721177500911836,0.9366990545031347,-0.29086878974523844,-146.25016335089842,-22.165815687521583,-176.1626034443577,1
1767651571.533865,1,left_wrist,-0.3645,0.9355,-1.016,130.2,106.19,122.15,-0.008614643458363606,-0.1314347822962116,0.9765793753581403,0.17012762722714173,160.44685696074765,1.5985080277961627,-164.94505298659553,1
1767651571.533865,2,right_wrist,1.3205,0.2952,-0.1937,118.65,-289.52,114.45,-0.038660303187839244,-0.08627618879395033,0.9381761803669213,-0.3329973795643876,-141.43222141068264,-7.4695831126756405,-172.10823881044251,1
1767651571.616905,1,left_wrist,-0.3645,0.9355,-1.016,130.2,106.19,122.15,-0.053802770522544195,-0.08751501187695916,0.9884857719805101,0.11109573876782577,166.70761313950786,-4.986525250086254,-169.29968938429622,1
1767651571.616905,2,right_wrist,1.3205,0.2952,-0.1937,118.65,-289.52,114.45,0.23298563290560306,-0.07911227073409306,0.8844676434678247,-0.3964541980321864,-128.01759528024343,20.451093136481877,-159.72528341561105,1
1767651571.668983,1,left_wrist,-0.2811,0.7286,-0.9994,2.52,91.21,54.95,-0.09346103818155771,-0.06859717720259917,0.9872965119935172,0.10865108847726973,166.66124685557028,-9.76695821642635,-170.90617714833672,1
1767651571.668983,2,right_wrist,1.3205,0.2952,-0.1937,118.65,-289.52,114.45,0.3635053148208785,-0.0731002692908564,0.830132832046967,-0.4164129175280955,-117.58263612663112,32.863236436786735,-149.6750855638148,1
1767651571.735144,1,left_wrist,0.1864,0.3138,-0.4514,80.15,215.18,62.44,-0.25658375272282075,-0.03731133921079376,0.9645494872221961,0.049162267079235177,172.48014183039194,-29.42651223780954,-173.59220202474717,1
1767651571.735144,2,right_wrist,1.3205,0.2952,-0.1937,118.65,-289.52,114.45,0.48692029958318056,-0.06565364723810528,0.7586334531968738,-0.42787089659001876,-102.6204044839322,43.04758200826,-135.0501327882831,1
1767651571.81734,1,left_wrist,0.5129,0.1313,-0.2128,62.09,217.35,48.51,-0.3496578794303217,-0.02831904956782623,0.9363361973968277,0.01455761753564942,176.43313869138257,-40.8416067705597,-175.2069403824011,1
1767651571.81734,2,right_wrist,1.3205,0.2952,-0.1937,118.65,-289.52,114.45,0.7024386960147887,-0.04717987407808591,0.569499220219186,-0.4242930308086127,-57.73892647958744,49.467759216511226,-90.76774582058083,1
1767651572.5680242,1,left_wrist,-0.1986,0.6437,-0.8369,-53.62,-186.9,-102.55,-0.15835547077444878,-0.14401338398765387,0.9621159606946952,0.16886849405602852,157.45963549019328,-14.837234320377798,-160.00117175638806,2
1767651572.5680242,2,right_wrist,1.3205,0.2952,-0.1937,118.65,-289.52,114.45,0.12620392296257793,0.08308541773545397,-0.940231369561029,0.30517921764427597,-144.73382181136165,-16.740270689808565,-175.25536830407498,2
1767651572.619936,1,left_wrist,-0.1986,0.6437,-0.8369,-53.62,-186.9,-102.55,-0.07194635411058421,-0.1698198503697182,0.9596664748256298,0.2121914174662809,154.36441754274037,-3.7854423835192037,-159.06840743733986,2
1767651572.619936,2,right_wrist,1.3205,0.2952,-0.1937,118.65,-289.52,114.45,-0.009959952805554036,0.08131395315389056,-0.9348088192417585,0.34557388765707864,-139.59633435690463,-2.153605369600285,-170.8498587502556,2
1767651572.683799,1,left_wrist,-0.5783,0.7413,-0.6398,-71.75,-55.16,-106.96,0.016781188331268248,-0.2504902284767919,0.9176881037667887,0.30793113087304236,145.49006886429376,10.665054552328238,-152.78643294418154,2
1767651572.683799,2,right_wrist,1.3205,0.2952,-0.1937,118.65,-289.52,114.45,-0.1461793589972137,0.07786453161135609,-0.9104468055053588,0.3790188967125456,-133.22042784430587,11.955551205908748,-165.03712734566182,2
1767651572.7370298,1,left_wrist,-1.3732,1.2678,-0.8037,18.34,-26.6,18.83,0.029489002279203504,-0.23973040742345766,0.9209710091837634,0.3057321225259142,145.91455710253356,11.58980435766044,-154.38300155192078,2
1767651572.7370298,2,right_wrist,1.3205,0.2952,-0.1937,118.65,-289.52,114.45,-0.2797110991006383,0.07284307602053226,-0.8675228625747972,0.4047958377081088,-124.76585548174798,25.235409138421165,-157.04151193276013,2
1767651572.8185441,1,left_wrist,-1.3732,1.2678,-0.8037,18.34,-26.6,18.83,0.04215601282372112,-0.22883582058806853,0.9239885513227055,0.30348343418242724,146.3078525430522,12.521098441267043,-155.98502097488344,2
1767651572.8185441,2,right_wrist,1.3205,0.2952,-0.1937,118.65,-289.52,114.45,-0.5279708326342132,0.05862432835686573,-0.7292721600708101,0.4312448313405004,-95.83044960547244,46.01370844302996,-128.84789132926366,2
1767651572.8718069,1,left_wrist,-0.6217,0.9028,-0.6476,196.0,146.79,166.32,-0.01759032939453465,-0.17628081382295033,0.9606901567071356,0.2137523749475757,155.33816335501155,2.3820805498894,-159.72527580507594,2
1767651572.8718069,2,right_wrist,1.3205,0.2952,-0.1937,118.65,-289.52,114.45,-0.6375964175043446,0.04976316746461588,-0.6363966176784268,0.4312699625025749,-73.18636776879475,50.22884546270872,-106.52781689147022,2
1767651572.933826,1,left_wrist,-0.6217,0.9028,-0.6476,196.0,146.79,166.32,-0.13545914427378727,-0.06375009803063107,0.9884056708519471,0.025317485290023242,175.9971557656371,-15.34016722728723,-172.080014289267,2
1767651572.933826,2,right_wrist,1.3205,0.2952,-0.1937,118.65,-289.52,114.45,-0.7344133571415131,0.03999999603909019,-0.5297838303475342,0.42233412633991646,-49.29875771206051,48.10535121154766,-82.95278765828184,2
1767651572.984853,1,left_wrist,-0.6217,0.9028,-0.6476,196.0,146.79,166.32,-0.1918156966365023,-0.005378004851715111,0.9788898839693244,-0.07037336605699028,-171.57710997348235,-22.104054452989246,178.98151943481264,2
1767651572.984853,2,right_wrist,1.3205,0.2952,-0.1937,118.65,-289.52,114.45,-0.8162994211068348,0.02955613409652866,-0.4112868699264527,0.4045056250091159,-29.99824207308767,40.357528742469256,-63.96739600602178,2
1767651573.07022,1,left_wrist,-0.6217,0.9028,-0.6476,196.0,146.79,166.32,-0.245261293872123,0.05323807851731909,0.9538228926409195,-0.16502876778933095,-157.55266859602096,-26.76293612586466,168.2052540633175,2
1767651573.07022,2,right_wrist,1.3205,0.2952,-0.1937,118.65,-289.52,114.45,-0.927628177835425,0.007456263145801737,-0.1474419842060385,0.3430907010092461,-6.856708216722832,15.570645708363598,-41.53319626390584,2
1767651573.967398,1,left_wrist,-0.6217,0.9028,-0.6476,196.0,146.79,166.32,-0.12612846849641163,0.3064242390726289,-0.853503940569484,-0.40215273040957067,136.62394595312279,27.500798732340254,-151.61894307307048,3
1767651573.967398,2,right_wrist,1.3205,0.2952,-0.1937,118.65,-289.52,114.45,0.6728656152808127,-0.042507258663793575,0.5996985034142059,-0.4310530149951677,-64.23825722884243,50.38867549622146,-98.1957481796812,3
1767651574.033878,1,left_wrist,-0.6217,0.9028,-0.6476,196.0,146.79,166.32,-0.00980882831251132,0.2031973858718983,-0.9514805557719797,-0.23086654424105557,154.015717080763,6.458802545530147,-157.38179455886308,3
1767651574.033878,2,right_wrist,1.3205,0.2952,-0.1937,118.65,-289.52,114.45,0.7644810259717216,-0.032805545162638027,0.4884423670128437,-0.41942414241754916,-41.45150047930389,45.995972465759905,-75.74914958402968,3
1767651574.086761,1,left_wrist,-0.6217,0.9028,-0.6476,196.0,146.79,166.32,0.04842594486227911,0.14700065286051636,-0.9781703683144363,-0.1386667461014991,163.38534845141766,-3.0937244673344866,-162.4551148452769,3
1767651574.086761,2,right_wrist,1.3205,0.2952,-0.1937,118.65,-289.52,114.45,0.8404716524287102,-0.02257898998586675,0.3660183469008203,-0.3989087118714782,-24.292962920426017,36.67263748403852,-58.94057001251754,3
1767651574.167255,1,left_wrist,-0.6217,0.9028,-0.6476,196.0,146.79,166.32,0.10595457375343079,0.08848942682554377,-0.9894404217089011,-0.04416901096161857,173.77759852965124,-11.64542586161639,-169.14367480629727,3
1767651574.167255,2,right_wrist,1.3205,0.2952,-0.1937,118.65,-289.52,114.45,0.9381635608917607,-0.001308323787301008,0.09710846038404344,-0.3322910895970576,-3.906058053278419,10.447689615521305,-39.36484711003268,3
1767651574.222103,1,left_wrist,-0.6217,0.9028,-0.6476,196.0,146.79,166.32,0.16191340765830123,0.028500824867844943,-0.9850680428170284,0.05111460087840132,-174.45565808087517,-18.778174257968086,-177.60293578874376,3
1767651574.222103,2,right_wrist,1.3205,0.2952,-0.1937,118.65,-289.52,114.45,0.9568379186788705,0.009423731515246777,-0.043035773181626144,-0.28726349035210796,2.457958684285169,-4.4128322575789145,-33.51650796494446,3
1767651574.283852,1,left_wrist,-0.6217,0.9028,-0.6476,196.0,146.79,166.32,0.265647485450337,-0.09231680355220832,-0.9296597168499147,0.23799544559161673,-146.60331373224375,-26.742501803235488,160.50067695154686,3
1767651574.283852,2,right_wrist,1.3205,0.2952,-0.1937,118.65,-289.52,114.45,0.9543973279944067,0.01994992045582801,-0.1821263407453681,-0.23570688788757377,7.567805756737328,-19.76950615408808,-29.065976838957177,3
1767651574.3367722,1,left_wrist,-0.6217,0.9028,-0.6476,196.0,146.79,166.32,0.3117569767954307,-0.15131378733932693,-0.879337017865528,0.3266161878899487,-131.52844279331075,-26.707493518725617,148.273541716124,3
1767651574.3367722,2,right_wrist,1.3205,0.2952,-0.1937,118.65,-289.52,114.45,0.9309617350491306,0.030025389729557407,-0.31686354974568703,-0.17890280793901178,11.98553793979867,-35.396573737774645,-25.593076835225936,3
1767651574.386896,1,left_wrist,-0.6217,0.9028,-0.6476,196.0,146.79,166.32,0.3529961885543944,-0.20816284263171447,-0.814784213759066,0.4101080428650178,-116.94497109286046,-23.859355551180645,136.56731460144837,3
1767651574.386896,2,right_wrist,1.3205,0.2952,-0.1937,118.65,-289.52,114.45,0.8871703581730742,0.039432257587738474,-0.44428759248798094,-0.11824714711918906,16.20960046276993,-51.16838189278491,-22.984875962021203,3
1767651574.468283,1,left_wrist,-0.6217,0.9028,-0.6476,196.0,146.79,166.32,0.3886664160565669,-0.26199403706633434,-0.7368972145084408,0.4871139875030574,-103.62157370095309,-18.516182031238266,126.24214585493311,3
1767651574.468283,2,right_wrist,1.3205,0.2952,-0.1937,118.65,-289.52,114.45,0.743247229453311,0.05573544661429142,-0.6666369910519436,0.008499297729437695,34.265658223117214,-82.70233388345156,-29.04844058543016,3
1767651575.832577,1,left_wrist,-0.6217,0.9028,-0.6476,196.0,146.79,166.32,0.41738962670397095,-0.4918225986575712,0.1997597116911133,0.7375584644994027,-14.872262736472631,63.15749702483394,111.81443180379911,4
1767651575.832577,2,right_wrist,1.3205,0.2952,-0.1937,118.65,-289.52,114.45,0.2964351621855624,0.0756678962123445,-0.9213112725611678,0.23997104649215162,-150.73703338792308,-35.628991445020866,179.79949824743636,4
1767651576.804702,1,left_wrist,-0.6217,0.9028,-0.6476,196.0,146.79,166.32,0.41738962670397095,-0.4918225986575712,0.1997597116911133,0.7375584644994027,-14.872262736472631,63.15749702483394,111.81443180379911,5
1767651576.804702,2,right_wrist,-0.059,-0.6222,-0.8696,16.73,-118.51,68.67,-0.09268713390606628,0.020406901720904445,-0.9517150057150819,0.29194383272673186,-145.4444262163109,9.468662181137303,-174.59207494139815,5
1767651578.583943,1,left_wrist,-0.6217,0.9028,-0.6476,196.0,146.79,166.32,0.41738962670397095,-0.4918225986575712,0.1997597116911133,0.7375584644994027,-14.872262736472631,63.15749702483394,111.81443180379911,6
1767651578.583943,2,right_wrist,-0.059,-0.6222,-0.8696,16.73,-118.51,68.67,-0.09268713390606628,0.020406901720904445,-0.9517150057150819,0.29194383272673186,-145.4444262163109,9.468662181137303,-174.59207494139815,6
1767651578.642581,1,left_wrist,0.1352,0.468,-0.7613,34.23,196.07,91.98,0.32635942015429126,-0.5830590812064091,0.33432302770919387,0.664650095796766,33.47659107425173,83.3536630153543,157.67268571077682,6
1767651578.642581,2,right_wrist,-0.1371,-0.7662,-1.0224,-6.16,143.85,-65.73,0.04359043112682611,0.038498162885895346,-0.9532351485575506,0.2965813839792591,-145.58047222377323,-6.0813001132762885,-177.25973465833724,6
1767651578.702425,1,left_wrist,0.5197,0.3289,-0.1752,91.21,223.09,86.1,0.28874541312974783,-0.6181621489629355,0.413578449384598,0.6028718853875077,126.89011813631532,79.79589591455847,-112.92385607201149,6
1767651578.702425,2,right_wrist,0.4543,0.0229,-0.4802,-54.67,193.55,-96.67,0.21663053438700888,0.0697670090992027,-0.9446360179193227,0.23636110014567924,-152.34248384387712,-26.247811008492654,-178.1213317956214,6
1767651578.752574,1,left_wrist,0.4011,0.0483,-0.2054,32.27,207.27,60.48,0.241730182286293,-0.6554632894781734,0.46358273699407426,0.5450004046598228,146.90490306456755,69.81433674136181,-93.96644232138682,6
1767651578.752574,2,right_wrist,0.1932,0.0005,-0.1688,-5.46,204.47,-82.6,0.3115203312505445,0.08322221423995352,-0.9185274803745088,0.2287715324759769,-152.2835270028257,-37.61537271977423,-179.25135947734594,6
1767651579.642453,1,left_wrist,-0.3836,0.8081,-0.5939,-91.35,-125.23,-120.82,0.5301357556101921,-0.5690508425135019,0.19334875530382234,0.5981249686150438,-53.272926560262995,62.34139232545485,63.14091392385574,7
1767651579.642453,2,right_wrist,0.0488,-0.6271,-0.8237,-1.47,-126.91,92.68,-0.023300691227219623,0.05064054515680054,-0.9459734023736293,0.3194165540109276,-142.64722801985536,0.67225600282323,-173.64421042390077,7
1767651579.702091,1,left_wrist,-0.7139,1.2117,-0.8413,-134.61,-103.95,-126.77,0.5335897442369216,-0.5823440195569268,0.1059630314300063,0.604093754066057,-58.76134189275496,54.752063807985095,64.58462211895073,7
1767651579.702091,2,right_wrist,-0.5807,-0.975,-1.1351,48.02,-123.9,63.0,-0.17245393677347712,0.028477226273748334,-0.926576858112376,0.3330225417080368,-138.90035339542115,17.494637534347085,-169.87683467769088,7
1767651579.7883232,1,left_wrist,-0.7139,1.2117,-0.8413,-134.61,-103.95,-126.77,0.5276195930556021,-0.5950922076338166,-0.07164163587857769,0.601955401542334,-68.49105540303742,39.854400852191866,69.80338743607147,7
1767651579.7883232,2,right_wrist,-0.4099,-0.9296,-1.4084,25.06,-69.86,21.21,-0.20162519935673992,0.028414026734042724,-0.9191469729372412,0.33720730153633705,-137.59451168749183,20.57808245787153,-168.40222684837218,7
1767651579.838911,1,left_wrist,-0.7139,1.2117,-0.8413,-134.61,-103.95,-126.77,0.5181556459270588,-0.5942860177951811,-0.16065806966074733,0.593740549651058,-73.29859832003962,32.62998801369892,73.20651704627447,7
1767651579.838911,2,right_wrist,-0.712,-1.1073,-1.4503,-16.66,-14.42,-14.42,-0.20505113092157862,0.03692414957602182,-0.921564990647908,0.327579927495551,-138.57040821190722,20.716527501587276,-167.50299858908613,7
1767651579.904788,1,left_wrist,-0.9984,1.3532,-0.7847,68.46,15.82,90.02,0.5107060018570896,-0.5902230350363084,-0.11323235432517142,0.6148126401706898,-69.48830021414682,37.59646488909075,74.00205336785544,7
1767651579.904788,2,right_wrist,-0.6603,-1.2493,-1.1761,-45.5,55.51,-76.65,-0.139779759583407,0.09043399472898193,-0.9356301623195826,0.3112547361342392,-141.61498153657752,11.84520552013546,-164.82221928335068,7
1767651579.9917738,1,left_wrist,-0.1815,0.8886,-0.7481,151.69,195.16,164.85,0.4975804196232952,-0.6269157404705021,0.14470924834056978,0.5817642252687378,-69.30557036557327,60.861269989360295,54.722288182867814,7
1767651579.9917738,2,right_wrist,-0.0146,-0.7354,-0.9906,14.0,184.59,-73.15,-0.05018320783547413,0.09558735048220943,-0.9387057378342791,0.32737782734347565,-141.35236708955355,1.8124630370660186,-167.7357447884188,7
1767651580.053546,1,left_wrist,-0.1147,0.7681,-0.771,54.25,100.45,70.63,0.48431586460809295,-0.6367409881920593,0.20226807777612224,0.564877581390754,-74.55144420735645,66.24619015289166,45.96276450002619,7
1767651580.053546,2,right_wrist,-0.1713,-0.6495,-0.9467,-30.73,159.67,-90.65,0.08311674440087714,0.11447367080152233,-0.9307951516404697,0.33705751909135484,-141.28226126819644,-13.408825914907283,-170.70750243520115,7
1767651580.105432,1,left_wrist,-0.3997,0.6661,-0.7696,34.79,160.23,84.63,0.4540388454920713,-0.6607586180215795,0.27054952250192094,0.5329631613614791,-93.59846579673263,71.80512575393976,23.886085425645533,7
1767651580.105432,2,right_wrist,0.4412,-0.286,-0.446,-55.16,156.24,-96.25,0.16719275441670883,0.12963817990141477,-0.9244908614482561,0.3171075090266134,-143.8402663564746,-23.03882703799825,-171.64839274971723,7
1767651580.156469,1,left_wrist,0.2767,0.3357,-0.4616,71.89,208.11,95.48,0.42315554555787094,-0.6813713211770303,0.35609302598883136,0.4794478738958039,-127.75457283256385,72.69397817055973,-15.500860179751779,7
1767651580.156469,2,right_wrist,0.4412,-0.286,-0.446,-55.16,156.24,-96.25,0.2500261097687589,0.1437367598799771,-0.9109877702368572,0.29483549781528273,-146.42917743014291,-32.70398550293512,-172.18277020907033,7
1767651581.055627,1,left_wrist,-0.2181,0.6149,-0.8555,-57.82,-185.43,-141.75,0.6288397837839137,-0.5404999316130519,-0.018387348892679,0.5586432275232429,-59.34695743313107,35.50456792823954,62.55838682148232,8
1767651581.055627,2,right_wrist,0.2245,-0.5187,-1.0741,5.67,-154.21,93.03,-0.11325570128634177,0.10476751783822305,-0.9331978736083574,0.3245591502715598,-140.50148736549463,8.243100382399522,-164.2248612754163,8
1767651581.140681,1,left_wrist,-0.4704,1.0102,-0.7427,-48.86,-76.02,-106.19,0.6481403460972666,-0.5281123340671449,-0.12811881975640552,0.5334763559814939,-63.506063606150136,23.415299080540542,64.2978891687206,8
1767651581.140681,2,right_wrist,-0.1698,-1.0155,-0.9697,8.54,-130.55,80.43,-0.17788917034169927,0.09018588560401593,-0.9257727844292702,0.3211957358419271,-139.36449494412483,15.749691121480957,-163.0085495347913,8
1767651581.203597,1,left_wrist,-0.4704,1.0102,-0.7427,-48.86,-76.02,-106.19,0.6545905173701247,-0.5191690666249477,-0.18306767239460808,0.5181321859843425,-65.62594805974774,17.357187484689394,65.4841029612368,8
1767651581.203597,2,right_wrist,-0.7198,-0.9897,-1.2327,-8.4,-69.93,11.97,-0.26156176121705593,0.07890766811894383,-0.9113313403218285,0.30795164089233606,-138.1815805439894,25.349537662856548,-160.28103969672142,8
1767651581.2556732,1,left_wrist,-0.4704,1.0102,-0.7427,-48.86,-76.02,-106.19,0.6588296219655864,-0.5083477663424276,-0.23787170057909957,0.5009422439153584,-67.83297594366854,11.295661846673124,66.88662842901891,8
1767651581.2556732,2,right_wrist,-0.6515,-1.2073,-1.0931,-20.09,18.48,-45.43,-0.2461295713031381,0.09822222914001567,-0.9131878059720617,0.30961372523974456,-138.22474029243486,22.873829390576667,-158.89246016151887,8
1767651581.342195,1,left_wrist,-0.4851,0.9326,-0.7671,129.43,142.87,140.07,0.674759205057834,-0.5087090335509462,-0.17080590512941915,0.5066956454779356,-63.74086252607862,16.55978051968859,63.46800732025303,8
1767651581.342195,2,right_wrist,-0.5412,-0.8999,-1.178,-40.11,118.93,-73.92,-0.1838911930945094,0.11607780319276226,-0.927698589622763,0.3034555972793325,-141.00723078840716,15.708441764822398,-160.14373041013363,8
1767651581.406435,1,left_wrist,-0.263,0.672,-0.7979,104.16,197.05,121.24,0.6795914613118871,-0.5300958257058459,-0.0608185198177279,0.5034431138950972,-61.15292074102814,26.813169638361526,57.02972183781275,8
1767651581.406435,2,right_wrist,-0.0888,-0.5754,-0.9897,60.34,117.95,-75.46,-0.037770032694721505,0.140978973352486,-0.9283213582708222,0.341932463332943,-139.78038872060225,-1.5061998670229833,-163.28109267977877,8
1767651581.48737,1,left_wrist,-0.3333,0.6173,-0.8452,34.37,184.17,88.62,0.655350935472877,-0.5724764148648539,0.13604688034388096,0.47357908753132916,-63.67292504371269,46.09929808695611,42.10810489160583,8
1767651581.48737,2,right_wrist,-0.2377,-0.8613,-1.0219,-7.14,126.49,-77.84,0.02093630637108875,0.1518198111768356,-0.9253357853366795,0.3467940316457542,-140.04829157938622,-8.28207588392186,-164.38002869977794,8
1767651581.5388858,1,left_wrist,0.3128,0.1986,-0.3533,56.28,226.45,100.59,0.6302723614938742,-0.5953976945453543,0.23652109792192946,0.4385386025252703,-71.74634695092719,55.12036321756838,28.304538570130916,8
1767651581.5388858,2,right_wrist,0.101,-0.3928,-0.9252,-60.06,152.74,-97.16,0.10069588597614355,0.1670958230675942,-0.9249179181033731,0.32629154023995915,-143.37752654975776,-17.176413036574434,-165.2412741403243,8
1767651581.5922382,1,left_wrist,0.4997,0.0932,-0.0605,34.58,245.0,81.34,0.5949255145067665,-0.6207500255120912,0.3291221240044409,0.39039936668289177,-88.48997195234875,61.19767515325176,6.664228753346716,8
1767651581.5922382,2,right_wrist,0.4099,-0.2391,-0.6627,-53.06,175.49,-106.82,0.19319866081565376,0.183685801504915,-0.9131424268570698,0.30839051875522333,-146.19459268145528,-27.783359289662265,-165.84850298806802,8
1767651582.558532,1,left_wrist,-0.4133,0.7286,-0.6934,-62.16,-129.99,-73.57,0.6196822655501186,-0.5948610567224722,-0.00776133779734155,0.5119316112463571,-68.59193870203873,36.82960295820433,53.53361124254735,9
1767651582.558532,2,right_wrist,0.1142,-0.6339,-0.9706,19.39,-126.42,69.58,-0.14103284339214467,0.1055775725062743,-0.9416518186633176,0.28680126512356247,-144.38850038724883,11.832315037465504,-163.39307334340205,9
1767651582.638703,1,left_wrist,-0.3504,1.2878,-0.9921,-96.46,-126.98,-109.97,0.6053685003176161,-0.5847538751860136,-0.17165615394887046,0.5119824695139689,-73.77368875401568,23.012815418231995,63.0729526723846,9
1767651582.638703,2,right_wrist,0.1142,-0.6339,-0.9706,19.39,-126.42,69.58,-0.19751410465717584,0.09297651040715464,-0.9335361786908368,0.2843479383594903,-143.2545077720512,18.415019663077597,-162.46126377083834,9
1767651582.691896,1,left_wrist,-0.5783,0.6832,-0.8028,-89.18,-28.98,-87.36,0.5965042304827718,-0.5971978783135685,-0.21947029517183367,0.48925472577290113,-78.3973387945681,18.81623076073914,63.325829183413795,9
1767651582.691896,2,right_wrist,-0.5539,-0.5495,-0.9155,57.82,-111.86,38.57,-0.2532852415885671,0.08431984275020443,-0.9169901634317235,0.2964216434092878,-139.8859698147784,24.48982870464384,-160.43162460974014,9
1767651582.7534232,1,left_wrist,-0.5783,0.6832,-0.8028,-89.18,-28.98,-87.36,0.5856762787777823,-0.6077043257282508,-0.2671128973547882,0.4651122972303698,-82.95410269609756,14.62065118893979,63.96925744946089,9
1767651582.7534232,2,right_wrist,-0.9287,-1.0238,-1.1932,-31.22,6.65,-45.5,-0.2683527348836725,0.09567355729273617,-0.9145758506936766,0.2870268165927089,-140.17681800870668,25.844874878614455,-158.55422249683983,9
1767651582.838953,1,left_wrist,-0.8398,1.1995,-0.7315,96.74,32.55,99.96,0.5905907422680791,-0.6020101180804673,-0.19892769025757553,0.4992135484186776,-77.8397477901482,21.474894676227972,63.003205460064834,9
1767651582.838953,2,right_wrist,-0.631,-0.8086,-1.1219,-85.96,111.65,-87.85,-0.2066165571972964,0.12629363752866066,-0.9336813142484716,0.26381569103251296,-144.9072842842336,18.614040358321834,-158.66081621138787,9
1767651582.890461,1,left_wrist,-0.5353,0.8359,-0.7271,168.28,128.31,157.08,0.6054522332527158,-0.5984510802047909,-0.08537266721312303,0.5176827267196917,-71.68462463212519,31.08020244878863,58.34760888956035,9
1767651582.890461,2,right_wrist,-0.1566,-0.7769,-1.0648,1.4,175.91,-65.87,-0.1225330248350097,0.13388898632650173,-0.9425498163470132,0.28046254806917914,-145.3570357109165,8.968142468332939,-161.02835291291328,9
1767651582.940476,1,left_wrist,-0.5353,0.8359,-0.7271,168.28,128.31,157.08,0.6121621868082393,-0.58690996360921,0.03011582656279731,0.5290436547666267,-65.7553883793137,41.13789664769871,54.40015525009896,9
1767651582.940476,2,right_wrist,-0.2728,-0.4597,-0.9882,85.75,134.61,-60.13,-0.06616718757930909,0.13639893623121183,-0.9346658907679553,0.3215849905045056,-141.71306494004202,2.0608421283175513,-162.67903661873808,9
1767651582.9909928,1,left_wrist,-0.5353,0.8359,-0.7271,168.28,128.31,157.08,0.610551789533226,-0.567339002026817,0.14585191585814986,0.5329917332543705,-59.72128694496545,51.52450151507266,51.266877375660904,9
1767651582.9909928,2,right_wrist,-0.083,-0.9457,-1.0028,11.48,121.66,-72.03,-0.008565271498942007,0.14763678498751268,-0.929257322908566,0.3385422332051135,-140.65727778423502,-4.821047140566884,-163.6693961757609,9
1767651583.054612,1,left_wrist,-0.5353,0.8359,-0.7271,168.28,128.31,157.08,0.6005912780065811,-0.5398614507791623,0.26004086656169556,0.5293566647005422,-52.93562445354671,62.11830332816931,49.40199713611634,9
1767651583.054612,2,right_wrist,0.4758,-0.2625,-0.6817,-45.71,168.77,-102.55,0.16792981614344205,0.1767167981794893,-0.920986943016227,0.3038976816049188,-146.59880163070125,-24.628309313188844,-165.7708115450471,9
1767651583.1385028,1,left_wrist,-0.5353,0.8359,-0.7271,168.28,128.31,157.08,0.5561450615494044,-0.4626097055020912,0.4766815214578525,0.49946937642873035,-18.084379674884733,82.89766990231321,67.85343814042895,9
1767651583.1385028,2,right_wrist,0.4221,-0.0346,-0.1781,-48.86,215.18,-81.48,0.27117466772954835,0.1774378991980293,-0.8996281485997033,0.29265899227091813,-147.73444967361138,-36.28273652247118,-168.512980594773,9
1767651584.1056352,1,left_wrist,-0.5353,0.8359,-0.7271,168.28,128.31,157.08,-0.5143939303404804,0.5863293246680842,0.4434109159844886,-0.44159208218551416,-94.64286689513254,3.535158038106949,77.45656619701154,10
1767651584.1056352,2,right_wrist,0.1235,-0.6471,-1.3542,-21.07,-108.08,62.65,-0.09862731485822628,0.12553068607974208,-0.9520829859929064,0.2608691001231013,-148.30182509179326,7.025358549136078,-162.98114725692477,10
1767651584.18892,1,left_wrist,-0.5353,0.8359,-0.7271,168.28,128.31,157.08,-0.5712294272892188,0.6096257970504143,0.23020956775957951,-0.4990559927317028,-80.75777788314097,20.21048013025491,65.04743375598845,10
1767651584.18892,2,right_wrist,0.1235,-0.6471,-1.3542,-21.07,-108.08,62.65,-0.14475994602298722,0.11375029431282432,-0.9527269910962542,0.24169548818264178,-149.60451886623187,12.758818536664455,-162.90358812887274,10
1767651584.242183,1,left_wrist,-0.5353,0.8359,-0.7271,168.28,128.31,157.08,-0.588514303762401,0.6095937821408216,0.11723749844869384,-0.5179784783171958,-74.71350534483807,29.572272570105778,59.92082672122864,10
1767651584.242183,2,right_wrist,-0.7403,-0.9257,-0.8438,-27.72,-85.19,28.49,-0.18495326219009212,0.11188494639007342,-0.949928151351014,0.22563367844224477,-150.46857544144666,17.511342598505507,-161.91581304038573,10
1767651584.302142,1,left_wrist,-0.5353,0.8359,-0.7271,168.28,128.31,157.08,-0.5979027709996284,0.6014938741232904,0.0019222131658557457,-0.529824217000003,-69.03329443988125,39.42543222656061,55.406009260239735,10
1767651584.302142,2,right_wrist,-0.5261,-0.6051,-0.8677,-16.24,-20.58,12.18,-0.22067887327288685,0.10852446722947673,-0.9466607124318944,0.20822288644984596,-151.5466715123746,21.877382057930454,-161.3098461039878,10
1767651584.355492,1,left_wrist,-0.5353,0.8359,-0.7271,168.28,128.31,157.08,-0.5991869364074827,0.5852297971731028,-0.1140963165138646,-0.5342874977924453,-63.49237850005497,49.64897028088734,51.50237379640982,10
1767651584.355492,2,right_wrist,-0.3489,-0.5446,-0.7535,5.46,1.05,9.03,-0.22152550113968084,0.10497633258724061,-0.9456025357711034,0.21387441708770427,-150.90296890771256,21.96540207754501,-161.56399036590733,10
1767651584.4453619,1,left_wrist,-0.5353,0.8359,-0.7271,168.28,128.31,157.08,-0.5772743082410229,0.5286381140956447,-0.341149466799109,-0.5204931879217367,-50.77624308104698,70.7655945583228,46.82507102418997,10
1767651584.4453619,2,right_wrist,-0.3743,-0.4148,-0.386,0.84,-11.9,-1.12,-0.22917584052017168,0.1062254510716385,-0.9431600706480048,0.21597145367328177,-150.36390574299438,22.731655173278853,-161.06000508446624,10
1767651584.503625,1,left_wrist,-0.5353,0.8359,-0.7271,168.28,128.31,157.08,-0.5543066008941092,0.48898229140428157,-0.4486545117940828,-0.5023441449295992,-37.45779176415137,81.362804568556,51.87368850440136,10
1767651584.503625,2,right_wrist,-0.2479,-0.5061,-0.8613,-6.51,-26.81,1.96,-0.24201890757687092,0.11382013828445782,-0.9402914956503406,0.21053201111434403,-150.40849650449692,24.029758940093014,-159.76115493775254,10
1767651584.58845,1,left_wrist,-0.5353,0.8359,-0.7271,168.28,128.31,157.08,-0.48576335831084233,0.38974979988705416,-0.6435292394779365,-0.44497097787105405,124.23884885753839,76.4242774902727,-162.820959876151,10
1767651584.58845,2,right_wrist,-0.4216,-0.5261,-0.6734,1.54,-15.82,11.34,-0.2516607899661122,0.11068529839315432,-0.9376930742183128,0.21247896384409531,-149.88474791649085,25.14588869026598,-159.66849490742715,10
1767651584.640537,1,left_wrist,-0.5353,0.8359,-0.7271,168.28,128.31,157.08,-0.4410591788900788,0.3316057677869516,-0.7280523615003511,-0.40674829366697735,133.0532663840515,65.78161225218179,-162.3976993859624,10
1767651584.640537,2,right_wrist,-0.3728,-0.547,-0.6783,6.65,-12.32,10.92,-0.2581483897710728,0.10757859621779259,-0.9351229147764422,0.21755778256459204,-149.08016906857753,25.848422218631274,-159.6118748564774,10
1767651584.703597,1,left_wrist,-0.5353,0.8359,-0.7271,168.28,128.31,157.08,-0.390142956190278,0.26884544083413636,-0.8022894006326828,-0.3631009781180161,139.19632206643965,55.21024071279228,-164.95970436399702,10
1767651584.703597,2,right_wrist,-0.5114,-0.7066,-0.9189,2.66,6.72,-14.07,-0.2539455163324084,0.11196627078742417,-0.9345431220128051,0.22272041226430736,-148.49019290905989,25.136215100842755,-159.13812095437035,10
1767651584.788982,1,left_wrist,-0.5353,0.8359,-0.7271,168.28,128.31,157.08,-0.2731340921476653,0.1331266071013821,-0.9154695268936496,-0.2638003402527414,150.0345041121252,34.77321050229588,-173.03263890241863,10
1767651584.788982,2,right_wrist,-0.4509,-0.8574,-1.1224,7.07,47.74,-50.54,-0.226861556814495,0.12872912896313565,-0.9358307656256417,0.23703042738142607,-147.3890668851609,21.320379976193028,-158.03221612557826,10
1767651584.84075,1,left_wrist,-0.5353,0.8359,-0.7271,168.28,128.31,157.08,-0.21049612068962215,0.06288952604116387,-0.9526775097067269,-0.2100996268152971,155.57321391267527,25.308752882038057,-178.01098301255112,10
1767651584.84075,2,right_wrist,-0.4714,-0.7754,-1.1239,-9.45,97.93,-55.09,-0.17761048137602717,0.14338456358932325,-0.9415993404775606,0.2475602266962491,-147.58272975292311,15.276843410140698,-158.21822838473204,10
1767651584.906178,1,left_wrist,-0.5353,0.8359,-0.7271,168.28,128.31,157.08,-0.14677789890840143,-0.007023969555479585,-0.9771518902050693,-0.15356137441550627,161.62643670016305,16.540401886256195,176.48302374479834,10
1767651584.906178,2,right_wrist,-0.3504,-0.8969,-1.0551,54.88,121.73,-52.5,-0.08255259653628626,0.14639130554729007,-0.9345107336518131,0.31375841527332304,-142.28135084611478,3.5792782905352283,-160.97094234103895,10
1767651584.956476,1,left_wrist,-0.5353,0.8359,-0.7271,168.28,128.31,157.08,-0.08189921430883403,-0.07615820702897845,-0.9892023879797023,-0.09471579494984717,168.341723613051,8.488043888187411,170.32690427520527,10
1767651584.956476,2,right_wrist,-0.1991,-0.7886,-0.9282,2.66,135.31,-67.62,-0.02239618076401779,0.15364736431141515,-0.9323879056267361,0.32641031228858164,-141.93014489114995,-3.3560315193667463,-162.442912307211,10
1767651585.0405781,1,left_wrist,-0.5353,0.8359,-0.7271,168.28,128.31,157.08,0.04963455402589157,-0.20989206350669393,-0.9761067945942711,0.026405648457294487,-175.83360395594718,-4.922752940024403,155.54980035615853,10
1767651585.0405781,2,right_wrist,0.1996,-0.59,-0.8486,-50.75,155.96,-86.45,0.06107318529551237,0.16808989295079604,-0.9321863738604028,0.31471323187092615,-144.5222522253812,-12.689264172939652,-163.63087339856656,10
1767651585.090676,1,left_wrist,-0.5353,0.8359,-0.7271,168.28,128.31,157.08,0.1149112810485936,-0.2731232374933113,-0.9511207111587853,0.08699705416708166,-166.60433470309695,-9.849872044094562,146.7966345006919,10
1767651585.090676,2,right_wrist,0.5368,-0.5104,-0.5563,-75.6,151.48,-83.44,0.14304035621414818,0.17956784135896972,-0.9281145196141111,0.2930840925831309,-147.96276477798472,-21.763274564414125,-164.41786146894924,10
1767651585.155566,1,left_wrist,-0.5353,0.8359,-0.7271,168.28,128.31,157.08,0.178831870517855,-0.33297097561453654,-0.9141534130432727,0.14653678345973223,-156.5713505354171,-13.260250996837774,137.21140717447022,10
1767651585.155566,2,right_wrist,0.2943,-0.0059,-0.3016,-2.94,177.03,-75.46,0.3176093117914794,0.19227863723715316,-0.8863188872410135,0.2767527431578909,-150.26616019394774,-42.02336051790135,-167.16363716498338,10
1767651586.189097,1,left_wrist,-0.5353,0.8359,-0.7271,168.28,128.31,157.08,0.2278521753665152,-0.09543923470297783,0.9448016586091776,0.21523142091572886,155.67584992969532,28.140367991742032,-174.64723905559026,11
1767651586.189097,2,right_wrist,0.0454,-0.8686,-1.0097,-11.13,-82.32,58.1,-0.047962916187753626,0.13011675597943612,-0.9402959820863069,0.3108257623758072,-143.34152733281059,0.5335113451009383,-164.0663117693736,11
1767651586.245792,1,left_wrist,-0.5353,0.8359,-0.7271,168.28,128.31,157.08,0.16596118810813645,-0.024642761768047302,0.972963646031531,0.15871786867019377,161.4212335002483,19.315572568758437,179.7128864177879,11
1767651586.245792,2,right_wrist,-0.0678,-0.752,-1.039,-2.24,-114.31,78.61,-0.1093909543079999,0.11176444829512543,-0.9413036327654153,0.2991484550444869,-143.60151808450033,7.994143587590286,-163.8254914043432,11
1767651586.303593,1,left_wrist,-0.5353,0.8359,-0.7271,168.28,128.31,157.08,0.10282588486522479,0.04568155018155405,0.9886196862258754,0.09985564271159363,167.82802921338347,11.197308315733746,173.5111373606122,11
1767651586.303593,2,right_wrist,-0.4133,-0.9194,-1.2044,14.0,-56.35,33.53,-0.1970172781113918,0.08962497828796627,-0.9295244967824722,0.29855613420888205,-141.57249042675616,18.22495211814193,-162.5861575795045,11
1767651586.3557749,1,left_wrist,-0.5353,0.8359,-0.7271,168.28,128.31,157.08,0.03871377570855361,0.11501558231678981,0.9918238720211563,0.03947234834259011,174.98565077732113,3.882733237101406,166.60055091076882,11
1767651586.3557749,2,right_wrist,-0.6212,-1.0272,-1.2629,-11.76,-9.1,-20.58,-0.20185634121223242,0.0987522808632493,-0.9285970013282296,0.29531273873799757,-141.66801943822125,18.45506199075133,-161.39568548131442,11
1767651586.407839,1,left_wrist,-0.5353,0.8359,-0.7271,168.28,128.31,157.08,-0.02580406592584169,0.18271122096213474,0.9825912649664273,-0.02156770567067862,-177.0272242374814,-2.4546359827888558,158.86880221655116,11
1767651586.407839,2,right_wrist,-0.4704,-1.0287,-1.1092,-32.55,74.55,-63.63,-0.16162962284714996,0.1185001680016923,-0.9343586165408084,0.2946312116830213,-142.73961278312643,13.427358021167413,-160.9989543284021,11
1767651586.4884899,1,left_wrist,-0.5353,0.8359,-0.7271,168.28,128.31,157.08,-0.15318572028404762,0.31029515788633044,0.9273614303744209,-0.1423089159092391,-158.5249837430544,-11.291550090154454,140.8515922019108,11
1767651586.4884899,2,right_wrist,-0.2401,-0.7081,-1.0199,17.08,137.34,-77.42,-0.09294948844038728,0.13170450651245522,-0.9366306960728739,0.3110261319198509,-142.43120464516142,5.289700924839079,-162.19135951418167,11
1767651586.538521,1,left_wrist,-0.5353,0.8359,-0.7271,168.28,128.31,157.08,-0.21451932111687802,0.3687197487622438,0.8819626689674596,-0.20042220008785713,-148.27127779446303,-13.332211540231826,130.818974284962,11
1767651586.538521,2,right_wrist,-0.0508,-0.7525,-1.0331,42.14,107.1,-70.91,-0.03762253031160554,0.14554940207632025,-0.9300438882804294,0.33528835744832874,-140.59040825914516,-1.582758345135039,-162.7779046774281,11
1767651586.590949,1,left_wrist,-0.5353,0.8359,-0.7271,168.28,128.31,157.08,-0.2732555390332332,0.422627109392933,0.8253323580190798,-0.2560160846519152,-137.75210316199792,-13.57126357333862,120.50466439773358,11
1767651586.590949,2,right_wrist,-0.0332,-0.8257,-0.8413,1.96,104.16,-58.45,0.010579810462407527,0.15284468448633526,-0.925531683470782,0.3462913122308906,-139.99526667050824,-7.206250955720938,-163.87152693587245,11
1767651586.644504,1,left_wrist,-0.5353,0.8359,-0.7271,168.28,128.31,157.08,-0.3286443278278912,0.47136312631743527,0.7581020754633612,-0.30836820866125547,-127.37482984001207,-11.980869671262496,110.3150561551962,11
1767651586.644504,2,right_wrist,-0.0332,-0.8257,-0.8413,1.96,104.16,-58.45,0.05721171296684147,0.15893488466747305,-0.9195228548734342,0.3548862376882852,-139.4504625041341,-12.5929150346806,-165.0553993650902,11
1767651586.7079968,1,left_wrist,-0.5353,0.8359,-0.7271,168.28,128.31,157.08,-0.3799639953727129,0.5143258505090679,0.6810248018579976,-0.3567933589247482,-117.5106759137039,-8.656698186501345,100.61985917406288,11
1767651586.7079968,2,right_wrist,0.3528,-0.2577,-0.5012,-41.93,147.35,-94.01,0.2110164540792172,0.18956310915471655,-0.9001088158974495,0.3306690237973944,-143.3383509008786,-30.347341012732393,-166.4833843770803,11
1767651587.702828,1,left_wrist,-0.5353,0.8359,-0.7271,168.28,128.31,157.08,-0.06019175320027832,-0.08521900339036557,-0.9935132121663327,-0.04523462787252143,174.21624603269595,6.424444736535812,169.86998709099026,12
1767651587.702828,2,right_wrist,0.306,-0.5373,-0.8208,-4.9,-95.69,82.81,-0.13468098898904482,0.14695360029239204,-0.9307184855227401,0.3066411115168573,-141.8005006232127,9.240339107188662,-158.84915525273757,12
1767651587.754783,1,left_wrist,-0.5353,0.8359,-0.7271,168.28,128.31,157.08,0.002922770703789946,-0.15452806152039641,-0.987854091407469,0.016025907265594986,-178.1337855766992,-0.047076350766532146,162.21800185339944,12
1767651587.754783,2,right_wrist,-0.6525,-0.7828,-1.1424,67.62,-134.12,91.91,-0.20935123209065512,0.12156984305192997,-0.9169425064232353,0.3171896511501108,-138.34489449838298,17.866771659912608,-158.05109138021675,12
1767651587.8065841,1,left_wrist,-0.5353,0.8359,-0.7271,168.28,128.31,157.08,0.06599833230497751,-0.2217958142940641,-0.9697895484714609,0.07719500353076506,-169.64222444275487,-5.38029566122541,153.74743828023085,12
1767651587.8065841,2,right_wrist,-0.4958,-1.3308,-1.2254,-12.88,-53.9,26.95,-0.23328521833697347,0.12032878739449403,-0.9136116221486356,0.31050409611562274,-138.24002683055699,20.581476812372433,-157.06995572434178,12
1767651587.891444,1,left_wrist,-0.5353,0.8359,-0.7271,168.28,128.31,157.08,0.18908706745624088,-0.34721092885720484,-0.8973662014362644,0.19602181593579207,-150.43499009505715,-11.726422590997291,134.59036509531998,12
1767651587.891444,2,right_wrist,-0.4958,-1.3308,-1.2254,-12.88,-53.9,26.95,-0.2556986816423429,0.11968193697970361,-0.910061801158891,0.3034500555916723,-138.15373464251311,23.12685645388112,-156.07027937584863,12
1767651587.9521658,1,left_wrist,-0.5353,0.8359,-0.7271,168.28,128.31,157.08,0.24758915447427815,-0.40388916434426164,-0.8438038555931984,0.25212736225578264,-140.18225205571292,-12.366857948715056,124.34944323743048,12
1767651587.9521658,2,right_wrist,-0.1405,-0.6744,-0.9745,10.36,157.78,-81.83,-0.12219858942628062,0.15661295424447022,-0.9261976345194544,0.3204650201123579,-140.43309860115255,7.237476761645725,-158.198701383176,12
1767651588.003617,1,left_wrist,-0.5353,0.8359,-0.7271,168.28,128.31,157.08,0.3030679901789359,-0.45562276994634254,-0.7794269046540939,0.30504325125572024,-129.9756752418383,-11.213728436237126,114.13715167170453,12
1767651588.003617,2,right_wrist,-0.1454,-0.7383,-0.8428,74.55,128.1,-70.35,-0.06654529180155686,0.16257672252016667,-0.9138993092194209,0.3659625473213234,-136.3266810126026,0.15111260272707366,-159.76539976364583,12
1767651588.090461,1,left_wrist,-0.5353,0.8359,-0.7271,168.28,128.31,157.08,0.4021135194199618,-0.5417705248080463,-0.6212295733949392,0.39857650845031983,-111.0823325870941,-3.883938548064061,95.15124076237316,12
1767651588.090461,2,right_wrist,-0.2557,-0.7569,-0.8477,-2.94,120.96,-67.2,-0.01170748408154853,0.16812922385947723,-0.912286940764646,0.37326670975479875,-136.46992326191977,-5.9783645592683206,-161.5045385352397,12
1767651588.1576629,1,left_wrist,-0.5353,0.8359,-0.7271,168.28,128.31,157.08,0.4443481327334931,-0.5750861653852134,-0.529186823778045,0.43794057229091404,-102.80592892624266,1.9152259885349938,86.76851185319089,12
1767651588.1576629,2,right_wrist,0.4309,-0.12,-0.6115,-41.16,140.07,-105.0,0.1454613268860856,0.2007995437000511,-0.9048375495083799,0.3461062764961956,-141.66074530350105,-23.71789268604438,-163.3259644867922,12
1767651588.2415512,1,left_wrist,-0.5353,0.8359,-0.7271,168.28,128.31,157.08,0.5112504507598793,-0.6199030183504611,-0.324402353376614,0.4991055374983554,-88.74580125775164,16.68395965015908,72.2950148146295,12
1767651588.2415512,2,right_wrist,0.3943,-0.1405,-0.2996,-35.35,194.81,-99.89,0.2435084456748509,0.2090676626557849,-0.8839076127406477,0.3401494986852022,-142.45916452475169,-34.93917183623414,-165.59507180432263,12
1767651589.189249,1,left_wrist,-0.5353,0.8359,-0.7271,168.28,128.31,157.08,-0.10416426269091957,0.26101550336529056,0.9505790903217246,-0.13198525078259193,-162.0685097025249,-7.419456845606628,148.1194532769761,13
1767651589.189249,2,right_wrist,-0.2074,-0.852,-1.1697,13.3,-158.9,82.53,-0.17480602595969896,0.1506618193476875,-0.926368537337193,0.2976326637161513,-141.5824421351601,13.543636167112917,-156.78681687570298,13
1767651589.2540019,1,left_wrist,-0.5353,0.8359,-0.7271,168.28,128.31,157.08,-0.16429188532391376,0.32431696141088223,0.9117723229788292,-0.19104427761049506,-152.47535729103078,-10.117987219596898,138.35487224121758,13
1767651589.2540019,2,right_wrist,-0.2816,-0.6783,-0.9501,-1.89,-119.91,65.66,-0.28143694002029657,0.12901849560950718,-0.9134428706986852,0.2641393544181112,-141.6633259663438,26.487042319629083,-154.56689217830805,13
1767651589.306578,1,left_wrist,-0.5353,0.8359,-0.7271,168.28,128.31,157.08,-0.22244727992932042,0.38363114339842597,0.8613844048167575,-0.2477120517967257,-142.49044321091776,-11.137554922780334,128.19459446347892,13
1767651589.306578,2,right_wrist,-0.6495,-1.1409,-1.261,-5.25,-28.14,-14.35,-0.2877503912301574,0.1404945098382686,-0.9093190185910475,0.26570646864690806,-140.86365165683904,26.657307865035133,-152.806356714194,13
1767651589.390413,1,left_wrist,-0.5353,0.8359,-0.7271,168.28,128.31,157.08,-0.32992403319654706,0.48749278399374235,0.7282384703740238,-0.35095533639005405,-122.76299193660347,-7.952399837787528,108.05819589571652,13
1767651589.390413,2,right_wrist,-0.7066,-0.9814,-1.302,-22.12,67.62,-69.79,-0.2474001940165326,0.16394160410581457,-0.916379379293258,0.2686356782891986,-141.97185093414177,21.42873884956617,-152.25287849902983,13
1767651589.4422998,1,left_wrist,-0.5353,0.8359,-0.7271,168.28,128.31,157.08,-0.3778456118333703,0.5307589398688491,0.6469750571191667,-0.3961703129125306,-113.67217811036446,-3.9204570287461156,98.70862329184298,13
1767651589.4422998,2,right_wrist,-0.3475,-0.8613,-1.0512,-24.64,147.77,-78.05,-0.17278796158427007,0.18174188001708375,-0.9269452520696708,0.27908190382915005,-143.51500173471274,12.643741291194772,-153.63141155649677,13
1767651589.504521,1,left_wrist,-0.5353,0.8359,-0.7271,168.28,128.31,157.08,-0.4210120419126523,0.5674885665652506,0.5571017239494356,-0.4362834589516583,-105.36108827301676,1.494367761865854,90.08088189348435,13
1767651589.504521,2,right_wrist,-0.185,-1.0228,-0.8574,53.97,108.99,-75.04,-0.07145292517719963,0.21201603861846463,-0.9139674378867018,0.3385368537323126,-139.52049544973093,-0.7413817459767428,-154.15316448058977,13
1767651589.555731,1,left_wrist,-0.5353,0.8359,-0.7271,168.28,128.31,157.08,-0.4588178165460828,0.5971862406655448,0.45963355105949066,-0.4707353863053867,-97.88286998246478,8.074307160201654,82.20466103957078,13
1767651589.555731,2,right_wrist,-0.2133,-0.6549,-0.8389,-21.77,145.39,-76.51,-0.004398282827769642,0.21966905845036888,-0.9132881475366692,0.3429736424810724,-140.58798363756506,-8.201080263933637,-155.8933666266898,13
1767651589.606529,1,left_wrist,-0.5353,0.8359,-0.7271,168.28,128.31,157.08,-0.4907078838326995,0.6194143538526524,0.3556818972460304,-0.4990210606349185,-91.21176874521365,15.612491061194019,75.02050199399216,13
1767651589.606529,2,right_wrist,-0.2133,-0.6549,-0.8389,-21.77,145.39,-76.51,0.06248982081854429,0.22642653153940792,-0.9082004211974131,0.34640733688237824,-141.37919492258615,-15.686772399125825,-157.52850754475787,13
1767651589.692238,1,left_wrist,-0.5353,0.8359,-0.7271,168.28,128.31,157.08,-0.5348335296576288,0.6399796613960795,0.1333009458740072,-0.5353596794515035,-80.03763936507096,32.86428566978898,62.23882539376302,13
1767651589.692238,2,right_wrist,0.4412,-0.1996,-0.55,-51.59,194.18,-87.36,0.1611484487245608,0.23085395006536588,-0.897638867023037,0.3390900995642364,-143.34600930122568,-26.478809704514646,-160.06692790616862,13
1767651590.691468,1,left_wrist,-0.5353,0.8359,-0.7271,168.28,128.31,157.08,0.25312822162659504,-0.4193278129710516,-0.8196964916771123,0.29696456054099424,-134.8499325797271,-9.551010468284623,121.8361916973492,14
1767651590.691468,2,right_wrist,0.0034,-0.4231,-0.7296,6.23,-137.34,92.26,-0.15521802556314993,0.24361325751173135,-0.8884355299764836,0.35671032278335457,-134.50620888310647,5.854563579914883,-146.87582380779526,14
1767651590.74227,1,left_wrist,-0.5353,0.8359,-0.7271,168.28,128.31,157.08,0.3053266159716236,-0.4715663396852408,-0.7508098289666602,0.34739810820186584,-125.24977438489083,-7.5182475068071675,111.8389957722087,14
1767651590.74227,2,right_wrist,-0.1957,-0.9023,-0.9106,47.25,-156.8,91.49,-0.2382259781777664,0.2267535068215807,-0.8777508850926349,0.3484029480134429,-131.81229776978483,15.082104573160548,-144.2544689721975,14
1767651590.803215,1,left_wrist,-0.5353,0.8359,-0.7271,168.28,128.31,157.08,0.3537358376341239,-0.5180217547005755,-0.6721378197955749,0.39338933644758667,-116.1837543590845,-3.8962504853577786,102.33002670606143,14
1767651590.803215,2,right_wrist,-0.6285,-1.0233,-0.9745,-8.4,-38.99,28.42,-0.31907869614905504,0.20216660228630878,-0.8664537522360385,0.32645879651177717,-130.0132246050665,24.89367849855483,-141.98336845049548,14
1767651590.858078,1,left_wrist,-0.5353,0.8359,-0.7271,168.28,128.31,157.08,0.39770563271562764,-0.5581032597719872,-0.5845671714336367,0.4343180899067198,-107.84579601232402,1.135525992970186,93.48079010056337,14
1767651590.858078,2,right_wrist,-0.6285,-1.0233,-0.9745,-8.4,-38.99,28.42,-0.3347420313862751,0.19838425623039666,-0.8663337384490569,0.31314104318690567,-130.64430317048226,27.113337724293576,-141.55981903290456,14
1767651590.938297,1,left_wrist,-0.5353,0.8359,-0.7271,168.28,128.31,157.08,0.46993343031487805,-0.6170766090268255,-0.38678855333261386,0.49877213702783163,-93.60084667340821,14.597758196719818,77.87637944661897,14
1767651590.938297,2,right_wrist,-0.5632,-1.078,-1.1434,-16.24,29.19,-68.18,-0.3090829375785991,0.22369469792945745,-0.8677758434034522,0.318423468703957,-131.26064696337056,23.20175920028199,-140.46460974994932,14
1767651590.990453,1,left_wrist,-0.5353,0.8359,-0.7271,168.28,128.31,157.08,0.49712135123691087,-0.6350770692885284,-0.27885830274367557,0.5213305335381753,-87.6508771845672,22.638606379967737,70.97231923990064,14
1767651590.990453,2,right_wrist,-0.5485,-0.7818,-0.8799,-65.38,117.04,-116.55,-0.24105976650055644,0.25880332405314976,-0.8803813674776629,0.3159741701973399,-135.12470066897575,15.123395839288735,-140.96150257520765,14
1767651591.0422342,1,left_wrist,-0.5353,0.8359,-0.7271,168.28,128.31,157.08,0.5177507523420454,-0.6449166538122657,-0.16660154362195054,0.5368990535916591,-82.42142096785841,31.331857955134264,64.48238009709848,14
1767651591.0422342,2,right_wrist,-0.1728,-0.7788,-0.793,-45.64,201.53,-68.67,-0.14408142339690452,0.2628667105171341,-0.8957517430474762,0.3282841006829776,-138.2169189729179,4.906643455631771,-145.41654933114864,14
1767651591.105689,1,left_wrist,-0.5353,0.8359,-0.7271,168.28,128.31,157.08,0.5314671389087152,-0.646296404646387,-0.051458544125386085,0.5451565425066763,-77.89969427963433,40.5392176280424,58.21359479800626,14
1767651591.105689,2,right_wrist,-0.1059,-0.7008,-1.1043,-11.06,136.08,-58.31,-0.041833936753751425,0.25366149290336276,-0.8937390082442195,0.36760896873765125,-136.9536787063813,-6.414431569134229,-150.84187804772301,14
1767651591.188311,1,left_wrist,-0.5353,0.8359,-0.7271,168.28,128.31,157.08,0.537254766394549,-0.6230034936193332,0.18102791125968137,0.5389367850401389,-71.55507616576003,60.0011244378912,44.99826565879107,14
1767651591.188311,2,right_wrist,0.1566,-0.4158,-0.8438,-62.37,169.19,-100.03,0.04852850036297175,0.2664829891949821,-0.8934033807851905,0.3584162389231548,-140.2287066455939,-16.125051778082035,-152.64887616269223,14
1767651591.23858,1,left_wrist,-0.5353,0.8359,-0.7271,168.28,128.31,157.08,0.5291482954804594,-0.5983765076193768,0.29491372246887576,0.5243791880108453,-71.25458841719012,69.99429511193576,36.19077060092569,14
1767651591.23858,2,right_wrist,0.4963,0.0132,-0.3314,-33.32,181.58,-103.81,0.14264774488118473,0.27805880764047053,-0.8784290273541995,0.36152090434085216,-141.46630211807272,-26.85023669893613,-154.40947590831345,14
1767651591.290655,1,left_wrist,-0.5353,0.8359,-0.7271,168.28,128.31,157.08,0.5137689710650006,-0.565419265188077,0.40491043845042285,0.5023843506309408,-79.36624783148942,79.79379341315436,19.21997369496275,14
1767651591.290655,2,right_wrist,0.551,-0.0176,-0.3484,11.41,197.12,-79.73,0.23221081770709945,0.27852110706668215,-0.8501733783873122,0.38171894862536543,-139.13662909683853,-37.406970271607605,-158.09809247054739,14
1767651592.209168,1,left_wrist,-0.5353,0.8359,-0.7271,168.28,128.31,157.08,-0.3744463988582689,0.5470010833531086,0.6115181691806224,-0.43200143281542397,-110.26523303184676,0.8393530851551514,96.9597711100913,15
1767651592.209168,2,right_wrist,-0.2381,-0.7457,-0.9819,-12.81,-127.12,77.07,-0.19632338600404986,0.21506800405821636,-0.9157970791063786,0.2766199407825569,-142.48343243288738,13.921989179908369,-148.8192061402444,15
1767651592.29246,1,left_wrist,-0.5353,0.8359,-0.7271,168.28,128.31,157.08,-0.4489533562482886,0.6129439664684826,0.4176549378221256,-0.4983020477542486,-95.92247284379872,13.64157317376905,80.85089093247204,15
1767651592.29246,2,right_wrist,-0.0766,-0.916,-1.1527,5.81,-178.08,81.34,-0.2726447680216692,0.20459004923994906,-0.904509494181732,0.25626220391917504,-141.3813252797865,22.85262706989524,-146.40818902530714,15
1767651592.352098,1,left_wrist,-0.5353,0.8359,-0.7271,168.28,128.31,157.08,-0.4777238410603166,0.6345612929073079,0.3111578640800993,-0.521816711928138,-89.93689029720124,21.40477118352074,73.66996735913976,15
1767651592.352098,2,right_wrist,-0.5817,-0.5022,-0.8979,8.33,-90.79,81.34,-0.36211529465934,0.1552844066922818,-0.8929622993582896,0.2176639573672267,-142.06455152523347,35.38803764729131,-147.75526957379358,15
1767651592.403738,1,left_wrist,-0.5353,0.8359,-0.7271,168.28,128.31,157.08,-0.5002123726802757,0.6480603500011795,0.19994844237974976,-0.5383548879353004,-84.70256462997862,29.8505618230381,66.89246803983708,15
1767651592.403738,2,right_wrist,-0.6417,-1.0716,-1.1614,-11.55,-71.33,62.86,-0.39140654824444293,0.14138813517546442,-0.8867434049649258,0.20123728027923884,-142.64741242779382,39.587005473781964,-148.009225458963,15
1767651592.456146,1,left_wrist,-0.5353,0.8359,-0.7271,168.28,128.31,157.08,-0.5160430211002589,0.653105707414111,0.08543282014020859,-0.5475890508033576,-80.22055599754425,38.83597701024967,60.320304541633114,15
1767651592.456146,2,right_wrist,-0.8018,-1.0341,-1.2395,-63.21,62.02,-84.91,-0.35181556680957804,0.1812615745561791,-0.8969386731224255,0.19715746295094322,-144.50270189345494,34.03089331716985,-145.96130455434184,15
1767651592.5065658,1,left_wrist,-0.5353,0.8359,-0.7271,168.28,128.31,157.08,-0.5249337580023244,0.6494498912103897,-0.030841018704079005,-0.5492797284459575,-76.58640079473132,48.23115345970374,53.66528076564276,15
1767651592.5065658,2,right_wrist,-0.4094,-0.6817,-0.9326,-4.9,199.43,-79.38,-0.2613356871090994,0.19675631435582636,-0.9180522552985518,0.22398809777657583,-146.0304618331451,23.060163414773076,-148.67588326344713,15
1767651592.591854,1,left_wrist,-0.5353,0.8359,-0.7271,168.28,128.31,157.08,-0.5212936091205159,0.6157249497908469,-0.26190445740906615,-0.5296619813469988,-73.99165290114678,67.71521233938518,37.28090033016928,15
1767651592.591854,2,right_wrist,-0.0903,-0.6007,-1.1165,61.04,132.72,-50.61,-0.20336957887479687,0.19798341921755364,-0.9215081377453089,0.2650775965116386,-143.7723741665549,15.655430785770278,-150.59918581724978,15
1767651592.655769,1,left_wrist,-0.5353,0.8359,-0.7271,168.28,128.31,157.08,-0.5087263349310527,0.5859271460791988,-0.37321347160032525,-0.5085259091247336,-80.87102029514135,77.32890054509986,21.403370502818614,15
1767651592.655769,2,right_wrist,-0.0669,-0.7647,-0.8994,-5.25,152.11,-83.23,-0.06677163791662645,0.2208458416811915,-0.9152771294639865,0.33020666083866596,-140.64446679907743,-1.3534768094665066,-153.35300710949957,15
1767651592.706665,1,left_wrist,-0.5353,0.8359,-0.7271,168.28,128.31,157.08,-0.48913870240318946,0.5479715234705543,-0.47945167679496475,-0.48020477808449663,-128.57414271260757,84.45097852732592,-35.155607086148365,15
1767651592.706665,2,right_wrist,0.2586,-0.527,-0.8491,-54.18,152.04,-92.68,0.016952577149538094,0.23827872944218453,-0.9156033502842045,0.3234290682232314,-143.52530357425405,-10.671405863759905,-154.3509378891648,15
1767651592.792408,1,left_wrist,-0.5353,0.8359,-0.7271,168.28,128.31,157.08,-0.42992055836991383,0.44983793468657174,-0.6705290488900933,-0.40398631239482347,152.98181109863108,70.05242685021881,-131.40336499430038,15
1767651592.792408,2,right_wrist,0.4094,-0.0966,-0.4978,-68.18,198.45,-90.58,0.11970622140995238,0.24614896697358185,-0.9095668758949101,0.31268067559151,-146.6860775557516,-21.82010878518023,-156.31564662364065,15
1767651593.806526,1,left_wrist,-0.5353,0.8359,-0.7271,168.28,128.31,157.08,0.5000798349293155,-0.65817506008406,-0.11953640754309541,0.5499425390457656,-82.42443142599916,37.18290509924643,62.60788887543285,16
1767651593.806526,2,right_wrist,0.063,-0.4402,-0.8569,-17.92,-125.72,54.39,-0.22279786056666878,0.22853042629686166,-0.908064942262846,0.2712065969268892,-141.7370853257945,16.300311934128345,-146.05945705788747,16
1767651593.890166,1,left_wrist,-0.5353,0.8359,-0.7271,168.28,128.31,157.08,0.5154095526588655,-0.6493148352536594,0.11292871184758649,0.5477137425589629,-76.47193398129953,55.86180275607729,48.136755719756124,16
1767651593.890166,2,right_wrist,-0.0454,-0.6222,-0.8457,3.29,-124.67,80.57,-0.27697317019620327,0.21236773348039714,-0.9023850992877328,0.25275866226765137,-141.39986123873035,23.111227533833908,-145.32288552729347,16
1767651593.940635,1,left_wrist,-0.5353,0.8359,-0.7271,168.28,128.31,157.08,0.5125977812204002,-0.6315364168149004,0.22829152907563452,0.5350591057788178,-76.32519157041797,65.48629943767602,38.836633192641884,16
1767651593.940635,2,right_wrist,-0.3211,-0.5104,-1.1536,4.2,-64.47,72.66,-0.30714654622953647,0.1907451605801343,-0.9017665792196744,0.2368423937072342,-142.09662852098106,27.61938888577824,-146.46401917853794,16
1767651593.9923682,1,left_wrist,-0.5353,0.8359,-0.7271,168.28,128.31,157.08,0.5027635995298182,-0.6050160942953429,0.34075985078868987,0.5148465914443828,-82.11137183307196,74.93338254981165,23.91171041422578,16
1767651593.9923682,2,right_wrist,-0.5968,-0.9428,-1.1644,-18.34,-30.45,4.48,-0.3141547114961531,0.19645678546525555,-0.9001888934513671,0.22884821344338885,-142.50238100588123,28.403607647229908,-145.5582741450538,16
1767651594.0565708,1,left_wrist,-0.5353,0.8359,-0.7271,168.28,128.31,157.08,0.4860019382726537,-0.570086575486518,0.44864025240797567,0.48736571110879984,-114.2209682650132,82.64023527522669,-17.165473355152958,16
1767651594.0565708,2,right_wrist,-0.691,-0.7862,-1.1175,-43.82,123.76,-79.03,-0.23701074422664253,0.24617182555346773,-0.9110158143713423,0.23081491587444294,-145.47972171211532,18.55415257853141,-143.9469459619675,16
1767651594.1393101,1,left_wrist,-0.5353,0.8359,-0.7271,168.28,128.31,157.08,0.43255515734176075,-0.4770598095602335,0.6443314613693572,0.41248871723845587,157.398609653813,71.9860723088115,-123.48543590314297,16
1767651594.1393101,2,right_wrist,-0.1176,-0.6432,-0.9189,74.27,152.88,-61.25,-0.1731264274856078,0.24821854362476284,-0.9098297651571802,0.28394470085018775,-142.2677777835924,10.02456995696283,-146.0467227746127,16
1767651594.192369,1,left_wrist,-0.5353,0.8359,-0.7271,168.28,128.31,157.08,0.39655187531507086,-0.4202930825901247,0.7292790048319048,0.3664047871171684,154.2549779042764,62.422903726207046,-135.8555619473088,16
1767651594.192369,2,right_wrist,-0.122,-0.7042,-1.0487,33.18,97.23,-62.09,-0.12627668365403263,0.259114939672918,-0.9059205523869818,0.3101960669745913,-141.0292311576461,3.9014428985811977,-146.6954879208038,16
1767651594.2596638,1,left_wrist,-0.5353,0.8359,-0.7271,168.28,128.31,157.08,0.3550397401774271,-0.35775908665437856,0.803922186429541,0.3156965900628581,155.193025753896,52.81946730574125,-144.48649574243964,16
1767651594.2596638,2,right_wrist,0.1845,-0.6686,-0.9355,-29.12,146.65,-87.15,0.008413345045077568,0.28254830839240536,-0.8944084458498892,0.3465965969857879,-140.99400905458072,-12.175715085337782,-149.26340969849383,16
1767651594.341082,1,left_wrist,-0.5353,0.8359,-0.7271,168.28,128.31,157.08,0.2591769631513639,-0.21958619350532224,0.9180614335536361,0.20438299737239005,161.5159017236763,34.446754024368694,-158.87226852291886,16
1767651594.341082,2,right_wrist,0.1806,-0.4436,-0.6412,-62.65,147.28,-78.54,0.08681418614082594,0.29082228931773785,-0.8919226919746891,0.3352008422741803,-144.24104229650678,-20.476968755265894,-150.55108186371993,16
1767651595.3577442,1,left_wrist,-0.5353,0.8359,-0.7271,168.28,128.31,157.08,-0.49591694081307086,0.6226614100597598,-0.30761045928519054,-0.5212820364978552,-83.21195497240943,72.604323580375,26.618191932246088,17
1767651595.3577442,2,right_wrist,-0.083,-0.7857,-0.8969,-2.1,-135.59,79.52,-0.19707324347735275,0.2472844408527839,-0.8905365121741228,0.3270432119799929,-136.17415776715342,10.909394202121378,-144.56259904737334,17
1767651595.442613,1,left_wrist,-0.5353,0.8359,-0.7271,168.28,128.31,157.08,-0.46124143830168274,0.5509062134212974,-0.5206350230793765,-0.46119177394045113,-169.37405790320008,81.27346236208778,-77.63739240247662,17
1767651595.442613,2,right_wrist,-0.2889,-0.7203,-0.8828,32.06,-97.44,63.98,-0.2483201978942909,0.2322984585584624,-0.8846876425067726,0.3189079501437861,-134.73035663882098,16.930289293363987,-143.47297294429245,17
1767651595.502769,1,left_wrist,-0.5353,0.8359,-0.7271,168.28,128.31,157.08,-0.4341458000226054,0.5032839462521846,-0.617034184666548,-0.42129741124346837,162.81235116512707,73.7050542624983,-114.52017855620885,17
1767651595.502769,2,right_wrist,-0.7091,-1.3235,-1.1653,-6.93,-43.4,4.41,-0.3059830020936158,0.22637290998178317,-0.8794739702815527,0.28575381651582576,-135.3675707346138,24.131629957506824,-141.10280045127527,17
1767651595.557765,1,left_wrist,-0.5353,0.8359,-0.7271,168.28,128.31,157.08,-0.4009785594627388,0.44870373982355466,-0.7047761994506644,-0.37572816956866567,156.7995857299969,64.47290021874817,-129.78524568526998,17
1767651595.557765,2,right_wrist,-0.8867,-1.0131,-1.3196,-53.48,11.83,-63.21,-0.2887590128541691,0.25476786397147255,-0.8823786105031711,0.2704062789755299,-137.73583680574737,21.82715800012822,-139.26590792706816,17
1767651595.640152,1,left_wrist,-0.5353,0.8359,-0.7271,168.28,128.31,157.08,-0.31862749654670885,0.321994416838211,-0.8492773506455654,-0.27115326966468023,158.54796015250838,45.71092643764372,-147.60244210410315,17
1767651595.640152,2,right_wrist,-0.8867,-1.0131,-1.3196,-53.48,11.83,-63.21,-0.27304362250697717,0.2825119262596329,-0.8835116235146079,0.2550321604110372,-139.99574592653525,19.77791181230538,-137.2735613578196,17
1767651595.691772,1,left_wrist,-0.5353,0.8359,-0.7271,168.28,128.31,157.08,-0.2712626238960946,0.2519768404938984,-0.9039295543818767,-0.21409255345924644,161.79401791907065,36.74805038970143,-154.94042443950178,17
1767651595.691772,2,right_wrist,-0.121,-0.5095,-1.056,16.66,157.92,-84.21,-0.20023820214390176,0.2955240633521915,-0.8885074465485719,0.2883135581441226,-140.07253437265584,10.685566586633641,-139.31363264549097,17
1767651595.7544188,1,left_wrist,-0.5353,0.8359,-0.7271,168.28,128.31,157.08,-0.22130900149687072,0.17924970523891814,-0.9460217027325574,-0.1547087812220485,165.9743111527333,28.306574886853035,-162.09538290080417,17
1767651595.7544188,2,right_wrist,0.1796,-1.0458,-0.8316,49.56,100.87,-78.75,-0.08254000496582753,0.32019565222403,-0.8731295782198845,0.35819915063360486,-137.09028391125273,-4.8904804611594015,-141.64477307186388,17
1767651595.8046389,1,left_wrist,-0.5353,0.8359,-0.7271,168.28,128.31,157.08,-0.16941943793404815,0.10492366904591782,-0.9754853029350739,-0.0933622058529089,170.99615900917894,20.494909104577957,-169.35267637351404,17
1767651595.8046389,2,right_wrist,-0.0073,-0.6808,-0.833,-43.05,145.67,-91.98,-0.009395877807546773,0.3322164724347058,-0.8713551310626133,0.360948983229101,-139.32617148915773,-12.911872947035862,-143.0631367731002,17
1767651595.856534,1,left_wrist,-0.5353,0.8359,-0.7271,168.28,128.31,157.08,-0.11592440794767785,0.029814658611617185,-0.9923369041715766,-0.03066082831601508,176.82126898030424,13.408983304223836,-176.9319062383492,17
1767651595.856534,2,right_wrist,0.3709,-0.2835,-0.6178,-31.99,141.26,-103.11,0.06919347204209442,0.3499312611023656,-0.8593269485122359,0.36649361725781393,-141.14622524891823,-22.049950947635057,-143.54788063181877,17
1767651595.940632,1,left_wrist,-0.5353,0.8359,-0.7271,168.28,128.31,157.08,-0.005830689684653029,-0.11969457485572366,-0.9881816020302939,0.0955841682327713,-169.18582598410075,1.9716718013063028,166.37390360377407,17
1767651595.940632,2,right_wrist,0.266,-0.2533,-0.2562,-19.67,146.37,-94.5,0.1451461489531225,0.3608706438659348,-0.8394738163477727,0.37945841077299813,-141.52725065300334,-31.16896305303674,-144.59423568624155,17
1767651596.9954402,1,left_wrist,-0.5353,0.8359,-0.7271,168.28,128.31,157.08,0.32738526798714374,-0.3530505144933814,0.830064780658282,0.2813657413966082,159.38813385851034,47.91698913866458,-143.15620971017202,18
1767651596.9954402,2,right_wrist,0.0737,-0.3694,-0.7554,4.83,-99.89,64.47,-0.12756582315700654,0.31873272777142153,-0.8761552026196744,0.3383614486494309,-137.6037680997819,0.4492713689531541,-139.84442959805781,18
1767651597.052854,1,left_wrist,-0.5353,0.8359,-0.7271,168.28,128.31,157.08,0.28238183411405976,-0.28409167486676806,0.8883928603723921,0.22430012410414216,162.16260985457788,38.98932643566363,-150.89300731218907,18
1767651597.052854,2,right_wrist,-0.0776,-0.8945,-0.8355,3.64,-135.03,87.64,-0.2572278919907497,0.2882141876511975,-0.8734122843125485,0.29650864275850614,-136.08038255125146,16.165689739778088,-136.92101913186852,18
1767651597.107758,1,left_wrist,-0.5353,0.8359,-0.7271,168.28,128.31,157.08,0.2345057746311816,-0.21189536396794106,0.9343103054059664,0.16483825285937986,165.98175601849053,30.534643412723167,-158.2878328881991,18
1767651597.107758,2,right_wrist,-0.5475,-0.4392,-1.0565,17.01,-57.61,74.55,-0.2909745162806636,0.2642492041698672,-0.8750079758720735,0.28260791059537305,-135.98077260415482,21.09112026630769,-137.7848982934126,18
1767651597.18865,1,left_wrist,-0.5353,0.8359,-0.7271,168.28,128.31,157.08,0.13279090185071335,-0.062208213734216186,0.9883620343814432,0.04046237169330714,176.2236407119165,15.517052108271777,-173.31172204320995,18
1767651597.18865,2,right_wrist,-0.7154,-1.0892,-1.0058,-39.41,-50.26,7.49,-0.3102332725487167,0.27111993620489283,-0.8729764210608303,0.26107750777842315,-137.08425674911157,23.583556702153544,-136.11169042848957,18
1767651597.2410429,1,left_wrist,-0.5353,0.8359,-0.7271,168.28,128.31,157.08,0.07969375069069423,0.013622274297398158,0.9964579089416985,-0.023129536341085118,-177.44988169864703,9.175153051660068,178.63820578052062,18
1767651597.2410429,2,right_wrist,-0.7871,-1.0253,-1.2312,-30.8,-1.12,-47.18,-0.3028066807439851,0.29179361861976616,-0.8717943817121475,0.2512750569490076,-138.31083643566092,22.416053693376142,-134.35949930520337,18
1767651597.307233,1,left_wrist,-0.5353,0.8359,-0.7271,168.28,128.31,157.08,0.025711532097834965,0.08905515304302435,0.991924512511944,-0.08656707406172193,-170.3559628918562,3.8087503306271797,170.06088072567746,18
1767651597.307233,2,right_wrist,-0.2674,-0.7203,-0.9389,2.17,153.86,-80.36,-0.18417074616442974,0.32934919781282856,-0.8818214631726297,0.2828447440653017,-141.2307699050613,7.961175868824679,-136.23482250256816,18
1767651597.3593369,1,left_wrist,-0.5353,0.8359,-0.7271,168.28,128.31,157.08,-0.028581734933861336,0.16326123339651827,0.9748462606833097,-0.14900879883344803,-162.5507203884745,-0.4051346296545811,160.92320064054098,18
1767651597.3593369,2,right_wrist,-0.242,-0.4948,-0.9526,38.36,148.19,-72.03,-0.12361650724209024,0.33446967156865587,-0.8779831877431669,0.31936580903153794,-139.94734369770595,0.19652924399580146,-138.21946379709337,18
1767651597.440653,1,left_wrist,-0.5353,0.8359,-0.7271,168.28,128.31,157.08,-0.1355746334653707,0.30461380745006883,0.9039916720484806,-0.2676359541214425,-145.36166288538269,-4.707298656108055,141.28730602893143,18
1767651597.440653,2,right_wrist,-0.1244,-0.8677,-0.8398,45.08,95.9,-66.92,-0.08758704174767122,0.3425120720071615,-0.8652226538689537,0.3555330503331827,-137.30429478796742,-5.277763411188809,-138.87019124953332,18
1767651597.495734,1,left_wrist,-0.5353,0.8359,-0.7271,168.28,128.31,157.08,-0.18696562229547545,0.3700930428863119,0.8510124088848328,-0.32226212251961994,-136.4427716124771,-4.57052817014287,131.16602686829492,18
1767651597.495734,2,right_wrist,-0.2323,-0.6705,-0.9189,-6.02,111.79,-82.46,-0.03516676024561015,0.3547585042672773,-0.8581265430328869,0.3694976843855706,-137.70491465949505,-11.642813004338198,-139.59548338448735,18
1767651597.5572,1,left_wrist,-0.5353,0.8359,-0.7271,168.28,128.31,157.08,-0.2360806260664906,0.4310399573581535,0.7870832710341616,-0.37278736246672806,-127.68816787669898,-2.8807691340482853,121.17107206838295,18
1767651597.5572,2,right_wrist,0.448,-0.2508,-0.5192,-49.84,163.1,-95.34,0.1280731680419081,0.37940270766613765,-0.8354957434509638,0.37629471391269054,-142.14572450712848,-29.969812067199516,-141.64228063837317,18
1767651597.607708,1,left_wrist,-0.5353,0.8359,-0.7271,168.28,128.31,157.08,-0.28228163758179614,0.4867035709024357,0.7129261640560749,-0.4185367316726785,-119.35991269868221,0.2815934797674202,111.5231947775772,18
1767651597.607708,2,right_wrist,0.4407,-0.1942,-0.3845,-19.81,180.39,-88.9,0.21517299504073234,0.3810675678369928,-0.8094862428616718,0.391433408852252,-141.9877544056768,-40.292077233816975,-143.98622483662493,18
1767651598.6116621,1,left_wrist,-0.5353,0.8359,-0.7271,168.28,128.31,157.08,-0.09739368427030115,0.018500178999525215,-0.9949874254216401,0.013123905442307722,-178.26417097375764,11.146914297948893,-177.70020058921418,19
1767651598.6116621,2,right_wrist,-0.2645,-0.7662,-1.0712,-37.52,-103.39,79.31,-0.14142434695767325,0.33070633605430166,-0.8866444902746419,0.2906785531248483,-142.40741116181567,3.355310953329456,-137.94804986868706,19
1767651598.704962,1,left_wrist,-0.5353,0.8359,-0.7271,168.28,128.31,157.08,0.008160176634860811,-0.13328167359561757,-0.9811045784139958,0.14001147530090116,-163.92055831536985,1.2210628654205746,164.70009338867268,19
1767651598.704962,2,right_wrist,-0.2601,-0.6378,-0.8535,11.27,-136.78,77.49,-0.20947925724484093,0.3150208621191469,-0.8861166107139086,0.2677268186617747,-141.73540376109884,11.687112389700877,-136.79185129635326,19
1767651598.7564428,1,left_wrist,-0.5353,0.8359,-0.7271,168.28,128.31,157.08,0.06113115861370339,-0.2070255461771556,-0.9554437507962561,0.2013222385653861,-155.77975829492294,-1.9173069555499085,155.13687005526967,19
1767651598.7564428,2,right_wrist,-0.3548,-0.5397,-0.9423,26.74,-97.58,45.5,-0.3175045089228583,0.28744350899350624,-0.8738182896521358,0.23023621048951198,-139.80940543151826,24.99395791803768,-134.31094464915435,19
1767651598.8096519,1,left_wrist,-0.5353,0.8359,-0.7271,168.28,128.31,157.08,0.11339989632288751,-0.27819479657493207,-0.9176500739055137,0.2601277773206768,-147.2076259669088,-3.6344425757643744,145.1998512694096,19
1767651598.8096519,2,right_wrist,-0.3548,-0.5397,-0.9423,26.74,-97.58,45.5,-0.35863468731822123,0.27667338598120017,-0.8640319972538617,0.21973098612476627,-138.1807864254952,29.878093825076757,-132.8478473904798,19
1767651598.8962839,1,left_wrist,-0.5353,0.8359,-0.7271,168.28,128.31,157.08,0.21325599927658587,-0.40945884209404076,-0.8074969099880807,0.3671703634054001,-129.7938865643089,-2.506046453491802,125.04921906770342,19
1767651598.8962839,2,right_wrist,-1.0326,-0.8662,-1.1619,-33.18,13.86,-47.53,-0.3466149452916274,0.2964607010967083,-0.8642724268311599,0.2121374663398886,-139.4892747752622,28.252534671516134,-131.52226066788063,19
1767651598.9566238,1,left_wrist,-0.5353,0.8359,-0.7271,168.28,128.31,157.08,0.25956863823723253,-0.4679572654691831,-0.7363795967502297,0.4139869674618301,-121.49907639109338,0.2964680298521864,115.29544321301826,19
1767651598.9566238,2,right_wrist,-0.326,-0.4836,-0.9721,97.44,149.52,-50.61,-0.24078527579178574,0.31786613626758664,-0.8742358018505612,0.2769392228249653,-138.90422957692093,14.178702551604477,-134.70002711981255,19
1767651599.0418859,1,left_wrist,-0.5353,0.8359,-0.7271,168.28,128.31,157.08,0.34191045316308016,-0.5670297959201561,-0.5660852012340758,0.49104174720724025,-106.74622025571051,9.774429670619133,97.17861308894001,19
1767651599.0418859,2,right_wrist,-0.1635,-0.6456,-0.9833,70.07,125.09,-61.74,-0.19121365760924114,0.319295112560631,-0.8694899079574965,0.3247695616874438,-136.18631514291317,7.187802542447096,-136.77773399977755,19
1767651599.103588,1,left_wrist,-0.5353,0.8359,-0.7271,168.28,128.31,157.08,0.37680478144280155,-0.6062981546438294,-0.4688556668010293,0.5201875316324798,-100.48573817350567,16.107675944444587,88.85736316819538,19
1767651599.103588,2,right_wrist,-0.0181,-0.8154,-0.9374,-10.92,166.81,-84.63,-0.05303129837005062,0.32966390716920096,-0.8684474081981366,0.36648122584528436,-137.22360924182212,-8.599196558010265,-141.79963586019807,19
1767651599.157612,1,left_wrist,-0.5353,0.8359,-0.7271,168.28,128.31,157.08,0.4068241902362097,-0.6379431296538923,-0.3650493518734223,0.5424588576683431,-95.02505131086642,23.2718360299491,80.92120525749536,19
1767651599.157612,2,right_wrist,0.2455,-0.4202,-0.793,-46.2,130.06,-93.38,0.02070912184643016,0.3457672748842211,-0.8639217492035631,0.36558902492354034,-139.84964251485414,-16.774132484199203,-142.5428979439451,19
1767651599.2423658,1,left_wrist,-0.5353,0.8359,-0.7271,168.28,128.31,157.08,0.4504864294621152,-0.6763796961848799,-0.14282459685159227,0.5649545273679151,-86.71626490736907,39.46201025563656,65.44349286787912,19
1767651599.2423658,2,right_wrist,0.4494,-0.2855,-0.588,-51.03,179.06,-98.07,0.11547300679411014,0.3538704670357903,-0.8514588278952624,0.3694043065003778,-141.99402574195582,-27.263512816182015,-144.41225525424076,19
1767651600.292452,1,left_wrist,-0.5353,0.8359,-0.7271,168.28,128.31,157.08,-0.23703398818071614,0.44785845635838,0.7589595778460966,-0.4089230376380229,-123.5871886000215,0.3713279292825272,119.10985078376211,20
1767651600.292452,2,right_wrist,-0.0883,-0.978,-0.896,7.49,-112.28,61.46,-0.19175749550766394,0.35123499851389334,-0.8734441408448474,0.27741371912610957,-141.28228311963568,8.053870535245075,-133.35346365859021,20
1767651600.357014,1,left_wrist,-0.5353,0.8359,-0.7271,168.28,128.31,157.08,-0.2804127089080401,0.5035882897926973,0.681070217184438,-0.4515649525050227,-115.85366121333699,4.177362594839981,109.65945040094329,20
1767651600.357014,2,right_wrist,-0.2225,-0.7706,-0.8877,-0.35,-112.77,78.33,-0.2908671546536806,0.3248518186417098,-0.8675690493130459,0.23914752547936424,-139.86919512950323,20.445708410950907,-131.40681374776332,20
1767651600.442322,1,left_wrist,-0.5353,0.8359,-0.7271,168.28,128.31,157.08,-0.35604380628176097,0.595766077656174,0.499181277297038,-0.5187616419114578,-102.46340399127963,15.227978026430325,92.17333214987598,20
1767651600.442322,2,right_wrist,-0.449,-0.8403,-1.2556,-5.11,-84.84,42.84,-0.322931738456946,0.3187173595646903,-0.8641589866201496,0.21763175975239119,-140.1265997794472,24.79688243570108,-130.39214635122548,20
1767651600.506728,1,left_wrist,-0.5353,0.8359,-0.7271,168.28,128.31,157.08,-0.38722969060342355,0.630951455894495,0.3972841581226201,-0.5423271381044794,-96.93620523100181,22.128417247586608,84.04576862552636,20
1767651600.506728,2,right_wrist,-0.7481,-1.1175,-1.2273,-20.93,-21.28,-12.04,-0.3553743663268587,0.32392879955189463,-0.8554716994623466,0.192216971148899,-140.3033012293451,28.913994476519434,-127.88722757011968,20
1767651600.5599911,1,left_wrist,-0.5353,0.8359,-0.7271,168.28,128.31,157.08,-0.4133596770192763,0.6581196575018426,0.2896714001389125,-0.5586615914538416,-92.24792556011658,29.72617205534363,76.14348530103683,20
1767651600.5599911,2,right_wrist,-0.507,-0.6881,-0.8989,-42.7,156.59,-87.64,-0.27869502638936705,0.35031704991515955,-0.8687729762567025,0.211755903177788,-143.27774496676898,19.626181343865323,-129.5070503699146,20
1767651600.6112902,1,left_wrist,-0.5353,0.8359,-0.7271,168.28,128.31,157.08,-0.4340288907886352,0.6767872497823838,0.1776819277747508,-0.5674566706234343,-88.49188556326062,37.86889289254659,68.22502325166629,20
1767651600.6112902,2,right_wrist,-0.0688,-0.5919,-0.955,37.8,132.44,-80.08,-0.22179079999186507,0.36446140584904463,-0.8673640268672876,0.2562349889887596,-141.80017547290154,11.418345004185731,-130.45077350181745,20
1767651600.689421,1,left_wrist,-0.5353,0.8359,-0.7271,168.28,128.31,157.08,-0.4577350828985657,0.6871242896833627,-0.05343577922638991,-0.5616791093760265,-84.97728127832785,55.16551686750124,50.50134747739224,20
1767651600.689421,2,right_wrist,-0.0117,-0.9008,-0.9955,70.14,89.74,-62.86,-0.18842734024042085,0.37218020266338087,-0.8557896621986484,0.30594294937012106,-138.1713229849572,5.438457424830169,-130.91222415964594,20
1767651600.7407072,1,left_wrist,-0.5353,0.8359,-0.7271,168.28,128.31,157.08,-0.4603559694684856,0.6783593221846193,-0.1692989056337271,-0.547027322837879,-87.09005631442733,63.9013174663168,38.517956888899185,20
1767651600.7407072,2,right_wrist,-0.2279,-0.8872,-0.9194,-15.19,128.87,-78.19,-0.13134543003895638,0.3830658415677048,-0.8538805370317084,0.32695101698931756,-138.7604957442755,-1.5002276548163485,-132.24082855544853,20
1767651600.8081431,1,left_wrist,-0.5353,0.8359,-0.7271,168.28,128.31,157.08,-0.45668940769607663,0.6602819862928327,-0.2830942601056674,-0.5247095609674202,-96.01242742595021,72.07958735870656,20.034962474664763,20
1767651600.8081431,2,right_wrist,0.4143,0.0581,-0.67,-52.64,156.24,-69.44,0.027978799483164826,0.3998072447950968,-0.8523323773194247,0.3360072504602425,-144.53471643921858,-18.44358392702552,-135.68366494696454,20
1767651563.4827561,1,left_wrist,0.9794,0.1064,-0.1,27.02,7.28,-5.32,-0.4526998630231508,0.4771123618792269,0.4733513975339365,0.5859736193835993,51.800690285463844,-81.01260817503017,-149.68262525167475,0
1767651563.4827561,2,right_wrist,1.3205,0.2952,-0.1937,118.65,-289.52,114.45,0.9577227728271089,0.01662991247219149,-0.23183345479349574,-0.1695399234930614,7.0598344498491405,-26.003464298252542,-21.70952691359547,0
1767651563.5368059,1,left_wrist,0.9862,0.0864,-0.0278,21.98,7.84,-1.96,-0.4574406875248602,0.4727741421640527,0.4791044626625819,0.5811123314425757,52.93413203168015,-81.03860430331349,-149.6818043536035,0
1767651563.5368059,2,right_wrist,1.3205,0.2952,-0.1937,118.65,-289.52,114.45,0.9247419489076611,0.033019086280855474,-0.362711086097151,-0.11046599428721547,10.87906926073048,-41.569905450326004,-17.764042937754738,0
1767651563.6211252,1,left_wrist,0.9862,0.0864,-0.0278,21.98,7.84,-1.96,-0.4621797331381866,0.4684129540319992,0.48477554708723486,0.5761699989739167,54.03642488499351,-81.06967677068636,-149.6493519188057,0
1767651563.6211252,2,right_wrist,1.3205,0.2952,-0.1937,118.65,-289.52,114.45,0.7995992908055458,0.06332959161748601,-0.5970440377473792,0.01299053344311723,17.084252733916205,-73.0260033585844,-10.828573617799664,0
1767651563.686646,1,left_wrist,0.9897,0.1703,0.0415,9.31,-3.99,1.4,-0.4617635176603386,0.46745608477334427,0.49536303174302593,0.5682206695894509,61.18348552772323,-81.385142365778,-155.69799685476065,0
1767651563.686646,2,right_wrist,1.3205,0.2952,-0.1937,118.65,-289.52,114.45,0.710473069978214,0.07694237780125839,-0.6955716649120475,0.0740806743051304,17.00150235782929,-88.77047460825246,-4.74024834516481,0
1767651563.7375329,1,left_wrist,0.9897,0.1069,-0.042,1.54,5.88,2.38,-0.4627944249968458,0.4684137939123722,0.4956023401102111,0.5663816366565387,61.31983953572762,-81.62105259060507,-155.70996238156582,0
1767651563.7375329,2,right_wrist,1.3205,0.2952,-0.1937,118.65,-289.52,114.45,0.6070111200663628,0.09011171634196875,-0.778517758873588,0.1316338779043223,-157.29768996611503,-75.6642399285581,175.483160782784,0
1767651563.818295,1,left_wrist,0.9897,0.1069,-0.042,1.54,5.88,2.38,-0.46376475211360074,0.46932817772666524,0.49588445342589366,0.5645811944612403,61.50102913458213,-81.84792544786318,-155.76759835650563,0
1767651563.818295,2,right_wrist,1.3205,0.2952,-0.1937,118.65,-289.52,114.45,0.3711028914628154,0.10838193067246847,-0.891211993226981,0.23722812687377087,-150.77446302846906,-45.470149008781334,-178.60190842020734,0
1767651563.8948941,1,left_wrist,0.9726,0.1264,0.0307,3.71,6.72,-0.28,-0.4646087945122133,0.467615357971387,0.4992087981750341,0.5623745378978651,63.15807949496319,-81.81902558171127,-156.9598532927637,0
1767651563.8948941,2,right_wrist,1.3205,0.2952,-0.1937,118.65,-289.52,114.45,0.24087559326897376,0.11311749755404597,-0.9211133785711196,0.28413645336656046,-147.01348697915836,-30.53263618355353,-175.2380524217348,0
1767651563.969196,1,left_wrist,1.016,0.1161,-0.0351,7.21,10.85,0.91,-0.4673494727036265,0.46575903848448763,0.5002528502925027,0.5607138969277244,62.42098090479593,-81.85025113384052,-155.80305803964978,0
1767651563.969196,2,right_wrist,1.3205,0.2952,-0.1937,118.65,-289.52,114.45,-0.03203879008727806,0.11515734439581521,-0.9251556783155325,0.36027666152829524,-137.60854121303154,-1.3577660437585986,-166.33592521492943,0
1767651564.036928,1,left_wrist,1.018,0.1122,0.0083,1.05,3.99,1.61,-0.4681898349854714,0.4685763743059788,0.5013064330272266,0.5567102658152255,63.99183521947909,-82.36549319228594,-157.19591298776993,0
1767651564.036928,2,right_wrist,1.3205,0.2952,-0.1937,118.65,-289.52,114.45,-0.16929134072108024,0.11259739355355418,-0.8990253611903823,0.3878345895588838,-131.11142714881257,12.536181579215368,-160.00600790001772,0
1767651564.117246,1,left_wrist,1.0019,0.0883,0.0337,11.9,3.36,-1.47,-0.47160548572305144,0.46811598605963683,0.5035072913609633,0.552210192750627,64.47663193008505,-82.70721671397756,-157.07264610161855,0
1767651564.117246,2,right_wrist,1.3205,0.2952,-0.1937,118.65,-289.52,114.45,-0.4316090280640976,0.10076629910463142,-0.792506254503702,0.4189196061666655,-110.2090453163982,36.84696500021493,-139.34724766521597,0
1767651564.168685,1,left_wrist,0.9926,0.102,0.0454,10.57,1.96,-0.49,-0.47473486074226484,0.4684657845910583,0.5053798321796366,0.5475014574314747,65.16409710913914,-83.12719309412691,-157.2221077052376,0
1767651564.168685,2,right_wrist,1.3205,0.2952,-0.1937,118.65,-289.52,114.45,-0.5513272386782809,0.09178033799255116,-0.7139790199888421,0.4217210031112132,-92.96065067040874,45.22358838149659,-122.1905926187006,0
1767651564.232574,1,left_wrist,0.9882,0.1044,0.0415,8.19,3.15,-0.98,-0.4775957058803583,0.4670806175061469,0.5104469694678475,0.5414627686515567,68.24061391031272,-83.407643603479,-159.41718521107805,0
1767651564.232574,2,right_wrist,1.3205,0.2952,-0.1937,118.65,-289.52,114.45,-0.6600622665997797,0.08100286059355434,-0.6203655435136979,0.4158159847910813,-70.7777658356714,48.72874905090392,-100.08557235968269,0
1767651564.285146,1,left_wrist,0.9965,0.1118,0.02,11.06,3.36,-0.91,-0.4783756041311989,0.4650955841672605,0.5147590458481024,0.5383920538768903,71.10213082899007,-83.3657456169522,-161.6963115198932,0
1767651564.285146,2,right_wrist,1.3205,0.2952,-0.1937,118.65,-289.52,114.45,-0.755511977693792,0.06867023377833946,-0.5133117102550071,0.4012444874002919,-48.04530369840051,46.097361984626296,-77.42034084887537,0
1767651564.337009,1,left_wrist,0.9882,0.0961,0.0337,10.78,4.13,-1.47,-0.48295577953526975,0.46465176871674446,0.5151538933999513,0.5342929111982982,69.78918706357523,-83.78009953454664,-159.83710000390303,0
1767651564.337009,2,right_wrist,1.3205,0.2952,-0.1937,118.65,-289.52,114.45,-0.8355671125014088,0.05504307458395642,-0.39467622705692634,0.3781911371813367,-29.780727364562257,38.16464419821154,-59.21556305356094,0
1767651564.417244,1,left_wrist,0.9882,0.0961,0.0337,10.78,4.13,-1.47,-0.48637199639935086,0.464182705177244,0.5167097181093097,0.5300827902735983,69.9723221973821,-84.11897299431493,-159.4665224443041,0
1767651564.417244,2,right_wrist,1.3205,0.2952,-0.1937,118.65,-289.52,114.45,-0.9419110068190082,0.024931252413806355,-0.13157375825201134,0.30801044466985594,-7.563524623427425,13.44450053548654,-37.10886559520776,0
1767651564.481961,1,left_wrist,0.9911,0.1171,0.0303,7.49,3.71,-1.05,-0.486306150844239,0.4570171182400452,0.5240751944436928,0.5291378571368998,73.3358890710929,-83.39966739453729,-161.9454804773533,0
1767651564.481961,2,right_wrist,1.3205,0.2952,-0.1937,118.65,-289.52,114.45,-0.9649965671536879,0.008940997799459185,0.006945446783527292,0.26201802363372806,-0.7803140530582887,-1.0365411879420718,-30.374612089920355,0
1767651564.5362492,1,left_wrist,1.0048,0.1235,0.021,8.89,3.08,-1.61,-0.48557245892945655,0.45389294687725945,0.5287012899760487,0.5278972683031617,76.16545681830547,-83.05527665919976,-164.30078199432856,0
1767651564.5362492,2,right_wrist,1.3205,0.2952,-0.1937,118.65,-289.52,114.45,-0.9668074924240911,-0.007251112750133805,0.14532714642020994,0.21002550909326362,4.481959229459932,-16.138543114532116,-25.148309363829526,0
1767651564.588887,1,left_wrist,1.0014,0.1171,0.0288,11.2,3.71,-1.75,-0.4900211202328307,0.4533871698226147,0.5293425302336419,0.5235607525892743,75.48105128853173,-83.47859499305437,-163.04668519650807,0
1767651564.588887,2,right_wrist,1.3205,0.2952,-0.1937,118.65,-289.52,114.45,-0.9473327421395132,-0.023263862234260083,0.28020310718078206,0.1533156453549703,8.777721208901678,-31.58465168044923,-20.87305065343585,0
1767651564.639322,1,left_wrist,1.0024,0.1371,0.0254,12.81,3.22,-1.26,-0.4901825443589355,0.4472300589844188,0.5344578685524133,0.5235084854030586,76.680122506103,-82.84889526182239,-163.58537333025225,0
1767651564.639322,2,right_wrist,1.3205,0.2952,-0.1937,118.65,-289.52,114.45,-0.9071221106685018,-0.03873813539835589,0.40856650952926155,0.09328580006226467,12.458118747579595,-47.22379661142131,-17.206297094423796,0
1767651564.7212548,1,left_wrist,1.0429,0.2001,0.0093,13.16,-4.34,-1.89,-0.48827105029574663,0.4430166118277864,0.5416252808013942,0.5215071603386937,81.08339936610359,-82.30400367151113,-167.32869273012398,0
1767651564.7212548,2,right_wrist,1.3205,0.2952,-0.1937,118.65,-289.52,114.45,-0.7689573784070004,-0.0669719796425719,0.6350396300249895,-0.030724134388329872,19.125948898750543,-78.74026837578084,-11.165010664699457,0
1767651564.78482,1,left_wrist,1.0009,0.2333,-0.0185,25.76,-11.76,-1.05,-0.4850962686723163,0.43258643192383506,0.5640284091321198,0.5093353931620022,93.88539939835715,-81.07021776695342,-177.72145917635189,0
1767651564.78482,2,right_wrist,1.3205,0.2952,-0.1937,118.65,-289.52,114.45,-0.6744026139935563,-0.07966524528471125,0.7283697488958217,-0.091170564470243,-161.02167321701944,-85.52771999877766,174.90875334433548,0
1767651564.8691258,1,left_wrist,1.0009,0.2333,-0.0185,25.76,-11.76,-1.05,-0.48398199348955906,0.4268976848384528,0.5747912584625319,0.5031250399776382,98.69318170571276,-80.38181868096875,178.71490063569846,0
1767651564.8691258,2,right_wrist,1.3205,0.2952,-0.1937,118.65,-289.52,114.45,-0.4507688887584992,-0.10097984544972712,0.8637965237200015,-0.20116173927866607,-153.42179761526768,-55.021953971250795,179.3100674138326,0
1767651564.921251,1,left_wrist,0.9965,0.1244,-0.0512,-6.44,-31.22,11.13,-0.47812960985335556,0.4409093353607635,0.5775248447209433,0.49341269532031495,110.64483200226886,-80.8819686441213,166.33338146232202,0
1767651564.921251,2,right_wrist,1.3205,0.2952,-0.1937,118.65,-289.52,114.45,-0.32528992266879264,-0.1069131513215045,0.9052505156217427,-0.25155028970606463,-149.75544218032806,-39.99537780226094,-177.76227315127542,0
1767651564.9834418,1,left_wrist,0.8369,-0.0488,-0.0444,-26.74,-39.13,20.09,-0.4661542816919005,0.47500924355586266,0.5738318273913395,0.4772666320512167,136.31985255932128,-81.26467854026183,138.72183691680516,0
1767651564.9834418,2,right_wrist,1.3205,0.2952,-0.1937,118.65,-289.52,114.45,-0.1931234266953065,-0.11032775013150203,0.9285791448307719,-0.297105875737482,-145.7878486342831,-25.101227182285886,-174.28728771410272,0
1767651565.034236,1,left_wrist,1.1375,-0.0961,-0.0654,-42.7,5.18,14.42,-0.4645436909252117,0.4879441307336407,0.5581860903859958,0.48429120682061766,138.68383574099738,-82.4009604682013,134.21596526981043,0
1767651565.034236,2,right_wrist,1.3205,0.2952,-0.1937,118.65,-289.52,114.45,-0.05685145057701259,-0.11135355077318629,0.9332468423515115,-0.33677682601156805,-141.22319560131612,-10.434739179158324,-170.07264735864732,0
1767651565.084831,1,left_wrist,1.0102,0.0,-0.0034,0.7,17.57,12.18,-0.47441741755582917,0.4870740634050651,0.5494908144199665,0.4855376561563672,137.64419202139572,-83.91278141036737,135.29935702445832,0
1767651565.084831,2,right_wrist,1.3205,0.2952,-0.1937,118.65,-289.52,114.45,0.08081430845804626,-0.1100584855920773,0.919065676058585,-0.36969509110698595,-135.6599600932837,3.851523454092076,-164.77272944040698,0
1767651565.167348,1,left_wrist,0.9648,0.1122,-0.0532,45.57,25.48,-2.73,-0.48854123181947734,0.46845538470979325,0.5550000352237809,0.483582442040971,124.80240641420554,-84.47506937162736,150.44829126499934,0
1767651565.167348,2,right_wrist,1.3205,0.2952,-0.1937,118.65,-289.52,114.45,0.34928380349751414,-0.10083072012412514,0.8352339073199541,-0.4125752180592076,-118.68138998212495,30.01765551236723,-148.1711675550911,0
1767651565.219188,1,left_wrist,1.018,-0.0264,-0.0576,59.15,5.39,-12.04,-0.5017343009549047,0.45429790433893,0.566431528562162,0.4701397970915487,125.3668049199307,-84.6008150207961,152.8844879878776,0
1767651565.219188,2,right_wrist,1.3205,0.2952,-0.1937,118.65,-289.52,114.45,0.4746430237250384,-0.09313854870648837,0.7670140685117854,-0.42157873461430634,-104.78115417019895,40.51034184257335,-134.41395314033568,0
1767651565.271214,1,left_wrist,0.9599,-0.0298,-0.1254,25.06,9.52,-7.14,-0.5079851770421828,0.44813895630860845,0.5706720547852875,0.46417231889804766,125.42906854782227,-84.75523682155972,154.1229020756819,0
1767651565.271214,2,right_wrist,1.3205,0.2952,-0.1937,118.65,-289.52,114.45,0.5906126110692715,-0.08361642975968012,0.6827645055190495,-0.4219213982763968,-85.45234854684621,47.38666512433744,-115.20910673168244,0
1767651565.334257,1,left_wrist,1.0912,0.1049,0.0,24.15,-27.86,-6.65,-0.5090919601467596,0.43337443532001857,0.5920811343763277,0.449946558205112,129.9718196954644,-83.13865238681456,152.55754500588165,0
1767651565.334257,2,right_wrist,1.3205,0.2952,-0.1937,118.65,-289.52,114.45,0.6947743826990668,-0.07247705789224845,0.5839772812125558,-0.41352892069600844,-62.2239231795613,48.72240737066907,-92.09105935315867,0
1767651565.4211829,1,left_wrist,1.0912,0.1049,0.0,24.15,-27.86,-6.65,-0.5069198898129934,0.43022232101287017,0.6024186200966356,0.44162516456283024,135.02655288671218,-82.20089810368556,148.64466517504223,0
1767651565.4211829,2,right_wrist,1.3205,0.2952,-0.1937,118.65,-289.52,114.45,0.8589382164167395,-0.04633663316208154,0.34991203105010343,-0.3709981500390865,-24.314055328332994,34.52209627589415,-54.38047247114769,0
1767651565.485732,1,left_wrist,0.8979,0.0605,-0.2572,-58.24,-73.22,-7.42,-0.45328569391117796,0.4688924144787679,0.6252226972267532,0.42868235584432085,153.39442636722512,-75.65485618043844,127.06860260273028,0
1767651565.485732,2,right_wrist,1.3205,0.2952,-0.1937,118.65,-289.52,114.45,0.9150166746012685,-0.03184462540300889,0.21881508573238329,-0.33741719471673054,-12.85815242092947,22.268599944331868,-43.024355850186936,0
1767651565.568307,1,left_wrist,0.8774,0.1069,-0.2416,36.4,15.05,-36.96,-0.45543699160633877,0.4497987456435625,0.6384117894565281,0.427420895812265,148.2445451374892,-75.02074100493968,134.2992304618168,0
1767651565.568307,2,right_wrist,1.3205,0.2952,-0.1937,118.65,-289.52,114.45,0.9670045057131339,-0.001215536509478425,-0.05710678259559672,-0.24827328447312005,1.4994391459656047,-6.375766434659746,-28.882265090890588,0
1767651565.63326,1,left_wrist,0.8594,0.2425,-0.0376,33.53,62.09,-10.78,-0.48854771986750983,0.40706768878464744,0.6350769019346202,0.43851379771782245,130.92445595263843,-77.83378690539354,155.14910883724656,0
1767651565.63326,2,right_wrist,1.3205,0.2952,-0.1937,118.65,-289.52,114.45,0.9612342524241813,0.0143081896334026,-0.1947681308461422,-0.1946519018212767,6.382790832567731,-21.64565839354576,-24.11685326799126,0
1767651565.687497,1,left_wrist,0.9697,0.2586,-0.1532,-5.88,51.87,-5.88,-0.49773916880411206,0.39418134007567507,0.6259025664017112,0.45290481157312557,118.37136613505312,-78.55790657920595,167.60513166972325,0
1767651565.687497,2,right_wrist,1.3205,0.2952,-0.1937,118.65,-289.52,114.45,0.9343396560266097,0.029492457276807018,-0.32779736059124404,-0.13670586135666063,10.468086448550357,-37.19176051605639,-20.178860865321294,0
1767651565.7667909,1,left_wrist,0.9697,0.2586,-0.1532,-5.88,51.87,-5.88,-0.5063894115612982,0.38236026490295594,0.6171238683398622,0.4653262541563583,106.12379630583915,-78.77035443138273,179.8073732016312,0
1767651565.7667909,2,right_wrist,1.3205,0.2952,-0.1937,118.65,-289.52,114.45,0.8204927521973273,0.057603426198853204,-0.5685844230496084,-0.013610391146195226,17.599447726131217,-68.66525665404707,-13.971466451901557,0
1767651565.8194308,1,left_wrist,0.9492,0.4006,-0.1103,26.39,36.82,0.91,-0.5177694489872174,0.36688449845456284,0.6165426282123241,0.4660319196002107,98.60211671583711,-78.6413734399861,-171.1812059199197,0
1767651565.8194308,2,right_wrist,1.3205,0.2952,-0.1937,118.65,-289.52,114.45,0.7362943153630985,0.07016590351694667,-0.6712734869617633,0.048366650182039644,23.34810787537927,-84.44106529976432,-13.720963386211327,0
1767651565.887008,1,left_wrist,1.0746,0.4895,-0.2445,56.0,23.8,6.65,-0.5440406184700387,0.3328093485561759,0.6314550173027408,0.4410468275495776,95.56708115128657,-78.70839877239636,-162.2827645216354,0
1767651565.887008,2,right_wrist,1.3205,0.2952,-0.1937,118.65,-289.52,114.45,0.6367371579011688,0.08210590704425538,-0.759079289017302,0.10781022568091309,-160.38648704128715,-79.8571299700647,175.88276728436142,0
1767651565.967874,1,left_wrist,0.5031,-0.3758,0.3489,12.74,-0.28,42.35,-0.5561683570023289,0.34243241962779725,0.6255516073955104,0.4267340895007985,96.39599461613642,-81.14430128780522,-162.5151779585934,0
1767651565.967874,2,right_wrist,1.3205,0.2952,-0.1937,118.65,-289.52,114.45,0.4067921285561773,0.10019011699635731,-0.8818119673493489,0.21654043234569814,-152.42787706266452,-49.5364309453532,-179.95375459488153,0
1767651566.0189261,1,left_wrist,1.2854,-0.1078,-0.0239,-87.01,18.83,25.48,-0.5546971474784481,0.36975414830679854,0.5987835720240515,0.44390446974918385,85.53487894624378,-83.00562765742724,-155.93272167283385,0
1767651566.0189261,2,right_wrist,1.3205,0.2952,-0.1937,118.65,-289.52,114.45,0.27880911870780634,0.10477118279364432,-0.9168546004409946,0.2658309918568211,-148.61186885662656,-34.538348306380456,-176.94594352509372,0
1767651566.069382,1,left_wrist,0.9194,0.2377,0.0078,12.6,25.97,12.81,-0.5637342055809583,0.3619896626813617,0.5947141395160567,0.4443898309249617,75.76348963069107,-82.86232827492299,-145.44594979496748,0
1767651566.069382,2,right_wrist,1.3205,0.2952,-0.1937,118.65,-289.52,114.45,0.1450365308410628,0.1069742637538086,-0.9335199168489278,0.30993785903353405,-144.43103449018432,-19.700272068311353,-173.30130443394086,0
1767651566.1200051,1,left_wrist,0.9921,0.063,0.0093,44.8,22.4,-0.21,-0.5774515510654348,0.34986659268122167,0.5971232158085241,0.4331130783528042,69.60775854980044,-83.06465784740067,-136.9831538397839,0
1767651566.1200051,2,right_wrist,1.3205,0.2952,-0.1937,118.65,-289.52,114.45,0.008111743452775913,0.1068976050204316,-0.9313921550709693,0.34787318829037067,-139.5426667723552,-5.133925557347184,-168.79833846865174,0
1767651566.187447,1,left_wrist,1.0102,-0.1654,-0.1044,19.18,19.32,-8.4,-0.5967521227972613,0.3301734303459496,0.5997680237992847,0.41851012826268774,59.92043980794579,-82.83337136488204,-123.99030876065558,0
1767651566.187447,2,right_wrist,1.3205,0.2952,-0.1937,118.65,-289.52,114.45,-0.1292309137007929,0.10461163042865868,-0.910415046789167,0.3788142292773532,-133.4741548225968,8.9777436091488,-163.02431245516175,0
1767651566.267277,1,left_wrist,0.9921,-0.1039,0.0034,8.54,9.45,-2.31,-0.6011623030188322,0.32911364845703456,0.5983476575505475,0.41505201183968016,56.309015757711116,-83.02851251638991,-119.93923301610107,0
1767651566.267277,2,right_wrist,1.3205,0.2952,-0.1937,118.65,-289.52,114.45,-0.3941451981455408,0.0937864347472372,-0.8135162975183183,0.41718688990463426,-114.38522641657006,34.265889722131234,-144.3682749659105,0
1767651566.321321,1,left_wrist,0.9921,-0.1039,0.0034,8.54,9.45,-2.31,-0.6054380189084438,0.3280664521009164,0.5970048785314032,0.41158520779522784,52.637538238537715,-83.19419153818268,-115.83089106669766,0
1767651566.321321,2,right_wrist,1.3205,0.2952,-0.1937,118.65,-289.52,114.45,-0.5163299998274333,0.08551561573586457,-0.7392748509338639,0.4237488708188284,-98.56635848437816,43.70498231510738,-128.71914462003437,0
1767651566.3842828,1,left_wrist,1.058,0.3201,-0.1484,-10.85,-2.45,1.96,-0.606388984642879,0.32741235988703166,0.5963200275804993,0.4116988834128358,51.61533454241455,-83.11769542511396,-114.760004304314,0
1767651566.3842828,2,right_wrist,1.3205,0.2952,-0.1937,118.65,-289.52,114.45,-0.6282609081711681,0.07557812273593198,-0.6494937344327905,0.421585184227576,-77.29358218898746,48.796773361417785,-107.5974162922958,0
1767651566.468964,1,left_wrist,1.058,0.3201,-0.1484,-10.85,-2.45,1.96,-0.6016599864993335,0.330400557461207,0.5977778203585882,0.4141284942651027,55.516115160704466,-83.20438229431632,-119.17448511009866,0
1767651566.468964,2,right_wrist,1.3205,0.2952,-0.1937,118.65,-289.52,114.45,-0.8121452009588644,0.051615545620054874,-0.4298720089300296,0.3911087623005787,-33.90301879175386,41.137049840140236,-64.4786184374007,0
1767651566.536948,1,left_wrist,0.9799,0.0054,-0.019,3.92,10.22,-2.38,-0.6048061256569504,0.3240065389133299,0.6003141882624439,0.4109162791616279,55.66505479216947,-82.94397908572167,-118.41753603555577,0
1767651566.536948,2,right_wrist,1.3205,0.2952,-0.1937,118.65,-289.52,114.45,-0.8799580754516463,0.03809176088353569,-0.3038646618226423,0.36316534869896044,-19.502994307425187,30.47146019112654,-50.212506234611745,0
1767651566.616939,1,left_wrist,1.0019,0.0981,0.0054,15.47,8.4,2.73,-0.6077233198040548,0.32053678940197167,0.6026876751785828,0.40582767204079306,55.6532732230097,-83.0727572765435,-117.58899065356556,0
1767651566.616939,2,right_wrist,1.3205,0.2952,-0.1937,118.65,-289.52,114.45,-0.958301638540473,0.00913097498355549,-0.031917857525862466,0.28382361641951637,-2.0444322632891403,3.2097092100161713,-33.05307942170762,0
1767651566.66802,1,left_wrist,0.9853,0.1752,-0.04,5.25,3.92,0.0,-0.6067621439732477,0.31809133031352677,0.6054597514956417,0.4050630760007563,58.323756930356225,-82.94757133332367,-119.96037512889444,0
1767651566.66802,2,right_wrist,1.3205,0.2952,-0.1937,118.65,-289.52,114.45,-0.9663075064965043,-0.00580175832771496,0.10719915662408616,0.2339326469475774,3.594326924583983,-11.797904903014295,-27.589220681858833,0
1767651566.735322,1,left_wrist,0.9945,0.1523,-0.06,8.33,3.43,-0.84,-0.6055598823475699,0.31272534120745554,0.6122186456783157,0.4008596010346849,63.95149338506804,-82.83359226249713,-124.68976793852953,0
1767651566.735322,2,right_wrist,1.3205,0.2952,-0.1937,118.65,-289.52,114.45,-0.9530120559657393,-0.020595775399586777,0.24370155757584624,0.17875510077967202,8.169296965226552,-27.20257152704646,-23.226613579353508,0
1767651566.81934,1,left_wrist,0.9902,0.0913,-0.0034,16.03,2.52,-0.84,-0.6067213788733422,0.3097711780405899,0.616285468926758,0.39512429242341146,66.43596383622572,-83.0363995906998,-126.35104811007525,0
1767651566.81934,2,right_wrist,1.3205,0.2952,-0.1937,118.65,-289.52,114.45,-0.8646001114474022,-0.048456934836439446,0.4967343056756474,0.05808271960169659,15.746715063388427,-58.57507343915452,-16.55696072164997,0
1767651566.869803,1,left_wrist,0.9804,0.0859,0.0049,0.0,1.12,3.01,-0.6063063931896762,0.3126534475044027,0.6171291185220081,0.3921632700970181,67.8052667278561,-83.49453659158063,-127.69744073276044,0
1767651566.869803,2,right_wrist,1.3205,0.2952,-0.1937,118.65,-289.52,114.45,-0.7916693842639535,-0.061026445616621246,0.6078781423941163,-0.004418478698876052,19.79619322800417,-74.36887056032894,-14.44162202222758,0
1767651566.9368892,1,left_wrist,0.9887,0.1157,0.0478,7.7,8.96,1.96,-0.6097382988817782,0.305318656492717,0.6166871968769023,0.39331491973016514,64.84715676905573,-82.84294804717105,-124.1831814545796,0
1767651566.9368892,2,right_wrist,1.3205,0.2952,-0.1937,118.65,-289.52,114.45,-0.7017921630753338,-0.0726404588546978,0.7055837704301775,-0.06605048439608688,125.54248345438256,-89.38394589591613,-114.28631352702526,0
1767651567.0172641,1,left_wrist,0.9843,0.0839,0.0307,10.99,11.55,0.98,-0.6141923414015378,0.30372633014565154,0.6159820435871752,0.38869551852075557,61.833011607997484,-83.10939792747746,-120.58026839561386,0
1767651567.0172641,2,right_wrist,1.3205,0.2952,-0.1937,118.65,-289.52,114.45,-0.4845034287167154,-0.09292394611479973,0.8511407229722754,-0.17939073972318811,-155.20631181055816,-59.10398130859594,178.25366361532787,0
1767651567.0712562,1,left_wrist,0.9843,0.0839,0.0307,10.99,11.55,0.98,-0.6180415993071837,0.30173093568838544,0.6158011930142409,0.38441112712390074,59.36931165335656,-83.29426503687165,-117.52633121905819,0
1767651567.0712562,2,right_wrist,1.3205,0.2952,-0.1937,118.65,-289.52,114.45,-0.3617033169668888,-0.09868044857419274,0.8975981534117619,-0.2318413995733751,-151.3391735206654,-44.03398186465309,-179.24803150683005,0
1767651567.136107,1,left_wrist,1.0116,0.0956,0.0454,9.94,2.24,-0.28,-0.6221179229716755,0.2998363021366606,0.6175208199187061,0.3764777799623111,57.9516883738706,-83.77563664096343,-115.1831151956669,0
1767651567.136107,2,right_wrist,1.3205,0.2952,-0.1937,118.65,-289.52,114.45,-0.23152268687068175,-0.10199749711304557,0.9260889113445585,-0.27991620948331125,-147.37365619364468,-29.072942352202848,-176.1093232234559,0
1767651567.218911,1,left_wrist,0.998,0.0683,0.0737,9.8,5.95,-0.77,-0.6275784620648197,0.29756572719968805,0.6148643961417349,0.37355278918211304,52.125161364366825,-83.75420159504576,-108.87748986195828,0
1767651567.218911,2,right_wrist,1.3205,0.2952,-0.1937,118.65,-289.52,114.45,0.04075129905086308,-0.10195614891210293,0.9270137626393345,-0.35859414273234264,-137.68895404275582,0.13935920089247664,-167.3933501623563,0
1767651567.286411,1,left_wrist,1.0077,0.0659,0.0444,8.12,4.9,-1.82,-0.6333898294506868,0.2946095145223247,0.6143816361783585,0.3668211594607829,47.32503403331105,-83.94666770637323,-103.18022871551355,0
1767651567.286411,2,right_wrist,1.3205,0.2952,-0.1937,118.65,-289.52,114.45,0.1774179201622696,-0.0987591549556474,0.8992366465298002,-0.387482856982835,-131.02276500813406,14.036881724155245,-161.0460980656194,0
1767651567.33658,1,left_wrist,1.0238,0.0805,0.0429,12.32,3.01,-1.26,-0.6334383610018566,0.29146670222523724,0.6180365359365522,0.36308930658003874,50.25304027109607,-84.0612039490538,-105.47466501376238,0
1767651567.33658,2,right_wrist,1.3205,0.2952,-0.1937,118.65,-289.52,114.45,0.3107651684522144,-0.09356898329630665,0.8531023199489698,-0.40851718095992956,-122.06515613808607,26.98645814891504,-152.34889878341477,0
1767651567.419012,1,left_wrist,1.0067,0.0571,0.0293,12.95,1.4,-2.45,-0.6338140589604208,0.28937065616458524,0.6215140508765996,0.3581405402603191,52.5742953445969,-84.3369491766854,-107.14459692714797,0
1767651567.419012,2,right_wrist,1.3205,0.2952,-0.1937,118.65,-289.52,114.45,0.5567694027266642,-0.07776350462837273,0.7092811512430726,-0.42530097346068757,-91.51559693856053,46.35801229183997,-122.21538002083045,0
1767651567.487968,1,left_wrist,1.0038,0.06,0.0239,9.17,1.12,-1.4,-0.6345148501989039,0.28749928885757514,0.6270293982773039,0.3486677465431145,56.262420884630586,-85.0050577259657,-109.78388688186301,0
1767651567.487968,2,right_wrist,1.3205,0.2952,-0.1937,118.65,-289.52,114.45,0.664356251735484,-0.06751121931656989,0.6141436966030779,-0.42059544216393346,-68.68793133401046,49.396414951977505,-99.5651165886515,0
1767651567.568497,1,left_wrist,1.0024,0.082,0.0322,9.45,0.77,-0.98,-0.6331470935645193,0.28429599444421505,0.6310831208085705,0.3464601565610277,61.58260677453202,-84.95853136243856,-114.61412464414047,0
1767651567.568497,2,right_wrist,1.3205,0.2952,-0.1937,118.65,-289.52,114.45,0.8372988144186575,-0.043439579037029025,0.3857336451807452,-0.385036690877339,-27.89189547255323,37.77027098357576,-59.10235270926849,0
1767651567.6211169,1,left_wrist,0.995,0.0864,0.0381,11.76,1.54,-1.26,-0.6323128425657843,0.27812767288297274,0.6350117608110318,0.34581140862434295,66.07118078777867,-84.50923128145351,-118.49578766097045,0
1767651567.6211169,2,right_wrist,1.3205,0.2952,-0.1937,118.65,-289.52,114.45,0.8986404346422083,-0.030110910195035548,0.2564827420617333,-0.35461994492383503,-15.235097614264363,26.079361753313105,-46.618414924880014,0
1767651567.6861608,1,left_wrist,0.9931,0.0893,0.0332,10.78,3.57,-0.35,-0.6338611718316018,0.2707543068856017,0.6395766722722818,0.34037303129402013,69.05678205750516,-84.33761893278637,-120.32981034817237,0
1767651567.6861608,2,right_wrist,1.3205,0.2952,-0.1937,118.65,-289.52,114.45,0.9408279227514339,-0.016215254621386243,0.12057697811879341,-0.31629270879444193,-6.279815751306346,12.510988072462863,-37.85283937531036,0
1767651567.7743738,1,left_wrist,1.0004,0.0678,0.0166,7.98,3.29,0.0,-0.6352447586340378,0.2710585894050372,0.6406034437113485,0.33558689730514724,69.3168318298358,-84.75153710114823,-120.17751769478338,0
1767651567.7743738,2,right_wrist,1.3205,0.2952,-0.1937,118.65,-289.52,114.45,0.9628863634147196,0.012310860935318012,-0.15727397609687083,-0.21900500061799666,5.5656546527934205,-17.306408015691403,-26.475115723878716,0
1767651567.8343658,1,left_wrist,1.0009,0.0771,0.0093,8.82,1.75,-0.63,-0.635835804649961,0.2696646152928054,0.6448330459294558,0.32738993213209827,73.86383261448496,-85.26478480821454,-123.85419351398669,0
1767651567.8343658,2,right_wrist,1.3205,0.2952,-0.1937,118.65,-289.52,114.45,0.9421068954477386,0.026308739688315572,-0.29219828475166215,-0.16236566802751984,9.898201590327892,-32.82130735151271,-22.478790113554687,0
1767651567.885221,1,left_wrist,0.9989,0.0888,0.0312,8.68,2.1,-0.42,-0.6380926969607937,0.2639997519884672,0.6445734434806661,0.32812637351301854,70.99102252985433,-84.77564080318876,-120.55061032992265,0
1767651567.885221,2,right_wrist,1.3205,0.2952,-0.1937,118.65,-289.52,114.45,0.900712759444276,0.03970722806267021,-0.4203468146334076,-0.10221749576958324,13.750724641834344,-48.51299019210431,-19.168958761506506,0
1767651567.967399,1,left_wrist,0.9999,0.0878,0.0322,8.12,1.89,-0.98,-0.6408664981571527,0.2590563884925723,0.6436281557382182,0.32851592999730417,67.69583981390612,-84.36508230230791,-116.8578333682796,0
1767651567.967399,2,right_wrist,1.3205,0.2952,-0.1937,118.65,-289.52,114.45,0.7606321141611851,0.06380843397350906,-0.6456453068440792,0.02257007777454632,23.24453070396177,-80.08937688041487,-16.214745482035607,0
1767651568.025095,1,left_wrist,0.9853,0.0844,0.0312,8.96,3.64,-0.35,-0.6419367557416401,0.25861088739460825,0.6451080713423823,0.32384129884525664,68.4342334320543,-84.70635423841493,-117.13249652663642,0
1767651568.025095,2,right_wrist,1.3205,0.2952,-0.1937,118.65,-289.52,114.45,0.6653953080738358,0.07459605723528322,-0.7380367877248549,0.08358356419208882,-166.51635043595203,-84.06644143774164,179.37758924708982,0
1767651568.0869918,1,left_wrist,1.0019,0.0747,0.0298,7.84,3.71,17.5,-0.649965959788416,0.25957070667501625,0.6426298550370174,0.3117597933789055,58.1529398403176,-85.72863447149675,-105.84403078088928,0
1767651568.0869918,2,right_wrist,1.3205,0.2952,-0.1937,118.65,-289.52,114.45,0.5581473320502496,0.08519931220514747,-0.8133215886648425,0.14043014753483343,-158.44466289521708,-68.72279200631945,177.12950801259257,0
1767651568.1370099,1,left_wrist,1.0019,0.0747,0.0298,7.84,3.71,17.5,-0.651589481739663,0.26037682784096683,0.6433442797571534,0.3061751010671218,56.164131730871446,-86.22869518843828,-103.4242544660519,0
1767651568.1370099,2,right_wrist,1.3205,0.2952,-0.1937,118.65,-289.52,114.45,0.441398258661023,0.09228388510957673,-0.8709204221725789,0.1953173828486238,-154.14956977464448,-53.60009771460694,178.8720364303549,0
1767651568.216964,1,left_wrist,1.0077,0.0771,0.0112,11.76,2.03,-1.75,-0.6505650476648247,0.255375698948049,0.6472506927209424,0.30432698190584456,62.79772190504528,-86.02367335466224,-109.45542643641028,0
1767651568.216964,2,right_wrist,1.3205,0.2952,-0.1937,118.65,-289.52,114.45,0.18380405144311976,0.09879603078195177,-0.9328885413268595,0.2935547383979191,-146.06705433272523,-23.637047692330313,-175.2150196410078,0
1767651568.2709372,1,left_wrist,0.9897,0.059,0.0303,9.31,3.22,-0.35,-0.6523085973375,0.25544273283451296,0.6479480213185115,0.29900813659672293,61.189952433831095,-86.45175624539256,-107.37835139943456,0
1767651568.2709372,2,right_wrist,1.3205,0.2952,-0.1937,118.65,-289.52,114.45,0.0478307240452023,0.09877745649882332,-0.935992913266502,0.33447347015842854,-141.3702273203903,-8.952484226209524,-171.09482656538088,0
1767651568.3320682,1,left_wrist,0.9999,0.0825,0.042,11.55,1.05,-0.14,-0.6547545346927051,0.24203776200511762,0.6500767692302535,0.30019063138287466,62.835537346382225,-85.27140028115024,-107.9666227774244,0
1767651568.3320682,2,right_wrist,1.3205,0.2952,-0.1937,118.65,-289.52,114.45,-0.08935615317205924,0.09670126360345699,-0.9201828223876743,0.3686840339510788,-135.66653520628262,5.344480435481113,-165.8229651368632,0
1767651568.383308,1,left_wrist,0.9999,0.0825,0.042,11.55,1.05,-0.14,-0.6562807378581299,0.23524831008068087,0.651006214646563,0.3002411267833332,63.085368414909276,-84.7145437910766,-107.63523501855343,0
1767651568.383308,2,right_wrist,1.3205,0.2952,-0.1937,118.65,-289.52,114.45,-0.22500181035449257,0.09265429011713307,-0.8856687941642685,0.39544930762830016,-128.29326268878347,18.98217688824694,-158.7924421410598,0
1767651568.469337,1,left_wrist,0.9984,0.0742,0.0395,12.32,4.06,-2.03,-0.6589342028597922,0.23408655801176717,0.6513957756949306,0.29443631410974686,60.91319860783965,-85.07042913400647,-104.84666326049388,0
1767651568.469337,2,right_wrist,1.3205,0.2952,-0.1937,118.65,-289.52,114.45,-0.4807677845703615,0.07912590706793539,-0.7631721159675577,0.4244640733437677,-103.76740661412012,41.80864364617267,-134.79846425615665,0
1767651568.521153,1,left_wrist,0.9911,0.0732,0.0224,13.23,6.02,-1.33,-0.6596471233762279,0.23019532536059326,0.6538218647827577,0.2905043096678525,62.85800025904898,-85.08900924753198,-106.10780501697873,0
1767651568.521153,2,right_wrist,1.3205,0.2952,-0.1937,118.65,-289.52,114.45,-0.5956549837331371,0.06996367613197606,-0.6773505980660143,0.42602393321923726,-83.72704612255868,48.358940892136815,-114.9797080842927,0
1767651568.5848389,1,left_wrist,1.0165,0.0581,0.0181,10.85,3.29,-1.26,-0.6615147706484525,0.22622811568750104,0.6576529692769586,0.2805559122307129,64.9188102418373,-85.58570263110121,-106.94931666433318,0
1767651568.5848389,2,right_wrist,1.3205,0.2952,-0.1937,118.65,-289.52,114.45,-0.6986270069832154,0.059469166515717264,-0.5770798600591414,0.4187631293007084,-60.01018465164895,49.1583760582708,-91.46919380941632,0
1767651568.669294,1,left_wrist,1.0165,0.0581,0.0181,10.85,3.29,-1.26,-0.6621237084227957,0.22481008557924348,0.6595976152306677,0.2756512400630805,66.41669069073214,-85.87444607880934,-107.89439235829506,0
1767651568.669294,2,right_wrist,1.3205,0.2952,-0.1937,118.65,-289.52,114.45,-0.8601646406657315,0.03542848333721199,-0.34041093719924204,0.3781296171314162,-22.577340759169825,33.97463180865784,-54.439852026411494,0
1767651568.723007,1,left_wrist,0.9975,0.0722,0.019,10.36,0.98,-0.49,-0.6607239867281837,0.22091488352211017,0.6632563960869875,0.2733704092438111,72.29168531887875,-85.74368016542155,-113.23618990652248,0
1767651568.723007,2,right_wrist,1.3205,0.2952,-0.1937,118.65,-289.52,114.45,-0.9148352572826097,0.02235427151781795,-0.2082621635220361,0.3452587577784085,-11.446276435968937,21.445443375238153,-43.52748033794116,0
1767651568.781973,1,left_wrist,0.8784,0.0708,0.0322,11.06,1.82,-0.42,-0.6650130065810004,0.21028997354256093,0.6627875346768735,0.2724858014328812,67.9699445237889,-84.95551304124771,-107.93152426312422,0
1767651568.781973,2,right_wrist,1.3205,0.2952,-0.1937,118.65,-289.52,114.45,-0.9498159912552118,0.008852046684672814,-0.07060630771608731,0.30460790097447055,-3.4588762011133527,7.39639455733358,-35.78593467504974,0
1767651568.833765,1,left_wrist,1.0097,0.0844,0.0508,12.39,-1.68,-1.33,-0.6676690783820846,0.20547985329508384,0.6625294525470766,0.27027903390740365,65.78490850466017,-84.73107530877745,-105.14511073091467,0
1767651568.833765,2,right_wrist,1.3205,0.2952,-0.1937,118.65,-289.52,114.45,-0.9639411493735301,-0.0048448270032105355,0.06895019143645191,0.2569822159150766,2.5885906504588805,-7.49489094947509,-30.0247811490554,0
1767651568.886708,1,left_wrist,1.0121,0.1249,0.0312,13.93,-1.4,-0.63,-0.6665849068635105,0.19824987053504894,0.6662547244755905,0.2691954548066453,70.40687062448627,-84.24891169683985,-109.05982146338864,0
1767651568.886708,2,right_wrist,1.3205,0.2952,-0.1937,118.65,-289.52,114.45,-0.9568007969561861,-0.01843187433308604,0.20681276672587384,0.20352144966014182,7.447718573534076,-22.845943784546083,-25.523729311358974,0
1767651568.971318,1,left_wrist,1.0375,0.1581,0.0127,18.41,-7.49,-3.01,-0.663365515777162,0.19018235216027532,0.6728761832587506,0.26648547316433757,78.23674817915632,-83.76635885650012,-115.9730289191883,0
1767651568.971318,2,right_wrist,1.3205,0.2952,-0.1937,118.65,-289.52,114.45,-0.8802045145834007,-0.04404748063069583,0.4649304946873063,0.08449536713279035,15.476901405686746,-54.19612197599585,-18.921604077837983,0
1767651569.032862,1,left_wrist,0.9765,0.1625,-0.0078,20.02,-6.79,-0.28,-0.6575415545115598,0.1740584990723788,0.6853469193862,0.2600814162508304,89.9970910025072,-82.66961543847104,-125.82790063693177,0
1767651569.032862,2,right_wrist,1.3205,0.2952,-0.1937,118.65,-289.52,114.45,-0.8126748455033589,-0.055588330329905226,0.5796477823747439,0.021862785853286233,19.77281545515159,-70.00118804140014,-16.9976632946249,0
1767651569.084697,1,left_wrist,0.9487,0.1049,0.0107,12.39,-7.77,2.03,-0.6588822506087278,0.17413050218395112,0.686563504463172,0.25334423692121044,91.63589466991965,-83.19681875752075,-126.88805920221947,0
1767651569.084697,2,right_wrist,1.3205,0.2952,-0.1937,118.65,-289.52,114.45,-0.7276637516042737,-0.0661696404039916,0.6815237576183265,-0.04064985967745923,33.28159932286989,-85.72660480155238,-24.611888070189966,0
1767651569.1673129,1,left_wrist,0.9487,0.1049,0.0107,12.39,-7.77,2.03,-0.6603491942396131,0.17276985800724154,0.6874479420279545,0.24800170328604862,92.47123082829667,-83.51721684500716,-127.14712915675811,0
1767651569.1673129,2,right_wrist,1.3205,0.2952,-0.1937,118.65,-289.52,114.45,-0.5172298998769324,-0.08524779399775612,0.8369721173336074,-0.15711053146722093,-157.1864666815659,-63.201886238339156,177.47980529717674,0
1767651569.23187,1,left_wrist,0.9662,0.0571,0.0376,15.12,13.86,1.54,-0.6761214320078043,0.16589153563178505,0.6777473749586965,0.23663960641033918,74.75832608032147,-84.26348274752026,-107.87477108587514,0
1767651569.23187,2,right_wrist,1.3205,0.2952,-0.1937,118.65,-289.52,114.45,-0.397285316494032,-0.09082026541033654,0.8883795521057696,-0.21141860866391335,-152.9737609761661,-48.09750733698498,179.43195421774766,0
1767651569.2883682,1,left_wrist,0.9853,-0.0288,-0.0264,10.85,5.74,-2.45,-0.6781313286254311,0.16473964246403075,0.6778778118144078,0.23125834814605364,73.50214371636156,-84.60806257419759,-106.06112580820324,0
1767651569.2883682,2,right_wrist,1.3205,0.2952,-0.1937,118.65,-289.52,114.45,-0.2693011357731986,-0.09399355318918817,0.921998099325345,-0.26184272965004696,-148.94749825327415,-33.08026113998235,-177.7911547408716,0
1767651569.366868,1,left_wrist,0.9853,-0.0288,-0.0264,10.85,5.74,-2.45,-0.6800454170147301,0.16355613226139445,0.6780513166995725,0.22590713649402797,72.16682351526636,-84.94356976956577,-104.16957545786451,0
1767651569.366868,2,right_wrist,1.3205,0.2952,-0.1937,118.65,-289.52,114.45,0.0008453882688798279,-0.09405034087988082,0.9333838647239865,-0.34633564611799306,-139.60918677180288,-3.644625626792098,-169.8332994410021,0
1767651569.418066,1,left_wrist,1.1087,-0.1176,0.1459,-17.71,24.43,8.4,-0.6889720627017495,0.17115914957554065,0.6662471576175544,0.2283347702379201,51.899703757953006,-85.01305248523217,-84.74881550996996,0
1767651569.418066,2,right_wrist,1.3205,0.2952,-0.1937,118.65,-289.52,114.45,0.13764058583089525,-0.09112381291915773,0.9107389506460007,-0.3785578999669976,-133.38797214519934,10.469844863072657,-164.05201869509276,0
1767651569.4693818,1,left_wrist,1.0619,0.1484,-0.0405,-21.21,-3.64,3.08,-0.684002009556277,0.17761468547804632,0.6676457403285189,0.23418676274865205,56.93001123806815,-85.22692540718383,-90.81842952745924,0
1767651569.4693818,2,right_wrist,1.3205,0.2952,-0.1937,118.65,-289.52,114.45,0.2719205831713574,-0.08635202262005486,0.8695377856186188,-0.40312102899581326,-125.17111291335578,23.782749954710194,-156.19111573599372,0
1767651569.536674,1,left_wrist,0.9955,0.0117,0.0112,24.85,-4.69,-6.72,-0.6786157004386978,0.17846534265115307,0.6739117312881084,0.2312440940278614,68.05422140322672,-85.70546151799243,-101.75958363471261,0
1767651569.536674,2,right_wrist,1.3205,0.2952,-0.1937,118.65,-289.52,114.45,0.40096416043026634,-0.07985845322785312,0.8104833923328103,-0.41948425506949166,-113.69506016503011,35.65835907726219,-145.01643229063313,0
1767651569.618114,1,left_wrist,0.956,-0.0073,-0.0112,26.46,-5.6,-8.54,-0.6776481585468985,0.17191814310779152,0.6795502350075835,0.2223704193221396,75.95960332700052,-85.9081556074854,-108.35851165599323,0
1767651569.618114,2,right_wrist,1.3205,0.2952,-0.1937,118.65,-289.52,114.45,0.6329315937205579,-0.06235463294288988,0.6432876801308187,-0.4262516369620435,-75.2994134558348,49.56627324971235,-107.12900898338076,0
1767651569.668982,1,left_wrist,1.0565,-0.0273,0.0244,12.67,-10.99,-15.12,-0.6751417900692989,0.16812556070984205,0.6840686417417099,0.21901473129375587,84.05105267966167,-85.81263500197342,-115.84785668531146,0
1767651569.668982,2,right_wrist,1.3205,0.2952,-0.1937,118.65,-289.52,114.45,0.7310208679647503,-0.0517444042731172,0.5381052251794074,-0.41638176456360637,-51.57326668812775,48.042541667419066,-83.63343767381761,0
1767651569.736633,1,left_wrist,1.1224,0.1083,-0.0234,12.53,-18.62,-11.2,-0.6585042959131788,0.15411088930982034,0.7034921869227103,0.21845060997563587,109.6636876240601,-83.63534305994582,-140.26066806039947,0
1767651569.736633,2,right_wrist,1.3205,0.2952,-0.1937,118.65,-289.52,114.45,0.814261725691789,-0.04020178221331212,0.4208995369104288,-0.3977502213813208,-31.925859981743255,40.803302141561495,-64.2146880202916,0
1767651569.819242,1,left_wrist,1.1522,0.2723,0.0029,33.53,-35.7,-7.21,-0.6488804271082922,0.14236696255880352,0.7170090251244934,0.2111489928405156,120.21581665807177,-82.1493696731874,-149.2372772731701,0
1767651569.819242,2,right_wrist,1.3205,0.2952,-0.1937,118.65,-289.52,114.45,0.9284894478397056,-0.015234768315261393,0.15906965582946214,-0.3352194679295873,-8.093162613626744,16.56931017346718,-40.8833346906504,0
1767651569.8718069,1,left_wrist,0.9701,0.2484,-0.1474,46.41,-56.63,-19.18,-0.6293815838642566,0.12606892516583162,0.740086971205612,0.20064078112825265,132.61747728264532,-79.1682778844021,-159.45360343940894,0
1767651569.8718069,2,right_wrist,1.3205,0.2952,-0.1937,118.65,-289.52,114.45,0.9561286350418927,-0.002207324098223473,0.0201565536373039,-0.29224454540456213,-0.9175379339640892,2.135011614382495,-34.00906174427523,0
1767651569.932965,1,left_wrist,0.7671,0.2884,-0.3509,-9.03,23.24,-3.99,-0.6064381209266587,0.13842239070574636,0.7532237897247822,0.21383631550998553,138.28257490223112,-76.59773285490652,-167.33203880658024,0
1767651569.932965,2,right_wrist,1.3205,0.2952,-0.1937,118.65,-289.52,114.45,0.9627029862484201,0.010872640241398075,-0.11932080503925517,-0.24258460678150962,4.639676620727181,-12.971474355482195,-28.813974248106053,0
1767651569.9873862,1,left_wrist,0.7671,0.2884,-0.3509,-9.03,23.24,-3.99,-0.610012402051981,0.13602839152433605,0.74889338217128,0.22031760751727283,134.05189239308515,-76.80715250870934,-163.43956372987455,0
1767651569.9873862,2,right_wrist,1.3205,0.2952,-0.1937,118.65,-289.52,114.45,0.9480584492395939,0.023703417725249372,-0.255895243285398,-0.1874591936328158,9.22015198582183,-28.445359125028514,-24.71126208118448,0
1767651570.0696409,1,left_wrist,0.8325,0.1869,-0.1981,55.02,62.37,0.63,-0.6303677518062999,0.11440547111383709,0.7394713647220645,0.2067123276874885,126.57412811263377,-78.40016990681771,-152.96024656524907,0
1767651570.0696409,2,right_wrist,1.3205,0.2952,-0.1937,118.65,-289.52,114.45,0.8573210830414836,0.04749598579928878,-0.5082737203601511,-0.06635146642525792,17.27351334071501,-59.90608710810853,-18.85563830338507,0
1767651570.1366642,1,left_wrist,1.1126,0.386,-0.2006,55.3,60.97,6.72,-0.6702186458934788,0.07158992796913616,0.7168552863238544,0.17832651900272886,103.38835855718597,-80.55107024649496,-123.81576169254868,0
1767651570.1366642,2,right_wrist,1.3205,0.2952,-0.1937,118.65,-289.52,114.45,0.7834586099009683,0.05805875845589962,-0.6187167188171744,-0.003377720342396002,22.685024751427104,-75.71623213929412,-18.218527758906973,0
1767651570.2183309,1,left_wrist,1.4918,-0.2162,-0.2294,-12.53,-13.93,-14.0,-0.6639737470360518,0.07523588311272009,0.7212611129200154,0.18237552502607035,107.59841459289575,-80.14339319737316,-128.66825019778972,0
