timestamp,node_id,node_name,ax,ay,az,gx,gy,gz,qw,qx,qy,qz,roll,pitch,yaw,rep_number
1767470795.077263,1,left_wrist,1.0843,-1.2756,2.622,37.45,532.28,266.35,-0.9207590514049611,0.2642550963235922,-0.123309927408457,-0.25916534321812057,-26.991552518351554,21.3490675836522,26.260176928068738,1
1767470795.077263,2,right_wrist,1.9213,0.55,1.4547,-53.55,564.2,-90.51,0.05191838418467461,-0.49878856435593044,0.10614040539213797,0.8586318558000249,15.210638991719836,60.177794107106784,-178.07264808880075,1
1767470795.12808,1,left_wrist,1.4362,-0.548,1.9744,-15.12,591.99,195.93,-0.8364465282804682,0.31416991464984007,-0.3656827749058243,-0.2606349519800451,-32.04282614062362,50.8517926450877,19.0672870224181,1
1767470795.12808,2,right_wrist,1.8251,0.0756,0.1684,-79.59,419.37,-67.83,0.039585391406897895,-0.6486666100858128,0.06987467034235677,0.7568237286128717,20.098068660470922,80.88942440977239,-168.8083827430494,1
1767470795.185534,1,left_wrist,1.5928,0.5144,-1.6963,-18.34,316.82,7.77,-0.6959456460344189,0.3861161035394021,-0.5795027726744392,-0.17535834401568254,-84.83943810543573,70.39398374930843,-37.31958978043039,1
1767470795.185534,2,right_wrist,1.2615,0.5158,-2.6581,319.48,177.8,62.51,0.1019410117214287,-0.6938056013467402,0.19492802797980818,0.685744035028379,107.0993375482135,82.43164084034748,-97.18953039388406,1
1767470795.2736871,1,left_wrist,0.7818,1.5958,-1.4801,36.4,-118.51,-33.18,-0.731582119980585,0.37351322443949586,-0.5422154753294798,-0.17685545286122817,-69.44974337659023,67.7387282325058,-22.714374315655828,1
1767470795.2736871,2,right_wrist,-1.179,0.0615,0.3016,126.7,-26.53,18.41,0.09284479015246251,-0.6163762276043785,0.15850867419121598,0.7657252713551275,34.040865712995036,76.75096471259477,-166.57382586771496,1
1767470795.3243918,1,left_wrist,-0.9716,-1.2932,0.1176,-55.37,-180.53,-36.47,-0.7658634025117268,0.38769994934789476,-0.47074328741415883,-0.20382039967410262,-57.48939061903817,61.533076723885124,-6.3619371505920475,1
1767470795.3243918,2,right_wrist,0.1713,-0.1732,-1.1424,107.66,-202.58,150.85,0.08488175709989969,-0.5339918725698736,0.22582174051813014,0.8103408596697541,40.03566067767208,64.65774851308973,-165.99183935594243,1
1767470795.376106,1,left_wrist,-0.2338,-0.2967,-0.4621,-66.43,-172.13,-94.5,-0.7928528211850657,0.4154220921339653,-0.3919203724212504,-0.21262010955483435,-54.75929763514262,52.95137928343773,1.0963694266483308,1
1767470795.376106,2,right_wrist,0.974,0.0512,-0.1581,-27.93,-383.04,228.62,0.03376620160890123,-0.3684695119616892,0.2510336118402982,0.8944675444699132,35.15140975156178,42.54125841324304,-170.2645345366302,1
1767470795.431356,1,left_wrist,0.7061,-0.324,0.8364,-166.95,-373.8,-417.2,-0.8564619890701958,0.5018039540093279,0.008858847561863972,-0.12077737303983684,-60.06334615917096,6.087007709942461,12.532695244632352,1
1767470795.431356,2,right_wrist,1.2473,0.6964,0.631,105.42,-457.03,274.19,-0.0074522325522179585,-0.15035454618443814,0.32165357026767144,0.9348138613679834,38.907535630262764,16.040272896778067,-173.38831688095726,1
1767470795.483972,1,left_wrist,0.9648,-0.712,0.8106,-108.01,-262.85,-535.36,-0.8315502369455499,0.5068441285257989,0.22600310904560955,0.023575994495290496,-65.22850507892007,-23.56346247153883,11.956030020292543,1
1767470795.483972,2,right_wrist,1.4986,1.1117,1.5289,232.89,-405.93,430.57,-0.10833025252254165,0.0766706234508692,0.42990119622443446,0.8930683811292716,50.53044898784899,-13.302183810421404,-172.46752359042358,1
1767470795.544838,1,left_wrist,2.0877,-0.5788,0.0083,-11.9,78.05,-402.08,-0.817992154921475,0.46263351833563837,0.2858927181362347,0.1874150898833545,-57.84212150674068,-39.875759605864005,-3.1432905070503105,1
1767470795.544838,2,right_wrist,2.0828,0.6549,1.0731,-8.19,-242.48,493.78,-0.24987576395870392,0.26094339062993605,0.4085949413908791,0.8381651527845754,46.30032502415685,-39.91296867878309,-164.4490754390174,1
1767470796.045584,1,left_wrist,1.2405,-0.7998,1.2283,64.19,463.75,237.58,-0.8941335758406931,0.1930549013784902,-0.28373768663039456,-0.2876593102851166,-13.391316071971136,38.20426301392895,31.01150718842286,2
1767470796.045584,2,right_wrist,1.0311,0.3211,0.8496,-78.26,419.93,-149.38,0.031557440883264704,-0.47493292179582525,0.14172391361682962,0.8679615083795532,23.010834669527483,56.4487590352281,-171.69431466633807,2
1767470796.1249468,1,left_wrist,0.9697,-0.1684,0.6256,-18.13,409.22,139.16,-0.8116975309727452,0.22971430738426382,-0.4423310536685167,-0.3045023713474447,-11.627716298720745,59.089987522801046,34.52033165084948,2
1767470796.1249468,2,right_wrist,0.6041,0.2586,-1.1736,-0.77,213.01,-24.01,0.04003228325926364,-0.6729306076049533,0.1150285579686855,0.7296096521408713,59.22837535983178,82.37729173100261,-133.3892981745051,2
1767470796.176129,1,left_wrist,0.5666,0.0346,-0.1283,29.82,320.81,73.29,-0.7357358762826937,0.24490556100794156,-0.5611020964628115,-0.2896177202502636,-8.039041131789107,75.35340662559645,36.76135469797244,2
1767470796.176129,2,right_wrist,0.3167,-0.5773,-1.1614,21.91,-104.93,25.83,0.04466102826709971,-0.6403960747094423,0.12675025925756714,0.756196159623284,42.32957482649556,78.47903782421716,-151.6648738491228,2
1767470796.244612,1,left_wrist,-0.3655,-0.5397,-0.1884,153.09,-179.34,-22.4,-0.747673208932955,0.2584459106830821,-0.5454498728195325,-0.276902365710815,-17.274572374992722,73.48897811239117,27.70418350822263,2
1767470796.244612,2,right_wrist,-1.3074,0.975,0.7847,11.9,-188.65,-3.71,0.05752068619555741,-0.5737144612077706,0.12750651427923582,0.8070224138628548,24.330281659720466,70.16427609927912,-170.9347481567432,2
1767470796.325419,1,left_wrist,-1.4679,-0.7847,0.5968,-55.65,-40.53,-0.91,-0.7523572686948237,0.27471069271819765,-0.5227398688630603,-0.29195137446051433,-19.666735150627115,71.25864319732992,28.254657711496634,2
1767470796.325419,2,right_wrist,-0.812,0.2074,-0.0644,16.73,-54.53,23.8,0.05457913208103312,-0.581067718299938,0.15737351028216512,0.7966272675175349,34.241325991526665,70.55601689240953,-163.25096340151595,2
1767470796.379309,1,left_wrist,-0.8774,-0.1757,-0.1342,-12.39,-20.72,-10.01,-0.75484753584735,0.2803762140829831,-0.5156613635414075,-0.29272467328924173,-21.323789412238465,70.49931334159407,27.234557600917384,2
1767470796.379309,2,right_wrist,-0.5119,0.2386,-0.2718,27.16,-96.74,38.43,0.05374419745176567,-0.5465480341021406,0.1758882083082379,0.8169823412029594,33.866220366442874,65.77569253222318,-165.2527618501131,2
1767470796.4346628,1,left_wrist,-0.3045,-0.2582,-0.3772,-10.15,-147.0,-69.44,-0.8009780769268522,0.2916092528786845,-0.4386524248146706,-0.2845737410976405,-26.041518503785113,60.30452294693215,23.816699598759982,2
1767470796.4346628,2,right_wrist,-0.144,0.2752,-0.243,77.63,-191.38,88.34,0.05335602493265464,-0.46985997063537965,0.22232277680640408,0.8526179246948752,35.59388124608439,55.583076280153215,-167.95619716705335,2
1767470796.48839,1,left_wrist,-0.0454,-0.1352,-0.1654,-89.39,-219.24,-140.7,-0.8414799889706294,0.3240833437899746,-0.3324029300054545,-0.2763868784216928,-32.44340294283945,47.60936922237815,21.738337378919734,2
1767470796.48839,2,right_wrist,0.1698,0.2601,0.0717,104.44,-263.55,164.5,0.036818965724537356,-0.347121496813463,0.28832850657038805,0.8916376520267895,39.49914489471216,39.81009898247111,-169.91514320092932,2
1767470796.539026,1,left_wrist,0.1752,-0.1386,0.1596,-55.44,-244.51,-260.12,-0.890567611443693,0.34841911675737003,-0.19300132174055068,-0.2196450280154096,-38.12522830438503,29.789736297321454,17.206582520192878,2
1767470796.539026,2,right_wrist,0.4904,0.6159,0.4011,156.87,-307.09,256.34,-0.002306633933955317,-0.18570637184285488,0.37832778542526463,0.9068494415679335,46.81777983862259,19.576801461008344,-171.1657178736774,2
1767470796.5915468,1,left_wrist,0.5168,-0.894,0.7871,-89.04,-293.37,-331.87,-0.9161350330457044,0.3759448242550195,-0.015181922671863543,-0.13831702558323872,-43.68231392048312,7.574574815892342,14.131573318043078,2
1767470796.5915468,2,right_wrist,0.7032,0.6364,1.0541,201.11,-242.13,355.18,-0.08638624514476026,-0.02664435380987246,0.47616368151166466,0.8746974582500523,56.943669636515054,-2.0433994180995394,-169.82762976372823,2
1767470796.673183,1,left_wrist,0.4782,-1.0228,0.9062,-197.68,-162.26,-434.63,-0.8890880032214814,0.43752215690595514,0.1342119674641283,0.009166926060975045,-53.15493696426826,-14.280781569943944,5.990644757135347,2
1767470796.673183,2,right_wrist,1.016,1.9169,0.7769,358.26,-229.95,395.43,-0.26520806108867595,0.2744844222209111,0.6986938946558308,0.605103154728435,100.28598200832153,-44.65057506929379,174.95136139164023,2
1767470796.7282429,1,left_wrist,1.1287,-0.3226,-0.0732,-96.18,39.83,-376.6,-0.7677904870755007,0.4660443962815873,0.3279832073089564,0.2927924254044604,-56.20390032440803,-50.9460741471145,-13.202259191544643,2
1767470796.7282429,2,right_wrist,1.9852,1.6919,-0.002,177.1,-47.32,355.04,-0.36280015557160095,0.3698421656277323,0.6954216310646154,0.49797748411794784,119.57761550727794,-60.802609332339486,161.71384290853746,2
1767470797.3785741,1,left_wrist,1.2737,-2.5464,2.6064,200.34,547.61,396.27,-0.9705035049083379,0.17408949140205077,0.030346435144377345,-0.16399661526395867,-20.35665694721308,-0.10327390240032616,19.20111987505132,3
1767470797.3785741,2,right_wrist,2.3829,0.5017,1.8686,-151.69,585.06,-153.79,0.17177674356470687,-0.24497075177957148,0.2905640812796959,0.9088754567117228,31.979898316176662,33.03287198994401,168.30840385381148,3
1767470797.432968,1,left_wrist,1.8812,-0.4685,1.1732,-21.28,546.21,161.07,-0.8296153661829266,0.24845784372974158,-0.4394266982314173,-0.2385607280416682,-22.448230007564153,57.95750681896542,19.54224406114058,3
1767470797.432968,2,right_wrist,1.9378,0.4021,0.528,-4.41,488.81,-56.35,0.1277671264977445,-0.4337083510745629,0.31262741940619104,0.8353662216238569,43.851737203597914,53.56176627307494,-174.4238798590292,3
1767470797.4843671,1,left_wrist,1.6187,0.5017,-0.2738,-72.17,376.04,81.83,-0.7307978875517026,0.2933102505579987,-0.568504249705973,-0.23813118765466604,-41.02336469892938,76.07606576383013,3.4677881051971995,3
1767470797.4843671,2,right_wrist,1.4645,0.3899,-1.402,31.36,268.38,-31.22,0.10604777440375455,-0.5306767886285516,0.33364362753270177,0.7718924441667491,61.988396616531155,62.8751488214706,-155.31654769948932,3
1767470797.5373068,1,left_wrist,0.956,0.3562,-1.9398,-156.66,84.84,-23.73,-0.6872115607032837,0.3581004727206152,-0.5773431541311451,-0.2572531917215603,-68.49689563759601,77.89331127089237,-16.600223226370996,3
1767470797.5373068,2,right_wrist,0.6393,-1.0243,-1.1141,157.64,-104.16,33.39,0.14708484590958332,-0.4839996274260416,0.38830931882310504,0.7702767565429606,63.23380633662356,59.30043626874448,-162.99710529351847,3
1767470797.628,1,left_wrist,-0.4812,-0.2894,-0.1869,173.39,-197.19,-6.51,-0.7583531269916752,0.28709062544229796,-0.5344685660862164,-0.23837545895255674,-34.39490882226483,71.35229910523896,9.843559864366314,3
1767470797.628,2,right_wrist,-1.0795,0.1908,0.022,56.07,71.47,11.69,0.17380988036574624,-0.4271127252275241,0.36846893185334845,0.8072146503222146,50.83543694175275,54.848284404090045,-176.59935026565535,3
1767470797.6822212,1,left_wrist,-0.8233,-0.2967,-0.3948,-24.08,-19.81,-25.48,-0.7748107429383129,0.3032506461541714,-0.49639338458381715,-0.24759031882502922,-34.7335082919582,66.83644042586992,12.122802906951698,3
1767470797.6822212,2,right_wrist,-0.6373,0.286,-0.4968,31.57,-53.34,49.56,0.17039929848268717,-0.40068222001640164,0.38664288506431177,0.8129730112792684,52.33081648919562,51.55957525932895,-176.97743537879705,3
1767470797.7373362,1,left_wrist,-0.0888,-0.0864,-0.7657,-55.93,-111.02,-104.3,-0.798180011610654,0.33433850012042926,-0.4412804893467482,-0.23748255962140122,-39.94941126579855,59.68252799630531,9.582756836966944,3
1767470797.7373362,2,right_wrist,0.019,-0.1132,-0.7369,83.23,-160.09,109.48,0.17222426227371987,-0.3212206021026021,0.4241807246669482,0.8289914602033831,53.798184006185814,42.74110193890822,178.98313265709777,3
1767470797.8242261,1,left_wrist,0.3504,-0.0366,-0.4607,-65.8,-240.59,-201.53,-0.8464073695062976,0.3702484989388153,-0.31895896262710266,-0.21160291595066996,-43.27252841752859,44.15723047315478,9.792125763345584,3
1767470797.8242261,2,right_wrist,0.9282,0.49,0.4089,118.65,-364.14,261.03,0.142965558903923,0.027767707680452957,0.4674351612452941,0.8719484924059719,55.70061872202721,4.889264491952053,163.96158889741565,3
1767470797.886024,1,left_wrist,0.9906,-0.6427,1.0643,8.75,-308.7,-423.57,-0.9025110923468389,0.4231490057413623,0.06874256165736886,-0.041147385673878274,-50.5819972318404,-5.120973489173929,7.641796312361262,3
1767470797.886024,2,right_wrist,1.3078,0.8057,0.7247,181.93,-340.62,365.47,0.06712172004033257,0.2410219170605486,0.49643578285071144,0.8312368036249879,65.49676252694077,-19.514738482387216,158.14387715841545,3
1767470798.588143,1,left_wrist,0.9731,-0.5144,1.2625,21.07,465.64,198.38,-0.9089703378332612,0.27564854974087316,-0.21951511410209118,-0.2227193674689884,-28.217436089611674,31.456427587101384,19.437512508070952,4
1767470798.588143,2,right_wrist,1.1897,0.6632,1.0394,-100.94,474.25,-95.76,0.20682389874490764,-0.29085299570788575,0.31168895479855513,0.8806125170881282,33.95746958615653,39.8803901631111,166.20728973645294,4
1767470798.672564,1,left_wrist,0.7715,0.1913,-0.306,-30.17,331.17,82.53,-0.8571405719911733,0.30829244996665256,-0.3517972990936352,-0.21564894038836901,-33.81997388134392,47.39562133477028,13.042863124514113,4
1767470798.672564,2,right_wrist,0.9072,0.4778,-1.5104,51.8,201.25,-30.8,0.1591235640415159,-0.5169238111612193,0.37942271345170714,0.7506716121835364,66.32195496137415,63.74449605644374,-159.71510959646426,4
1767470798.727958,1,left_wrist,0.7559,0.2694,-1.8842,-186.97,80.85,-30.31,-0.7388594423984395,0.4127044840125382,-0.48550157923873116,-0.2192029876879179,-64.66950385586217,63.944235333362535,-10.071896492919727,4
1767470798.727958,2,right_wrist,0.4148,-0.8447,-0.9482,117.39,-132.02,32.62,0.19726320830527158,-0.4612465146321716,0.4149521149866964,0.7590478388460455,62.80900164191697,59.760283737798396,-170.47636255703185,4
1767470798.785727,1,left_wrist,-0.4163,-0.5266,0.121,214.06,-218.12,-14.35,-0.8187441571921338,0.3256913296903013,-0.42671055477811226,-0.20371859333222866,-40.31145863886535,56.246152823185945,5.7466691981097195,4
1767470798.785727,2,right_wrist,-1.3483,0.8691,1.1971,-37.94,-305.34,-4.83,0.24452087968471092,-0.3582638780297207,0.37012069534597836,0.8215030151946675,42.68897436640104,50.32105062146136,167.65124377523293,4
1767470798.840405,1,left_wrist,-1.4928,-0.6339,0.6529,-12.6,-60.2,-21.56,-0.8277892580090818,0.33036424888656307,-0.40367341040415167,-0.2065724694025612,-39.82951845804252,53.59107430387621,7.286370109773992,4
1767470798.840405,2,right_wrist,-0.6398,-0.0161,-0.223,67.9,20.37,16.52,0.24655988407641208,-0.35932015595978056,0.3996289763434634,0.8064700430592204,47.896464474992726,50.95276042635723,169.8979080926648,4
1767470798.923278,1,left_wrist,-0.8545,-0.4529,-0.1484,-19.18,-24.64,-18.62,-0.8289296196650385,0.34068633147022115,-0.39285953314830263,-0.20608225640708241,-41.263383159984684,52.34697349261213,6.95505064863818,4
1767470798.923278,2,right_wrist,0.2367,-0.1225,-0.5129,56.77,-213.43,126.98,0.2480653194212175,-0.20930357782898415,0.44371025689107596,0.8353303643098886,50.86823862995376,34.73722303369656,163.8417395009424,4
1767470798.977395,1,left_wrist,-0.142,0.0639,-0.5305,-44.03,-98.91,-96.67,-0.8439196816474743,0.36557526553571196,-0.34191665302331675,-0.19299559202699942,-44.19414868326729,45.906827193020106,6.2500397308550415,4
1767470798.977395,2,right_wrist,0.63,0.2289,0.0805,117.18,-318.43,205.31,0.24031354514848682,-0.03643540442883578,0.46401026002293855,0.8518311686688381,53.752738519590864,16.564200143031915,156.92957515800921,4
1767470799.029011,1,left_wrist,0.5729,0.0927,0.1493,24.99,-236.04,-307.86,-0.9039478419463933,0.4141713944325793,-0.05730130041590888,-0.08976032556133492,-48.63105152656122,10.250206502893485,6.700205626998254,4
1767470799.029011,2,right_wrist,0.9775,0.5431,0.6193,46.48,-328.72,298.13,0.19129458504808428,0.1521471441740264,0.44177462952050234,0.8631875838790731,55.538007556485994,-5.373328447764746,152.1779733959702,4
1767470799.079072,1,left_wrist,0.5729,0.0927,0.1493,24.99,-236.04,-307.86,-0.9039478419463933,0.4141713944325793,-0.05730130041590888,-0.08976032556133492,-48.63105152656122,10.250206502893485,6.700205626998254,4
1767470799.079072,2,right_wrist,1.3542,1.6768,0.8345,272.09,-309.75,359.8,0.09246009051624873,0.35479644627890433,0.4802526347865522,0.796823707070869,70.94882278489146,-28.46436145452423,146.27169296144314,4
1767470799.8291268,1,left_wrist,1.057,-0.9311,1.5382,57.05,443.8,298.41,-0.9510852051641615,0.26484298440521586,-0.026904944756827236,-0.15675219321213818,-29.990989066262063,7.712780184787245,16.649140881779555,5
1767470799.8291268,2,right_wrist,1.137,0.7452,1.4484,-84.98,482.58,-132.16,0.40743751099477415,-0.2659337295072146,0.43356078621592403,0.7584846542947303,42.42028633217942,49.17511269900354,143.65158280526182,5
1767470799.880151,1,left_wrist,0.975,-0.2416,0.8374,-50.26,429.87,112.91,-0.8474051389471934,0.3026781885703149,-0.40090818101979414,-0.17193916087116584,-37.13773790198454,51.58656382367673,4.4965610495224055,5
1767470799.880151,2,right_wrist,1.2859,0.5641,0.4246,35.0,419.23,-92.89,0.35590363640660355,-0.4069173440163735,0.5004670124196906,0.6762275106877312,66.55759894931799,65.03604309406762,169.89544106020784,5
1767470799.935704,1,left_wrist,0.9721,0.203,-1.077,-25.9,284.2,85.96,-0.7799101071030717,0.3176029689248333,-0.5123090824730641,-0.16854667894744726,-49.73517038717567,64.98158558562875,-8.501266728028067,5
1767470799.935704,2,right_wrist,1.7275,0.5788,-3.3623,291.2,165.06,34.65,0.35516589012158806,-0.3993401036670793,0.6147315414981623,0.5800774120620449,99.87042641586986,64.1527702218339,-169.56993461539676,5
1767470799.9871302,1,left_wrist,-1.0058,-1.2356,0.8364,120.61,-256.27,-7.98,-0.8496093791229463,0.25899932426296524,-0.4263893814935558,-0.17110040411171487,-30.360374689117606,54.40569454975316,6.894366740008372,5
1767470799.9871302,2,right_wrist,-0.5846,-0.1152,1.2088,-430.36,-352.52,3.57,0.36439364330755647,-0.3643954885445736,0.43646486836127213,0.7375171993464182,46.94172733930161,58.824525922764266,154.92321040100603,5
1767470800.0743349,1,left_wrist,-1.0058,-1.2356,0.8364,120.61,-256.27,-7.98,-0.9052315664411072,0.1986272580483993,-0.3344750309521058,-0.17096630413137454,-19.37548285951511,42.335592631406975,13.826297642947866,5
1767470800.0743349,2,right_wrist,-0.7476,0.2952,-0.2791,-77.7,-36.82,34.65,0.3368217924211678,-0.3831485447393218,0.4593389549015816,0.7271561024458604,55.24617769763236,60.07146102688091,163.96020210523827,5
1767470800.1331358,1,left_wrist,-0.8594,-0.4709,-0.162,-14.28,3.78,-35.91,-0.8952927499552504,0.22735927645030438,-0.3521970394857117,-0.15071793744295886,-24.89300674937839,44.360703650968404,8.827997761842942,5
1767470800.1331358,2,right_wrist,-0.7325,0.3001,0.1415,-11.06,-77.14,37.45,0.33836549423576423,-0.35548051489221016,0.4518252934941522,0.7449807380070166,51.92101712174196,56.65922675934752,160.56022752891772,5
1767470800.223063,1,left_wrist,-0.3382,-0.2118,-0.2338,-21.7,-88.27,-57.4,-0.9077677883385948,0.2412351456140353,-0.3134402930763801,-0.1397083735916498,-27.018836590788023,39.528884848492545,7.630730187575734,5
1767470800.223063,2,right_wrist,0.039,0.0229,-0.1532,62.72,-243.46,117.32,0.3629799834346849,-0.1771173468376839,0.45851022439531763,0.7916080792916977,49.13493115504586,37.82669355600164,148.5382819013101,5
1767470800.286457,1,left_wrist,0.0688,-0.1723,0.2245,-127.33,-226.38,-231.7,-0.9384367922981047,0.32746216429894315,-0.09247001920112434,-0.05961722370958932,-38.14840195274574,12.274721897715123,3.0113675440213807,5
1767470800.286457,2,right_wrist,0.4734,0.5163,0.1532,63.7,-321.79,195.3,0.3578753127848369,-0.01250804460256036,0.43899689030896283,0.8240452291096867,49.316724427636224,19.561999268296393,142.0999683661946,5
1767470800.375808,1,left_wrist,0.304,-0.3343,0.283,-5.18,-266.77,-305.76,-0.9411422027742328,0.33063577997501903,0.06416977890036435,0.028523229716394677,-38.66840938292793,-8.027441863952317,-0.651269837495705,5
1767470800.375808,2,right_wrist,1.1117,1.037,0.7691,368.06,-243.88,422.59,0.17148482614364946,0.406707855519313,0.5010559890226567,0.7443954396192196,79.31533408280485,-25.699800524422038,132.63844723309944,5
1767470801.223609,1,left_wrist,0.8579,-0.9975,1.4289,133.35,415.59,285.88,-0.9639693164660701,0.21385124163325347,-0.0989029978016936,-0.12348684298212369,-23.57203772014812,14.092883153279438,11.645116123159553,6
1767470801.223609,2,right_wrist,1.2019,0.5412,0.5373,54.39,491.47,-95.83,0.24204940239565428,-0.35291961522501886,0.4889978123290649,0.7600927387672638,64.53425010483173,50.64451922732157,177.93894309522312,6
1767470801.278326,1,left_wrist,0.975,-0.4553,0.7096,-39.06,432.04,178.29,-0.9144728646362428,0.24130707378406313,-0.2850153274712857,-0.15580930361243653,-26.05325419598477,36.61773459908754,10.5832190027495,6
1767470801.278326,2,right_wrist,1.1,-0.0996,-1.0131,-27.51,267.54,-72.94,0.20176505927688357,-0.4569930717580647,0.4955535693274465,0.7105454617031565,80.05235052802617,58.14641531229105,-161.64362190004238,6
1767470801.3361652,1,left_wrist,0.2782,-0.0117,-1.3244,-116.83,161.84,19.32,-0.8286411891495482,0.35374277799161924,-0.40241827265449914,-0.1621091006000705,-46.944301596760816,51.40827412226285,-1.4739275178409552,6
1767470801.3361652,2,right_wrist,0.4948,-0.3416,-1.3547,301.98,-5.81,79.1,0.23580865978260462,-0.40972740131100455,0.6012706774510154,0.6441981876907603,95.77516436493514,54.23891812109817,-161.1414837417647,6
1767470801.425303,1,left_wrist,-0.3665,0.7315,-0.4875,22.26,-93.03,-30.45,-0.8483393061727387,0.3426989834923625,-0.36901878833546875,-0.16341041022860256,-43.0829855538898,47.57044780847046,2.066631157474594,6
1767470801.425303,2,right_wrist,-1.2488,0.5929,0.5505,171.29,102.97,-3.99,0.2624012707325704,-0.359695070999684,0.744984235997138,0.49675297395408197,123.77481525110076,48.44582114132047,-155.48486193019883,6
1767470801.4782012,1,left_wrist,-1.1156,-1.0463,0.4919,31.22,-94.43,-34.09,-0.8684680353520499,0.33335551749165254,-0.3311911358293805,-0.15795506347587523,-40.351040144129094,42.88806125902564,4.191261532536115,6
1767470801.4782012,2,right_wrist,-0.7725,0.2777,0.081,1.26,-5.46,8.47,0.26488209148864583,-0.35581442907147265,0.7441370999679651,0.49949328936874565,123.02477199960126,48.561888830000036,-156.4018403632777,6
1767470801.535603,1,left_wrist,-0.7754,-0.3074,-0.2377,3.57,-24.99,-25.83,-0.8739995233887223,0.33472897275903185,-0.31916976249779716,-0.14903694380612287,-40.57441770444766,41.123358566444004,3.5653932245824205,6
1767470801.535603,2,right_wrist,-0.6422,0.222,-0.1932,14.49,-55.16,47.88,0.278162347682627,-0.32832039101213706,0.7463123500319849,0.5077886424163728,119.8062923287016,48.471559939582924,-161.75557347392444,6
1767470801.592118,1,left_wrist,-0.547,-0.2133,-0.242,-18.69,-81.76,-76.23,-0.884619614653314,0.3486812368296711,-0.27881937669622114,-0.1346450431032792,-42.018315285980385,35.958178762789615,3.100514166619854,6
1767470801.592118,2,right_wrist,-0.3338,0.0966,-0.1757,23.94,-123.34,90.3,0.3034732999035159,-0.2710153712085976,0.7480716287542116,0.5242551507304034,113.23472544872192,47.57847286661303,-172.5657363452354,6
1767470801.670752,1,left_wrist,-0.3348,-0.2704,-0.0117,-66.43,-140.28,-145.39,-0.8945156436254809,0.3847347598955284,-0.20066415900515985,-0.10749336318198335,-45.981622338077145,26.212866036314644,2.4214073391433732,6
1767470801.670752,2,right_wrist,0.2684,0.3016,0.0883,35.28,-271.81,201.67,0.37819276391237727,-0.026506175322942967,0.7164794963996851,0.5855978033026761,91.9642059521428,34.95819754005052,150.38911642520017,6
1767470801.732995,1,left_wrist,0.0825,-0.5251,0.081,-169.19,-166.74,-323.96,-0.8579389085221292,0.5120853474765377,0.032141339903506545,0.02600693009370104,-61.63657604789152,-4.691240970112084,-0.6730028641649485,6
1767470801.732995,2,right_wrist,0.713,0.7266,0.3133,128.87,-318.71,270.97,0.4012548478081938,0.16081896886247268,0.6865081392415617,0.5846694631323948,89.65028062251183,21.27702220305743,132.22736510846238,6
1767470801.822967,1,left_wrist,0.3572,-0.6642,0.1381,-185.29,-142.66,-425.67,-0.7901211085455841,0.5660227082812549,0.17761470371889881,0.15420747246323188,-70.57288382208117,-27.0806421543343,-2.7435008734644253,6
1767470801.822967,2,right_wrist,2.1687,1.178,0.469,98.63,-129.99,485.66,0.25541971962937554,0.5615952373423487,0.5568057477645448,0.5561824480107297,105.4716184397623,-19.892745429350335,104.70797483186698,6
1767470805.483744,1,left_wrist,0.8208,-0.4787,1.26,-24.92,401.87,151.2,-0.9065897245512907,0.2911798081776917,-0.2220595279106668,-0.20975928277840092,-30.71663892134947,31.65404718878884,17.150436530915453,7
1767470805.483744,2,right_wrist,1.0453,0.2684,0.9379,-3.29,408.17,-129.85,0.5140240207513375,-0.09347984723704586,0.620790512894363,0.5845168631883267,71.41065388249059,48.37286419523408,133.12319755211266,7
1767470805.577751,1,left_wrist,0.6471,-0.306,1.1414,-39.62,382.55,101.29,-0.8443346829618913,0.32621954848661106,-0.37418966996690134,-0.20164781234344092,-38.262690428425465,49.76889875180599,8.5820379064411,7
1767470805.577751,2,right_wrist,0.4729,-0.1405,-0.2045,5.81,238.49,-60.48,0.37666322385231016,-0.2628997723056348,0.7355008336564203,0.49804322022244263,112.38354554258413,54.680723330367115,-178.8565624446525,7
1767470805.629987,1,left_wrist,0.6041,-0.2152,-1.3845,-84.98,198.24,-4.62,-0.7050799033044698,0.40618527066164767,-0.5559776604198721,-0.16960158303426565,-82.32060796571912,67.19017389303829,-33.23863446028695,7
1767470805.629987,2,right_wrist,0.0542,-0.002,-1.32,76.51,55.51,-3.43,0.3655618996791077,-0.2641968950222127,0.7630164114207593,0.46300157026322314,120.63034814845794,53.37013728997077,-173.77830595991088,7
1767470805.6819851,1,left_wrist,0.1283,1.0663,-1.1805,48.23,-126.49,-24.01,-0.7423710222599272,0.3869890935776925,-0.5185300752319731,-0.17392891605650526,-67.56860612659705,64.75610486112163,-19.604359396251027,7
1767470805.6819851,2,right_wrist,-0.5266,0.0049,-0.6168,-75.6,-137.41,28.7,0.3954731250216192,-0.24064231759201596,0.7294094298907874,0.503640909732296,108.28627281960394,55.01660956166213,175.2678324881377,7
1767470805.737139,1,left_wrist,-0.9228,-0.8091,0.0088,14.63,-155.47,-25.41,-0.7794027568073715,0.3789351885717096,-0.4633079571914707,-0.18516263755482246,-55.92364517826743,59.60255977084676,-7.094645852601422,7
1767470805.737139,2,right_wrist,-0.9306,0.713,0.1293,38.99,-102.41,31.01,0.425962803277566,-0.20001686467476498,0.7207586192834002,0.5089753990108764,101.92863963601631,54.84924680777641,165.3837931603063,7
1767470805.827041,1,left_wrist,-0.5934,-0.3479,0.0605,-30.45,-159.53,-39.62,-0.8058229399748976,0.38613336874811305,-0.40076095560042685,-0.20233899133800057,-50.40519072393924,53.335369662013385,1.5934339155625936,7
1767470805.827041,2,right_wrist,0.2728,0.0732,-0.1039,8.19,-263.55,145.74,0.5075886279478895,-0.015911457554807548,0.6696986037384187,0.541852738709765,81.78055454210546,44.195286617185815,132.4810008885944,7
1767470805.887954,1,left_wrist,0.0473,-0.467,0.1957,-179.27,-247.1,-231.77,-0.8485411491233326,0.47313060786728633,-0.15379545370723152,-0.1802007340788971,-55.95868840206551,25.5640941449736,10.23459859692606,7
1767470805.887954,2,right_wrist,0.5661,0.4148,0.4006,105.7,-351.54,210.84,0.5512836723557089,0.15210205430825854,0.606496095421732,0.5523710382590712,75.40999134512778,30.044287122353236,113.55269433713018,7
1767470805.9773388,1,left_wrist,0.2645,-0.5968,0.5207,-170.31,-271.25,-363.09,-0.8421381304163773,0.5267771499373334,0.038304290481763405,-0.10882088463800313,-63.727948591997375,2.8736542644470195,12.939476043442241,7
1767470805.9773388,2,right_wrist,1.0536,1.1507,1.035,374.99,-282.94,368.34,0.4596725638221824,0.5583436676878171,0.4594827185637483,0.5155861850004568,92.65325005453909,-8.819685787213146,87.32649288318014,7
1767470806.783344,1,left_wrist,0.6461,-0.5031,0.9038,52.43,363.93,146.72,-0.8800269475236487,0.2991007721764817,-0.26589674576749406,-0.25571511552096043,-29.87561736807767,38.386402816363514,21.793644079135706,8
1767470806.783344,2,right_wrist,0.873,0.4851,0.8223,-35.21,348.95,-117.32,0.5326555349022212,-0.03211167394121594,0.6081587746950439,0.5876987547171976,69.22351265068666,43.284563760924264,126.2544457138977,8
1767470806.837526,1,left_wrist,0.5134,-0.2772,0.5197,-46.48,330.82,77.91,-0.8193854722687846,0.34089806256867333,-0.39062654970788896,-0.2445544058795425,-38.48378008482747,53.79256702433862,13.155347729157802,8
1767470806.837526,2,right_wrist,0.5431,0.3231,0.3221,10.5,314.93,-82.6,0.4650237697562919,-0.129310670956653,0.6754504502923393,0.5574928996303572,85.1147152556916,50.568147809431046,147.22815413179407,8
1767470806.890608,1,left_wrist,0.0015,-0.0278,-0.9862,-7.28,127.89,10.36,-0.7914822175057342,0.35762726693083735,-0.43943983399160075,-0.22924063693250335,-45.526900192943295,59.2697981005008,5.454001966524931,8
1767470806.890608,2,right_wrist,0.2196,-0.0649,-0.2669,-9.24,202.65,-64.33,0.41636655594368166,-0.19843973615323257,0.7100671834269872,0.5320386801982518,98.39778969483704,53.364863036608504,164.32361447151635,8
1767470806.973166,1,left_wrist,0.0015,-0.0278,-0.9862,-7.28,127.89,10.36,-0.7606890592821093,0.372948569639319,-0.48671564251151256,-0.21300094560140098,-55.43776788628366,64.07345647950389,-5.11560377628593,8
1767470806.973166,2,right_wrist,-0.7584,0.1874,-0.0551,-33.6,-99.19,26.6,0.4336655341079986,-0.18010357693910048,0.709093427661795,0.5260070502829907,96.81687102657871,53.56105585982378,160.24069912424898,8
1767470807.031316,1,left_wrist,-1.0682,-0.7047,0.2289,37.66,-122.78,-9.87,-0.8123354998699335,0.339135212812928,-0.42014669371481056,-0.22039759264090947,-41.26152202269278,56.31396348466748,7.573487491564945,8
1767470807.031316,2,right_wrist,-1.1141,0.6622,0.5251,-3.43,-71.19,16.94,0.45313193283846903,-0.15889091392430632,0.6935477460190985,0.5370443677259821,91.19254817050889,53.05379501433244,153.70079908416702,8
1767470807.093695,1,left_wrist,-0.9775,-0.5222,0.1425,-32.48,-26.11,-18.34,-0.8120733518397272,0.3540288289809971,-0.4069903374807593,-0.22261923699319516,-43.28848519199672,54.948810588908245,7.342189960018461,8
1767470807.093695,2,right_wrist,-0.8023,0.3704,0.1308,41.44,-37.87,20.02,0.46551457093171705,-0.1374653258633352,0.6947676666365818,0.5307516913132788,90.30058428502193,52.44502322070015,150.1766415411468,8
1767470807.1696498,1,left_wrist,-0.6603,-0.3123,-0.0185,8.61,-74.48,-37.03,-0.8276592259254257,0.35227987025197494,-0.3781419903555696,-0.2188326618348027,-41.87844512261546,51.272122219335984,8.8095239799328,8
1767470807.1696498,2,right_wrist,-0.1474,0.2206,-0.0244,25.97,-184.1,102.9,0.5151448925373111,-0.002343090240318228,0.6591685173811824,0.5478294582389137,79.68681357068985,42.97677264945906,129.89353134213349,8
1767470807.228294,1,left_wrist,-0.4075,-0.3884,-0.061,-96.25,-118.44,-99.54,-0.837555461408202,0.39419309935787894,-0.3113659253707688,-0.2148578832668896,-46.748432929213415,43.70642294260401,9.108296142657215,8
1767470807.228294,2,right_wrist,0.1415,0.3919,0.2128,89.81,-254.59,161.0,0.5439637581341427,0.12663400873093406,0.616224584845583,0.5552787756624619,75.7716124682883,31.9901407538525,116.32625957023208,8
1767470807.2873769,1,left_wrist,0.0693,-0.4563,0.5241,-149.03,-233.59,-229.67,-0.8673236059645131,0.46485171153919613,-0.06201269798412093,-0.1667845139829365,-54.513393964671806,15.226191501384841,13.891660490314479,8
1767470807.2873769,2,right_wrist,0.5007,0.5466,0.5368,116.62,-275.52,231.07,0.5475721938878517,0.28165706104226146,0.55647287482879,0.5578278695311508,76.56342284385161,17.168680836180123,104.65149436574549,8
1767470807.370827,1,left_wrist,0.2079,-0.8818,0.4036,-237.86,-248.36,-304.36,-0.8306210779333824,0.5353006080944529,0.11279297647422497,-0.10392126021454703,-66.25729688323189,-4.365475263337381,17.112470600134547,8
1767470807.370827,2,right_wrist,1.1434,0.7013,0.7393,167.79,-186.97,321.3,0.4368493774132668,0.585379540710506,0.41287333390615194,0.544085494127915,91.5661390153862,-16.037480597453115,86.00170102667768,8
1767470807.4281049,1,left_wrist,0.5627,-1.3127,0.7945,-467.95,-140.98,-345.8,-0.7070557289421638,0.6572856791075669,0.26051147515761186,0.01347232427516497,-89.98642135558539,-22.712207688616584,20.523788447049093,8
1767470807.4281049,2,right_wrist,1.5172,1.4591,0.3928,160.72,-174.23,291.62,0.351471165093426,0.7012323430197697,0.3356908439171863,0.5215868849204713,103.91163515588595,-29.7050932610661,74.60965794077674,8
1767470808.226924,1,left_wrist,0.6852,-0.6788,1.0126,58.03,325.99,199.85,-0.9184650759599656,0.3203878910054119,-0.09204008787338959,-0.212842960332771,-35.23443637051229,17.785589641952782,20.405656652433997,9
1767470808.226924,2,right_wrist,0.6046,0.4636,0.5461,-74.9,324.38,-138.6,0.4799178315974515,-0.03846992411844708,0.6000327253124019,0.638873749975136,69.21717729056218,38.68862162171573,133.40895075026535,9
1767470808.279537,1,left_wrist,0.2347,-0.2777,0.6027,-4.27,281.19,84.28,-0.8452824859021881,0.34823647571934874,-0.34681710594268056,-0.2096348516614741,-40.61730532448951,47.08139813707057,9.5394159910406,9
1767470808.279537,2,right_wrist,0.3382,0.3152,-0.0268,39.69,256.55,-94.36,0.4344181973990126,-0.12241025678713198,0.6591956502038192,0.601462927830357,81.63560578392887,46.0531293359655,148.63749794629135,9
1767470808.337594,1,left_wrist,-0.0317,-0.0146,0.0996,-2.03,215.88,59.99,-0.80467147021675,0.355801788482764,-0.43170933912329335,-0.19883651285769818,-46.98525723766245,56.74738712553436,1.3365869945142712,9
1767470808.337594,2,right_wrist,-0.0317,-0.141,-0.406,2.73,140.42,-61.04,0.4081099287538063,-0.17760949945358653,0.6847808110044971,0.5770410666810749,90.08343980087488,49.80990902972935,159.33427271045377,9
1767470808.4236841,1,left_wrist,-0.1566,-0.4285,-0.8945,-26.04,118.3,15.68,-0.7734439026368651,0.3750370112196914,-0.47472632395151443,-0.1891208265547142,-56.219747645269194,61.18766924698318,-7.574962327584779,9
1767470808.4236841,2,right_wrist,-0.8901,0.0878,0.0615,-38.22,-86.59,24.15,0.43152609126449415,-0.1507563676923516,0.6719049920768463,0.5827533198364544,85.4790499396358,49.07752821813928,152.7072753504022,9
1767470808.4828959,1,left_wrist,-0.8364,-0.5983,-0.1157,-0.63,-124.88,-18.06,-0.8103557498165974,0.3605909501392985,-0.4131946014360096,-0.2063200105684259,-46.087703147993416,54.93127861880375,3.6319662619905144,9
1767470808.4828959,2,right_wrist,-0.9033,0.6256,0.163,24.08,-59.01,22.47,0.4473001487424598,-0.12617985214051183,0.6656959921356153,0.5838236616508025,82.97665947561576,47.976079056176985,148.04596938774876,9
1767470808.532906,1,left_wrist,-0.5046,-0.3187,-0.0717,-69.09,-120.68,-61.25,-0.8229888051232243,0.3869522578794029,-0.35617499461212937,-0.21470153696918212,-47.28606201734709,48.79996925675211,6.778712825794338,9
1767470808.532906,2,right_wrist,-0.3436,0.1405,-0.2767,92.19,-111.23,76.51,0.46324085020897476,-0.05940223483791981,0.6727390639873198,0.5738479249586879,83.02026468161021,43.74548501204874,141.29508508961538,9
1767470808.58872,1,left_wrist,-0.1537,-0.2401,-0.0942,-78.12,-190.68,-149.45,-0.8465200881138217,0.42140778763294645,-0.25459752937040536,-0.20248287577115906,-49.8329035776446,36.99171741551738,9.238675049314333,9
1767470808.58872,2,right_wrist,0.163,-0.1205,-0.2045,42.84,-212.17,165.55,0.48045151269762,0.05126512100800277,0.642345589221123,0.5949204781504599,78.22911242956633,33.795784815644645,129.9013957492985,9
1767470808.677353,1,left_wrist,0.0981,-0.4802,0.4363,-239.12,-264.04,-269.36,-0.8406726106585453,0.5067390826819428,-0.08069534668557908,-0.17312805894626956,-60.123476053277464,18.12783969098476,12.72292881542251,9
1767470808.677353,2,right_wrist,0.8189,0.772,0.507,246.54,-299.6,347.55,0.4373872581259189,0.4317853391960767,0.5355375484130532,0.5791833401645431,86.93041115794585,-1.816073226171033,104.15999790539142,9
1767470808.729214,1,left_wrist,0.934,-1.2459,0.5344,-161.07,-193.13,-395.43,-0.7766007326839095,0.5728318874943443,0.2607497773934804,0.027649308377102482,-76.64835685757524,-25.89184493043506,16.518650191849925,9
1767470808.729214,2,right_wrist,1.3376,0.8843,0.8467,177.31,-221.2,424.27,0.33875097844761015,0.606982784098481,0.4443989180496291,0.5650922721513384,98.21240098345258,-22.638862294988037,92.08876002763358,9
1767470809.530737,1,left_wrist,0.6983,-0.8194,1.218,128.17,324.1,263.13,-0.9135830886792995,0.37725062146650123,-0.12161491691113245,-0.09087200155729105,-44.212940292169364,16.904282042929875,4.452584627884412,10
1767470809.530737,2,right_wrist,0.9687,0.2616,0.5812,-24.15,352.03,-164.99,0.42339548034364494,0.057892452655112434,0.578207036822579,0.6950261532625968,69.1579287317285,24.151259096977476,134.07997593324754,10
1767470809.582751,1,left_wrist,0.3733,-0.1981,0.5431,-23.73,321.02,102.48,-0.8305911700998057,0.35854844637632544,-0.41697934761897515,-0.08769004169580874,-52.900658113233895,49.0744115619649,-13.53782222557415,10
1767470809.582751,2,right_wrist,0.5553,0.2991,0.3265,12.95,293.86,-119.35,0.3803236794272711,-0.05631200518060532,0.6322838796214078,0.6726068335293234,76.48827081029782,33.82766185867122,147.9842238589422,10
1767470809.635062,1,left_wrist,0.1352,-0.2201,0.2416,-12.95,254.73,65.94,-0.7760109134284675,0.35921081714593145,-0.5133750431294759,-0.07225452357518293,-66.03549809211609,58.06822376420775,-29.03207456723189,10
1767470809.635062,2,right_wrist,0.183,-0.0176,-0.324,0.42,184.87,-93.94,0.3530152934796445,-0.13480111990924717,0.6613408929266775,0.6479483652141101,83.3433054917778,39.91236879834169,158.65597716746956,10
1767470809.7253602,1,left_wrist,0.0654,-0.1503,-0.7496,-13.86,199.08,21.14,-0.722560136707994,0.3667750775412417,-0.583839247649501,-0.05014602914693807,-84.0407443228446,61.703046551615586,-48.64107227158407,10
1767470809.7253602,2,right_wrist,-0.7564,0.0732,0.0083,-123.62,-126.28,27.23,0.3434051291762597,-0.19037300640272561,0.6330838124139814,0.6671101274512351,79.99672295128039,43.5358239058979,162.57132696956504,10
1767470809.778046,1,left_wrist,-0.1723,0.2054,-1.0058,-49.21,2.31,-24.01,-0.7109954879379601,0.389414113697495,-0.5829042817564771,-0.055359393918484726,-87.99121723429747,60.691900958477426,-50.05076106207013,10
1767470809.778046,2,right_wrist,-1.16,0.7325,0.6632,7.91,-11.27,19.95,0.34339256440087723,-0.18112620694337753,0.6327880310944272,0.6699657838846192,79.54190044213776,42.6319340855807,161.70958803732105,10
1767470809.832267,1,left_wrist,-1.0326,-0.7442,0.2635,-21.91,-87.36,5.53,-0.78416186187795,0.36464243039285366,-0.49633890691056975,-0.07598527370563708,-64.07154626035106,56.49472382189302,-26.094274566704048,10
1767470809.832267,2,right_wrist,-0.73,0.303,-0.0044,21.07,-6.86,28.49,0.3409429322646014,-0.17183474390961864,0.6401935068277324,0.6666205903960223,80.64950124498027,41.731140678880514,161.6822906215706,10
1767470809.8856971,1,left_wrist,-0.4377,-0.144,-0.0708,-84.56,-23.52,-15.89,-0.7734266072302206,0.3962333685824948,-0.48586443045027605,-0.09352088576006866,-67.72195104778616,55.656797576532284,-25.218571777135125,10
1767470809.8856971,2,right_wrist,-0.4075,0.1898,-0.3304,24.08,-82.11,65.59,0.3461370854079967,-0.12816019188212396,0.6418265793160317,0.6721775996010847,79.5148568284238,38.06920168720317,157.53591047584217,10
1767470809.9718819,1,left_wrist,-0.3567,-0.306,-0.1381,-40.46,-154.14,-76.93,-0.7975794149400007,0.42122715980020303,-0.41968608378074845,-0.10148077547692938,-63.47476498390134,49.02177692378717,-16.996270834237244,10
1767470809.9718819,2,right_wrist,0.042,0.3387,0.1728,-9.8,-230.72,171.85,0.36682229105003644,0.07999800708155812,0.5979740853437904,0.7081445607423942,73.27891400158693,18.98981915268787,139.41251684536863,10
1767470810.036716,1,left_wrist,-0.1215,-0.5597,0.2889,-137.41,-189.91,-182.56,-0.8220982517756836,0.5085850815522578,-0.23594449455931663,-0.09912555037424332,-64.80821816591897,29.25955025002566,-5.06447062998078,10
1767470810.036716,2,right_wrist,0.2518,0.529,0.4895,50.96,-263.62,210.0,0.36395638376475065,0.2242663072365305,0.5555339937711344,0.7131776468174453,73.54955512732509,4.847092545102231,129.55049109004466,10
1767470810.087925,1,left_wrist,-0.0712,-0.1781,0.3553,-148.19,-221.62,-281.75,-0.814352007484416,0.5709193653498821,-0.08428878316718298,-0.061459638843593886,-70.04276023423007,11.973453859757331,0.22580936899223775,10
1767470810.087925,2,right_wrist,0.6603,0.9228,0.6612,51.59,-260.05,271.32,0.3313259055361103,0.37636861806507743,0.494071685882704,0.7102555715131583,76.49383908052211,-11.960559553165888,120.5421292439034,10
1767470810.142666,1,left_wrist,0.405,-0.9555,0.8057,-168.56,-220.08,-359.24,-0.776040825353109,0.6242692668472927,0.08944787266169117,0.00689912541609808,-78.0630872635686,-8.478844624211911,5.859355103834334,10
1767470810.142666,2,right_wrist,0.9872,0.8076,0.6578,141.05,-231.0,313.32,0.25486256617736935,0.5288978890077052,0.4425445688605038,0.6778395089818461,86.78503879696162,-29.435251680353915,110.89555814731432,10
1767470810.8350809,1,left_wrist,0.9594,-0.631,1.4079,-2.8,471.87,221.2,-0.8872383808010096,0.3466801359198033,-0.2700469725430496,-0.14034091211248026,-41.30864085711388,35.20466811431802,4.337050747788029,11
1767470810.8350809,2,right_wrist,1.4342,0.8306,0.8701,-69.3,479.43,-156.17,0.3142168961726538,0.039239784807683066,0.44966878425987644,0.8351801996635906,52.628134697464034,12.535382570976921,144.9826824617408,11
1767470810.925972,1,left_wrist,1.0497,-0.2767,0.6803,-48.65,446.11,127.05,-0.8045262202914635,0.3702274760601776,-0.4474602384625023,-0.12429204249960184,-56.111227457839654,54.293728358220626,-13.004385742888326,11
1767470810.925972,2,right_wrist,0.5529,0.0703,-1.0297,3.43,168.35,-54.32,0.2509297534857207,-0.17883125507596936,0.5361227366960873,0.7858918832899644,64.37250462764256,33.376779732973844,165.95513732985788,11
1767470810.977228,1,left_wrist,0.9584,0.3499,-0.4836,-41.51,264.88,76.58,-0.7359375426785366,0.3821009663581987,-0.5469309521410326,-0.11515779771475053,-75.88702443941398,63.25495352106156,-33.51289216676978,11
1767470810.977228,2,right_wrist,-0.1035,-0.1879,-0.9038,110.39,-55.3,22.05,0.2642981524166228,-0.14453891422451903,0.5722246708658577,0.7627672744398633,69.1525241439164,31.532017918357546,163.80133193885422,11
1767470811.032937,1,left_wrist,-0.3245,0.2367,-0.5461,107.03,-177.66,-17.43,-0.7693975711744423,0.3645140239846131,-0.5125069822554095,-0.11177431247324786,-64.91576232805348,60.473733987756226,-24.15092386523655,11
1767470811.032937,2,right_wrist,-0.6944,0.4304,0.1464,-90.23,-156.03,31.36,0.28872262596158077,-0.09893051149141315,0.5246062133426987,0.794758026116208,61.03124436371507,27.39891698743555,156.42178680236626,11
1767470811.0854888,1,left_wrist,-0.4895,-0.4612,-0.1381,-60.2,-137.27,-96.39,-0.7908212016438614,0.40141561791641084,-0.4481108168319208,-0.11253454830217251,-62.65886213327777,53.04398899182947,-17.59826609094629,11
1767470811.0854888,2,right_wrist,-0.4675,0.425,-0.2416,123.9,-132.65,87.85,0.2928902196453165,-0.019271356947320892,0.5555545459167556,0.7779479934730564,65.87945870341876,20.819016555577008,152.31366093771612,11
1767470811.169865,1,left_wrist,-0.002,-0.0425,-0.0586,-62.86,-260.19,-177.17,-0.8289743328592819,0.4443280208219491,-0.3225442387926046,-0.10648652212677968,-59.27094755424156,39.00525615341665,-8.143868594884133,11
1767470811.169865,2,right_wrist,0.6359,0.5212,0.102,52.99,-320.04,241.22,0.27899309705456105,0.28212186581708376,0.5079178362830542,0.7645845775382422,70.82401298210333,-8.511094372576466,133.84974258187975,11
1767470811.2269099,1,left_wrist,0.2801,-0.7676,0.3065,-160.72,-275.45,-351.4,-0.8351900863225299,0.529201034590406,-0.14042934919314895,-0.05180137625775844,-65.26932371994717,16.821863791464423,-3.7199027188664457,11
1767470811.2269099,2,right_wrist,0.874,0.8076,0.5949,301.98,-322.0,341.95,0.19120978197425612,0.49033075170425955,0.509483893002001,0.680764816939021,89.99975074807668,-28.213814483949328,120.40885906297075,11
1767470811.278692,1,left_wrist,0.1283,-1.1946,1.0258,-458.43,-314.37,-504.56,-0.7230954476216166,0.6828465877571533,0.09933358709459005,0.03140620467722347,-87.21667085976284,-10.751314089491606,5.27017161895574,11
1767470811.278692,2,right_wrist,1.3947,0.978,0.9052,302.82,-221.69,456.54,0.03731201837711518,0.6616837361105005,0.46544224518054056,0.586639551217588,117.41977312539534,-47.86844689332332,100.4404951825152,11
1767470811.921901,1,left_wrist,0.9526,-0.2499,0.6954,-42.77,438.69,127.26,-0.8965795571397563,0.36941853679934217,-0.22490797132462698,-0.09534907877243644,-44.707594959683526,28.277552251662865,0.3126609859890853,12
1767470811.921901,2,right_wrist,0.8218,0.2508,0.1113,13.23,349.16,-108.29,0.2836393266807362,-0.07834458137354275,0.5010604963468931,0.8138484121322029,57.80033673245951,24.315578469631028,155.1359156483248,12
1767470811.9731169,1,left_wrist,0.9526,-0.2499,0.6954,-42.77,438.69,127.26,-0.826441650431298,0.384023306408036,-0.4046602360553488,-0.07596309579961431,-56.63119770485259,46.65211624238921,-15.656003869628046,12
1767470811.9731169,2,right_wrist,0.3455,-0.1781,-0.8413,19.18,180.74,-61.18,0.26405986652663527,-0.15235814793544017,0.5300405689155793,0.791275158810933,62.683712064704416,31.401992824303004,162.52014311379568,12
1767470812.029066,1,left_wrist,0.8804,0.2869,-0.4138,-79.66,295.68,56.91,-0.7516591394770288,0.4097674577145968,-0.5133636994051427,-0.05963959064107338,-76.11915532060776,55.14748386508072,-35.402793201096024,12
1767470812.029066,2,right_wrist,-0.1039,-0.2679,-1.2351,71.26,-31.92,16.38,0.2700596680429021,-0.13120051199870203,0.5553162463581061,0.7755501710905486,66.18943380529122,30.227996715026705,161.56895422839102,12
1767470812.0790899,1,left_wrist,-0.3279,0.2167,-0.7066,80.71,-166.04,-13.02,-0.778392063406142,0.38694792829049907,-0.491395246751388,-0.053924093763008774,-68.39262139623416,53.77746443919276,-30.09846855624143,12
1767470812.0790899,2,right_wrist,-0.4904,0.1147,-0.0732,-44.03,-169.89,60.69,0.2891844994372842,-0.06795337901931744,0.5234337325990065,0.7986061552120272,60.93607299348964,24.28487916929846,154.61590556566037,12
1767470812.132997,1,left_wrist,-0.264,-0.2523,-0.2494,-56.0,-153.44,-108.22,-0.7989360464493979,0.4264578128708117,-0.4205887119737301,-0.05422234673571488,-66.04552187220308,45.91381325328224,-23.02139913600129,12
1767470812.132997,2,right_wrist,-0.1976,0.3406,-0.1357,105.63,-189.49,132.02,0.2872316108968576,0.04032746356165754,0.5403777037704477,0.7898503875114942,64.79252686558576,14.283609098423696,149.12354108243767,12
1767470812.186912,1,left_wrist,0.2264,-0.3309,0.5719,-229.53,-267.47,-437.22,-0.7932497675063521,0.5635581751818105,-0.23044195625722805,0.007313982034988385,-73.92592764248467,20.93768339188541,-16.889196922036806,12
1767470812.186912,2,right_wrist,0.3201,0.121,0.0551,112.0,-269.57,223.58,0.2660684186010316,0.20123156819263757,0.5334228046249824,0.7772860246343658,69.50785766436613,-1.6603803005813678,141.0553417277475,12
1767470812.274509,1,left_wrist,0.2264,-0.3309,0.5719,-229.53,-267.47,-437.22,-0.7414881560299129,0.6668403703648591,-0.027389465997618715,0.06905832369368808,-83.72547194636778,-2.9511106766798045,-7.997226508601464,12
1767470812.274509,2,right_wrist,1.1639,1.0077,0.6695,388.22,-248.78,440.02,0.046550750743729656,0.5866279131633579,0.5096056522806575,0.6276964220595849,106.6499566787228,-43.55127363364477,115.09646275263523,12
1767470812.3284018,1,left_wrist,0.4548,-1.6904,0.8896,-555.87,-245.21,-586.39,-0.531287971632165,0.8064562003353496,0.19509672398323813,0.17116879514286046,-115.49970643390049,-28.906739506488844,8.725108435709789,12
1767470812.3284018,2,right_wrist,2.1867,0.6998,0.3865,50.96,-72.52,464.31,-0.07837247790419843,0.6962633787192508,0.3921090660047565,0.5960918910021227,127.71153968087698,-63.066775891733926,92.2965006657223,12
1767470812.880495,1,left_wrist,0.4416,-1.1995,1.1278,167.16,354.69,237.02,-0.8843719743729636,0.41561808554732166,-0.2094869411692122,0.03553926545685028,-52.9231372691012,19.937033266705427,-14.60193135549871,13
1767470812.880495,2,right_wrist,0.712,0.3933,0.4172,-40.67,325.78,-147.21,0.30428270042912214,0.0400944279870926,0.4419089747794532,0.8429240375462794,51.76477042572661,11.61517733402223,145.95279502483032,13
1767470812.9781098,1,left_wrist,0.4402,-0.4329,0.833,-1.54,348.18,128.94,-0.8447552527913729,0.3929685722370225,-0.35987150101322884,0.04956578329720519,-58.29672985887663,34.68408194904675,-26.474221374710595,13
1767470812.9781098,2,right_wrist,-0.0712,-0.1606,-0.4182,0.56,133.14,-48.72,0.2747127864702187,-0.11719068127614468,0.5044156317374371,0.8101630080611699,58.37479685291351,27.841417510653983,158.30331632750003,13
1767470813.0337532,1,left_wrist,0.0849,-0.102,-1.1556,-15.61,137.2,35.0,-0.7855001360758322,0.3908818696004992,-0.475234271524436,0.06597944688390586,-70.26978733513059,44.02823966695252,-41.36741325834671,13
1767470813.0337532,2,right_wrist,-0.3675,0.0254,-0.9726,14.0,6.02,6.44,0.2717464507347029,-0.1183507697728953,0.5140233675247824,0.804939090519113,59.836033301053945,28.02769993577801,159.03685705216265,13
1767470813.1252532,1,left_wrist,-0.0776,0.2586,-0.9994,-109.62,-72.87,-34.79,-0.7766399937629164,0.4386695977870858,-0.4501822837737419,0.0416559172448723,-73.72982019067614,41.50709316715887,-37.865475447049796,13
1767470813.1252532,2,right_wrist,-0.2572,0.2035,-0.3504,42.7,-190.33,87.85,0.2959441167273488,0.013355986210825177,0.4754458496119622,0.8283658258846539,55.46328891329484,15.027552949940452,148.6133209322531,13
1767470813.179625,1,left_wrist,-0.2977,-0.1313,-0.4792,25.62,-223.37,-65.45,-0.8174061188991836,0.4465737431754754,-0.3630225526958822,0.02517448959926724,-65.72012235015815,34.819233099387546,-26.42817996390917,13
1767470813.179625,2,right_wrist,0.1854,0.0708,-0.0068,74.13,-277.13,166.25,0.2876041378246884,0.16017514047289588,0.46049061903085686,0.8243641028484829,58.359704062002926,0.045420831538944426,141.55964898483484,13
1767470813.237956,1,left_wrist,0.1664,-0.3631,0.632,-169.89,-312.83,-361.9,-0.7975543897577303,0.5971650082541711,-0.030213785102117138,0.07992543703210697,-73.42435585396842,-2.708983897287277,-9.425091777905962,13
1767470813.237956,2,right_wrist,0.7086,0.692,0.2455,97.58,-350.84,242.83,0.2566470490280064,0.345215464510733,0.42598730816896574,0.7959229790418253,65.00617710629824,-19.321775888357497,131.8755397765401,13
1767470813.322953,1,left_wrist,0.3104,-1.2307,0.7691,-405.51,-296.1,-483.63,-0.650671816859856,0.7203694642727967,0.17903428412158884,0.16012728311155527,-96.60889621833213,-27.625262933072644,3.206686288262271,13
1767470813.322953,2,right_wrist,1.422,1.5528,0.5841,396.41,-248.15,387.66,-0.029985599099996943,0.6866131785023978,0.4281947045315015,0.5867814771826297,123.8633223485287,-56.24933249490114,95.71516851276947,13
1767470813.975359,1,left_wrist,0.6134,-0.9091,1.4518,233.73,352.17,297.29,-0.8934295924727228,0.44310607249813694,-0.07270105935306678,0.012455030238500784,-53.05814332296843,6.82681981537155,-5.008465295770692,14
1767470813.975359,2,right_wrist,0.4207,0.4011,0.4538,-7.98,330.33,-82.67,0.2745103223865935,-0.014502711716510788,0.4106965382116339,0.8693457929713908,46.836567728397696,14.518738448909827,151.26703551390864,14
1767470814.030646,1,left_wrist,0.4382,-0.0137,-0.0029,-93.66,334.81,70.42,-0.7974609908136393,0.4872994204185939,-0.345928862867367,0.0832374004010302,-71.1042102721114,28.07367124561986,-32.178459049291874,14
1767470814.030646,2,right_wrist,0.2308,-0.0288,-0.0088,59.08,235.69,-62.23,0.25338303298476406,-0.10405776350235986,0.457562466043658,0.8459347552372909,52.198037185821214,24.074822139227297,158.57790846758408,14
1767470814.121113,1,left_wrist,0.1059,0.2518,-0.955,-10.43,224.42,28.56,-0.7556557932936468,0.47899894526867104,-0.43070171027090554,0.11849206413497482,-78.36263100639663,32.50745476399568,-44.55697941273074,14
1767470814.121113,2,right_wrist,-0.3675,-0.2479,-0.8403,52.22,-26.81,22.82,0.24007336509009358,-0.13798896904765948,0.4983984787428137,0.821536840429163,58.285146098890536,27.776930966480926,163.11982635146944,14
1767470814.177661,1,left_wrist,-0.0342,0.2396,-1.0458,-79.24,-15.33,-22.82,-0.7371878852709864,0.5121918631408606,-0.42754715293935297,0.10685012473290875,-82.61459203512011,31.39328775517794,-44.23757505547924,14
1767470814.177661,2,right_wrist,-0.5295,0.4021,-0.3201,-6.93,-153.44,50.26,0.2546521855594612,-0.0750968955810051,0.48478517774893587,0.8333642973506952,56.02665402146826,21.843296392049492,157.73927251757414,14
1767470814.2337952,1,left_wrist,-0.4592,-0.4587,-0.0512,-42.49,-156.66,-82.95,-0.7767398695772774,0.5483218813211346,-0.3006911744660718,0.07485390485298808,-76.34619925390464,22.645576600737094,-28.900834537961625,14
1767470814.2337952,2,right_wrist,-0.246,0.2162,0.022,84.14,-200.83,91.07,0.2663764762503131,0.023133348920863658,0.4959810779070752,0.8261423554244799,58.64085154337825,13.062424228021841,151.6160438381618,14
1767470814.326279,1,left_wrist,-0.3157,-0.3343,0.1781,-12.25,-242.13,-121.59,-0.7976793250349906,0.5697419778104006,-0.1902753023050423,0.053824552623682395,-73.32615020128806,14.017906944692486,-18.17833788924589,14
1767470814.326279,2,right_wrist,0.3689,0.5431,0.5558,146.23,-290.85,212.03,0.2520829210239508,0.2866373362660423,0.49757090642569246,0.7789200417661977,69.68158330527237,-11.284267559470539,136.26579730334956,14
1767470814.384951,1,left_wrist,0.0068,-1.0424,0.8335,-419.37,-285.95,-398.23,-0.6222039174650801,0.7613151603344941,0.13461388908531605,0.12304719664136021,-102.0666370585354,-20.785475400751498,3.1790016984851364,14
1767470814.384951,2,right_wrist,0.69,0.9418,0.6632,217.0,-267.96,290.5,0.17900031984991377,0.45796817727259304,0.4928613479635424,0.717852161508766,83.79841515624281,-28.75479989151753,126.09252653887489,14
1767470814.436707,1,left_wrist,0.283,-0.1279,0.3577,-304.92,-6.86,-472.08,-0.48171431536573994,0.7918153622904692,0.26999419387156426,0.2609269738608363,-122.72905962492675,-42.32476245973151,13.786372216033454,14
1767470814.436707,2,right_wrist,0.814,1.1219,0.7984,403.06,-168.07,342.58,0.025960913666196794,0.5980709722572671,0.5206503879676785,0.6087366562101949,111.17166255394224,-44.51551097983914,113.40733216750687,14
1767470815.078579,1,left_wrist,0.5739,-1.1551,1.3449,304.08,300.51,346.5,-0.8514343349374002,0.5229042232230544,0.033768200724801724,0.022146224170508804,-63.10635770249456,-4.626705856627527,-0.13778951076756912,15
1767470815.078579,2,right_wrist,0.7462,0.752,1.0204,-150.92,323.82,-227.08,0.2734111668383425,0.16463369586335955,0.48167499287168186,0.8161686598225469,61.198489105456154,-0.30636669999543065,142.77779482004078,15
1767470815.1318889,1,left_wrist,0.3826,-0.9872,0.8989,96.46,375.83,206.22,-0.8669083776170688,0.47504490515678877,-0.1478468137847059,0.030716812263478006,-58.76819561619153,13.129664861504006,-11.474119529499093,15
1767470815.1318889,2,right_wrist,0.4807,0.4494,0.3562,-42.98,311.43,-148.89,0.2591286338919417,0.02034416379760234,0.506690604006653,0.8220116166503036,60.06754335744816,13.24702269186811,152.68778051932904,15
1767470815.22686,1,left_wrist,0.4148,-0.2269,0.2259,-23.31,343.42,118.65,-0.8319606699966376,0.4659980929854644,-0.2957035423623214,0.05697925891963518,-64.2180950358843,26.03518335738838,-24.34532929397042,15
1767470815.22686,2,right_wrist,-0.0576,-0.0561,-0.9701,57.54,86.66,-20.16,0.22795940581119187,-0.10968021969134459,0.5627982750975408,0.7869325639836614,67.71847672366337,25.41757436681733,164.89782838791206,15
1767470815.279615,1,left_wrist,0.0566,0.0049,-1.1639,-69.16,8.54,-21.91,-0.7746421059565791,0.49689286142090355,-0.38450989716510237,0.0719668738391855,-75.68921101635699,31.61409787847399,-35.42500608509,15
1767470815.279615,2,right_wrist,-0.2586,-0.3709,-0.751,71.05,-72.1,52.29,0.23158055998753585,-0.06748850770252737,0.5846471166774685,0.7745989249441726,70.63996917681723,22.045258268517575,162.42676444494856,15
1767470815.338702,1,left_wrist,-0.0947,0.1571,-0.6056,38.99,-165.2,-62.02,-0.8037374790669914,0.5001723845055585,-0.31614296767793254,0.0623480112662068,-70.43447697202626,26.475967487093314,-27.727818786739338,15
1767470815.338702,2,right_wrist,-0.185,0.0961,-0.3382,-10.92,-208.95,108.57,0.24676115304117138,0.027742739356473256,0.5637465224581584,0.7877367150127785,68.08385269712521,13.562949075622438,154.3993938162014,15
1767470815.4225972,1,left_wrist,-0.0088,-0.2347,-0.0639,-13.86,-242.55,-163.17,-0.8207437403701404,0.5332925563994554,-0.19406573111022168,0.06570581359986453,-68.44480601580585,14.38732587550762,-18.967794878741962,15
1767470815.4225972,2,right_wrist,0.3636,0.6266,0.4577,125.93,-300.44,247.17,0.21867467486835612,0.34341002113727426,0.506328929944879,0.760185476482279,74.71633007470675,-17.49772872931775,134.50206252923948,15
1767470815.4738188,1,left_wrist,0.059,-0.7271,0.3977,-158.34,-303.17,-286.86,-0.7869279032848377,0.6108446015913853,-0.018903764065751553,0.08518213100490699,-75.3019738219404,-4.261824117110302,-9.067310655233454,15
1767470815.4738188,2,right_wrist,0.7666,1.1219,0.9223,265.37,-253.96,333.41,0.12062124460188552,0.5152943920472101,0.5056170540763929,0.6813762539907727,92.98091879138302,-35.46759416051409,122.68737872548647,15
1767470815.5292659,1,left_wrist,0.1171,-1.2083,1.1151,-403.34,-284.27,-446.95,-0.640374749683108,0.7315126504835248,0.17651208360915333,0.1537950145187446,-98.54002727435169,-26.81259617760128,3.936422169038051,15
1767470815.5292659,2,right_wrist,1.0575,1.1727,0.6305,382.48,-174.58,410.97,-0.048320470328272795,0.6563226020853486,0.4997744386525183,0.5631441064316769,125.86364157456978,-51.953150970516184,102.53986387612103,15
1767470816.183656,1,left_wrist,0.5588,-1.0433,1.2405,179.48,353.85,260.19,-0.9660714323171078,0.2474336218265004,-0.07161937278828394,-0.018795102872956344,-28.72820330418919,8.492499586691878,0.050558824190499854,16
1767470816.183656,2,right_wrist,0.7501,0.7935,0.9999,-146.72,322.07,-201.67,0.22187679810341904,0.23890794613838995,0.45433887962037867,0.8290174076583735,61.170316186589275,-11.215702255457986,143.3904180640227,16
1767470816.2350771,1,left_wrist,0.5588,-1.0433,1.2405,179.48,353.85,260.19,-0.9660714323171078,0.2474336218265004,-0.07161937278828394,-0.018795102872956344,-28.72820330418919,8.492499586691878,0.050558824190499854,16
1767470816.2350771,2,right_wrist,0.5876,0.4573,0.3963,-87.22,319.27,-141.33,0.21402359442952298,0.08896731166959564,0.4605373919829594,0.8568453939114605,55.90686533187665,2.560212749256793,153.3099305656318,16
1767470816.326965,1,left_wrist,0.3884,-0.121,0.0195,-30.38,278.67,52.43,-0.9016041353138858,0.2578533010826754,-0.3457502646008664,-0.03283919661164528,-35.15697278204671,39.821289452722624,-8.920021496634773,16
1767470816.326965,2,right_wrist,-0.0137,-0.0532,-0.5641,59.22,106.96,-55.44,0.18426544059975034,-0.05266390547319113,0.5600126618779752,0.8060140067004017,67.42640529195636,16.934462593039836,165.59073627054923,16
1767470816.384297,1,left_wrist,-0.161,-0.0791,-0.7022,42.98,6.16,-14.42,-0.8720551913150042,0.26534282487295763,-0.4109726376485551,-0.014643076629587286,-40.84406057090002,46.43163507282686,-16.223548228843267,16
1767470816.384297,2,right_wrist,-0.3738,-0.0098,-0.5705,54.25,-34.09,4.06,0.1932506290833804,-0.037821223509487516,0.579453182244245,0.7908588742614835,70.14949702998824,16.486049720601933,164.15340847858252,16
1767470816.470908,1,left_wrist,-0.3518,-0.1693,-0.5417,-10.99,-111.37,-44.38,-0.8876802488094736,0.27838515159085064,-0.36655670779272875,-0.012714685188643984,-40.07925088795981,41.13606576171506,-13.946017250307133,16
1767470816.470908,2,right_wrist,-0.3177,0.0752,-0.0654,15.89,-187.6,129.64,0.20796695935415987,0.11551135411437026,0.5676837382136471,0.7881256525804937,70.77578110754003,3.098002392263983,152.63691073700534,16
1767470816.52257,1,left_wrist,-0.2518,-0.2211,-0.2157,-9.52,-201.04,-89.88,-0.9131311663855058,0.29661172807061376,-0.2796417942848327,-0.003663691522101457,-38.947841882290334,30.855366559232717,-10.687161144139376,16
1767470816.52257,2,right_wrist,0.1322,0.2591,0.2001,19.6,-243.46,197.26,0.1960289259664069,0.2500525036820435,0.5346675815514369,0.7830561811420279,72.039690780948,-10.48567533505878,144.25715736891397,16
1767470816.582276,1,left_wrist,0.1142,-0.9843,0.5368,-318.15,-292.67,-336.84,-0.861916298810105,0.4963487837381063,0.01751745512839041,0.10213382149423907,-59.26245992885388,-7.561202044336024,-9.210602414916686,16
1767470816.582276,2,right_wrist,0.5768,0.649,0.2333,75.74,-267.05,281.12,0.14883999889144217,0.410745740033432,0.4976358464805262,0.7493284700797066,79.09161664215846,-27.8676476034014,134.37696381638554,16
1767470816.643564,1,left_wrist,0.2118,-0.793,0.8662,-500.92,-158.34,-471.52,-0.7002230009993766,0.6554884232849535,0.15108580095945973,0.23915634333897795,-83.58966626783618,-31.676048250661523,-9.254004049338254,16
1767470816.643564,2,right_wrist,1.0224,1.4064,0.8145,358.26,-247.73,392.84,0.008688865717710171,0.5816066030805127,0.5094370289986809,0.6341389251186871,106.59667662764433,-46.78470913950179,118.17544508475599,16
1767470817.384372,1,left_wrist,0.4475,-0.7061,1.3,106.68,344.96,175.77,-0.9586694018473342,0.2533427900563094,-0.12261868692538776,-0.041654127104679604,-29.46877333712804,14.845123982155268,1.051344182782241,17
1767470817.384372,2,right_wrist,0.5231,0.6027,0.7588,-111.23,301.49,-168.42,0.0329075738395886,0.21415549805262343,0.4202292533204717,0.8811707489990482,53.66448901417589,-20.472493903392603,165.28403127788863,17
1767470817.435625,1,left_wrist,0.3382,-0.1962,0.6383,43.19,353.57,102.62,-0.9319825814130109,0.23217606588540185,-0.2752494065103492,-0.0417193790512113,-28.955293193909977,32.16963787691556,-3.3896792824092086,17
1767470817.435625,2,right_wrist,0.2684,0.425,0.1303,2.24,299.46,-103.74,0.016805745600044893,0.08234380032106199,0.4335008650521288,0.8972257605879178,51.96941185522134,-7.65404724402673,174.11902642294916,17
1767470817.5274959,1,left_wrist,0.3196,-0.3265,-0.0346,-18.83,285.6,27.79,-0.8886202927113577,0.24315751608098515,-0.38811286817597884,-0.02442947627603452,-35.443060251495915,44.55956324615851,-11.768805691165124,17
1767470817.5274959,2,right_wrist,-0.1986,-0.019,-0.6217,-57.12,70.35,-18.06,-0.01090918154030413,-0.04989200757699637,0.4509521938675813,0.8910857961970178,53.83207145972141,4.535518241407464,-176.29368584269957,17
1767470817.5852318,1,left_wrist,-0.083,-0.3606,-0.7305,57.47,-35.56,1.05,-0.861293695048201,0.2575054234091836,-0.4377320996979069,-0.015960472396998705,-41.58296381145088,49.663099095385796,-17.806764328442775,17
1767470817.5852318,2,right_wrist,-0.364,0.2406,-0.5671,34.86,-45.08,25.76,-0.010209113315008568,-0.029960635835977453,0.4686397465065301,0.8828221351438353,55.97989474743251,2.4834628442803828,-177.35483170157516,17
1767470817.678567,1,left_wrist,-0.2381,-0.2294,-0.4553,-27.16,-134.61,-41.86,-0.8803144472852897,0.2767556006004283,-0.384770840711267,-0.020105013689024946,-40.58632296054364,43.516782084314734,-14.174514591725865,17
1767470817.678567,2,right_wrist,-0.1347,0.2508,-0.0215,36.26,-212.38,110.25,-0.00012102093496212364,0.13263488810412713,0.4886266275562684,0.8623525906811708,59.96084369729904,-13.230808905580183,172.3606070128769,17
1767470817.733206,1,left_wrist,-0.0395,-0.7354,0.3494,-101.5,-281.96,-165.48,-0.9261471717429086,0.35018975356377574,-0.14006613884593702,0.00017181485376975393,-42.19689560983634,15.02991777010196,-5.848809006801106,17
1767470817.733206,2,right_wrist,0.1103,0.3909,0.2518,22.96,-285.53,163.45,-0.0023996701213705217,0.2723047915256513,0.47962896370515357,0.8341465094757639,63.885113534796275,-27.16703227121028,163.19585681706468,17
1767470817.798691,1,left_wrist,0.0551,-0.6837,0.8316,-333.34,-288.75,-313.88,-0.8688974519377618,0.4902120215655595,0.02840113323399769,0.06247213426558435,-58.60282833878531,-6.350165067484833,-4.658517138134427,17
1767470817.798691,2,right_wrist,0.489,0.6281,0.3328,140.21,-287.56,237.02,-0.04716987477930526,0.4234901365166477,0.49311428332779067,0.758465167799112,77.6532734709558,-43.54509816622619,151.47800043661422,17
1767470818.627059,1,left_wrist,0.7178,-0.9623,1.1268,108.29,320.32,245.7,-0.9441785925241706,0.3202875374356256,-0.07708709421247079,-0.0005086141727959692,-37.68206858870307,8.389039068294688,-2.805365677465311,18
1767470818.627059,2,right_wrist,0.67,0.5412,0.7486,-28.14,362.39,-114.94,0.14567998473882243,0.11831314119204941,0.37554955925339,0.9076022648783724,46.06918175747947,-6.046896443772275,159.18935464396225,18
1767470818.678288,1,left_wrist,0.5544,-0.6085,0.9662,62.72,332.29,167.09,-0.9303797338585938,0.2847615657125934,-0.23008763558622639,-0.019080918962779133,-35.44827788547824,26.040398845557288,-6.103757188402234,18
1767470818.678288,2,right_wrist,0.3821,0.3148,0.0922,50.4,320.81,-86.59,0.12177854332074162,-0.015026386068959419,0.41700724306757053,0.9005826743489843,48.91194892918202,7.390436772010902,167.96298792957606,18
1767470818.7363,1,left_wrist,0.1503,0.0786,0.0776,-79.31,291.41,44.52,-0.819162471030476,0.30360855871682757,-0.4865941538439875,-0.004562737554256823,-55.24128103519794,53.127229186130606,-28.682549970308884,18
1767470818.7363,2,right_wrist,0.0971,-0.0176,-0.5876,25.48,181.3,-52.08,0.10832481795829978,-0.09328066768010006,0.43924130004025697,0.8869225057412856,51.82298091312239,15.107264291059282,173.44533560605825,18
1767470818.829103,1,left_wrist,-0.0093,0.1225,-0.8272,17.08,171.43,15.26,-0.7796809323683798,0.2953125626809237,-0.5519382195340745,0.015885082359087546,-65.65336195479621,58.35217696258622,-41.95132186684221,18
1767470818.829103,2,right_wrist,-0.3992,-0.1976,-0.204,-47.04,-114.24,35.35,0.11643329272311745,-0.05620092073342271,0.44994441540456304,0.883648554517357,53.02665567955158,11.776862551615931,170.87813805808744,18
1767470818.8864121,1,left_wrist,-0.2479,-0.3909,-0.4939,42.49,-136.71,-28.84,-0.8112729632863118,0.3042002670664189,-0.49903777904878305,0.01611433025055503,-58.13159566522093,53.12129388469041,-33.33197641212455,18
1767470818.8864121,2,right_wrist,-0.4895,0.4382,-0.1093,6.44,-157.5,59.92,0.12526374180229308,0.013343302971065878,0.44753984340321973,0.8853468471859673,53.02836030681096,5.076981313726873,166.427963805323,18
1767470818.9745438,1,left_wrist,-0.062,-0.3221,-0.1757,-23.03,-205.38,-90.93,-0.8461484862549514,0.33578669182779647,-0.4134721799020795,0.017910702019206585,-53.428125475094824,43.44747945523394,-25.101413059983653,18
1767470818.9745438,2,right_wrist,0.3655,0.3704,0.0176,27.51,-302.05,197.89,0.10441109527331886,0.2825843418784288,0.44472410095147,0.8434837798925763,61.20832369862167,-22.571891137621563,152.42272935522735,18
1767470819.031245,1,left_wrist,0.2484,-0.8198,0.8306,-307.16,-313.32,-424.69,-0.8184326414836672,0.5620648078447239,-0.06266083490995591,0.10161093890387891,-68.87904330005344,-0.667884550001967,-13.69647688732459,18
1767470819.031245,2,right_wrist,0.751,1.0233,0.5065,256.69,-350.21,308.35,0.024243034460399257,0.47367743184316613,0.47148096860170763,0.7434700142500772,81.6189577404458,-42.958595673722236,138.73251436213866,18
1767470819.0832279,1,left_wrist,0.1405,-1.1439,0.8418,-632.17,-231.21,-550.9,-0.6045184474038121,0.7586202661277566,0.12053158791188585,0.21100918199020602,-101.7416031963117,-27.76711263130308,-4.683062805629197,18
1767470819.0832279,2,right_wrist,0.751,1.0233,0.5065,256.69,-350.21,308.35,-0.05469924914390249,0.6351413106481251,0.47404057750684075,0.6073623617975156,116.84185924338567,-55.424709383204096,109.26190292449716,18
1767470819.6242182,1,left_wrist,0.9511,-1.3342,1.7978,348.81,396.62,433.79,-0.9486785080277853,0.30797419332576353,-0.022490075845741572,0.06822888786997089,-35.97314995472593,0.03702624219720998,-8.239271811044071,19
1767470819.6242182,2,right_wrist,1.2873,0.7906,0.488,-107.24,414.33,-212.03,0.11978968875368959,0.2526307564954733,0.3499501964237829,0.894071021431617,47.565414663311465,-21.58609072203913,155.13324614424752,19
1767470819.682317,1,left_wrist,0.996,-0.0332,0.3972,-69.44,422.73,95.06,-0.8889915698981681,0.22007420734033875,-0.4013001305730578,0.014816784926519267,-34.75603725114506,44.98999390436222,-16.678479818495585,19
1767470819.682317,2,right_wrist,1.2873,0.7906,0.488,-107.24,414.33,-212.03,0.14610266447835868,0.05644201447370956,0.3456116064977769,0.9252139903225091,40.997489069623626,-0.1978043141191964,161.9788325861782,19
1767470819.733771,1,left_wrist,0.5885,0.2879,-0.4885,-40.11,272.51,43.47,-0.8311911942075731,0.22491283364744324,-0.5081753349499905,0.017124394323034867,-45.662913725835054,56.832914803908146,-28.025855508897028,19
1767470819.733771,2,right_wrist,0.1962,-0.1352,-0.7515,-8.33,140.91,-53.76,0.14546854313358504,-0.006451194527024803,0.3555454345158291,0.9232468407975827,41.2263092670132,6.624011494532143,164.58588228978317,19
1767470819.787759,1,left_wrist,0.2479,0.265,-1.342,24.5,104.3,-2.87,-0.8067428139953169,0.21675251502044776,-0.5486950007795763,0.03343913005341138,-51.81653182921498,60.55354071213018,-36.412297417191304,19
1767470819.787759,2,right_wrist,-0.041,-0.4758,-1.0458,38.57,-44.52,25.41,0.14241647424280335,0.01673267594305919,0.37148858645608823,0.9172970050931655,43.49103694543448,4.307802513246317,164.0687427909712,19
1767470819.875566,1,left_wrist,0.1981,-0.0839,-1.117,-19.88,-124.53,-61.88,-0.8294888169465061,0.2420069195507634,-0.5018606351165256,0.03894684031695042,-49.28639114948017,54.4614634361796,-31.942324692199605,19
1767470819.875566,2,right_wrist,0.4216,0.4431,-0.1435,165.27,-327.81,235.48,0.07699122958848668,0.29705812516962343,0.40920885622784725,0.8592886202096816,56.88158996399119,-26.583805971830444,155.17705430793657,19
1767470819.926286,1,left_wrist,0.2133,-0.4221,-0.4011,-125.16,-302.26,-176.61,-0.866217059159011,0.3307883168086561,-0.3717815685318893,0.045006234954488196,-50.235141311696616,37.901946013966466,-24.237990504099475,19
1767470819.926286,2,right_wrist,0.7608,0.7017,0.3636,311.99,-341.88,384.51,-0.04689208960653763,0.4909279814259819,0.4486636125265201,0.7453132306486958,79.50340381062354,-50.70249483485137,144.18403030959553,19
1767470819.987929,1,left_wrist,0.0874,-1.6441,1.5309,-646.94,-334.95,-611.52,-0.6692748515354474,0.7132092625027033,0.04510816590662435,0.20339364383159875,-91.30956564461297,-20.518144088978396,-12.826076992354308,19
1767470819.987929,2,right_wrist,1.4498,0.6812,0.6886,227.57,-220.71,541.1,-0.22233836323583414,0.6403049741007871,0.3938707005180389,0.6208389997808044,122.51504107459463,-75.97681052563517,109.56626384766192,19
1767470820.589164,1,left_wrist,0.4934,-0.8813,0.977,82.95,409.5,164.15,-0.925800519805102,0.20705564282685127,-0.31559543959905195,0.020515282265756888,-28.998287816305094,35.15996728252031,-11.906878961001256,20
1767470820.589164,2,right_wrist,0.8491,0.3953,0.4953,-71.33,351.89,-120.12,0.23073072202411773,0.15122505069865055,0.3227315071521579,0.9053942192474593,41.250077764389566,-7.1754675360746205,148.70241137465493,20
1767470820.672683,1,left_wrist,0.3958,-0.2396,0.307,22.4,388.85,51.66,-0.8634353098052426,0.18586257307557252,-0.4673814927436959,0.03858898744365786,-35.85597733984958,52.444460920059214,-23.226200289357728,20
1767470820.672683,2,right_wrist,0.0898,-0.1532,-0.812,88.55,122.71,-14.0,0.19781256188321877,0.00021894491390056771,0.42234270223737896,0.8845884830197321,49.278582160770426,9.596123234108124,159.19923519435287,20
1767470820.7241971,1,left_wrist,0.3504,0.4036,-0.2635,-114.17,263.55,-11.76,-0.793751946965985,0.22380280850747683,-0.5641605769059966,0.039912317108465656,-56.6692102351037,61.3711865548434,-41.24488645125982,20
1767470820.7241971,2,right_wrist,-0.0942,-0.4616,-0.7964,48.51,-71.61,49.84,0.19202072757493838,0.03970966049871419,0.43733653796000893,0.8776604899446151,51.88028639625049,5.638530961591772,158.06227452585452,20
1767470820.777363,1,left_wrist,0.2386,-0.1918,-0.9902,45.08,49.56,-27.3,-0.7821173791816423,0.2163386715642986,-0.580632802277599,0.06599646420147293,-60.782534451071626,61.605091666955026,-48.191408139621466,20
1767470820.777363,2,right_wrist,-0.0454,-0.0678,-0.4621,11.62,-202.72,115.36,0.1852624202405524,0.13937754803915006,0.4250571426518668,0.8749732340076682,52.98296256116668,-4.957053795304948,153.61835966892582,20
1767470820.8433201,1,left_wrist,0.0717,-0.307,-0.2684,-9.73,-258.65,-110.32,-0.8758583972546214,0.29412144002869234,-0.37218115324826984,0.08857672177723533,-46.580192487741094,36.85925217423549,-27.875551374342205,20
1767470820.8433201,2,right_wrist,0.2977,0.2552,-0.0361,74.69,-289.87,209.37,0.15061875224481902,0.29490130702551365,0.41330141162731826,0.8482506432262362,58.483307040763385,-22.07367737318087,147.39915368259312,20
1767470820.9230878,1,left_wrist,0.1767,-0.547,0.4534,-177.66,-359.24,-279.37,-0.8806966218088212,0.41362094219447637,-0.1974399389134204,0.11961875703479107,-53.22322637884741,14.407444166691336,-22.71645729895054,20
1767470820.9230878,2,right_wrist,0.59,0.5363,0.2718,179.48,-335.23,322.35,-0.022956744998823626,0.640815115586422,0.37762044449485066,0.6680058198807336,102.63316074983997,-60.864923649188235,111.40130367062984,20
1767470821.579515,1,left_wrist,0.2835,-0.9721,1.4904,423.92,341.04,398.86,-0.9432222467283254,0.27607755194389505,-0.17459106451212553,0.06025727161064177,-34.56089041578955,17.22260965456014,-12.70520786014696,21
1767470821.579515,2,right_wrist,0.71,0.5915,0.2806,-50.05,358.33,-90.58,0.4824103310589045,0.11679363752034112,0.3739479812797976,0.7834554397150929,45.22988500581944,10.240915406672116,121.03030533789962,21
1767470821.633921,1,left_wrist,0.4787,-0.2108,0.1435,-37.38,311.57,70.63,-0.8541557687300867,0.2254009010182942,-0.46731280758629806,0.03508698378412846,-42.15030156723919,51.48991623071156,-25.75986835058002,21
1767470821.633921,2,right_wrist,0.3919,0.3011,-0.3333,107.38,260.19,-57.05,0.4486047226991824,0.04506624910572973,0.46640978012566425,0.7610418864731818,53.22304641577557,20.479526245188648,129.30760362636454,21
1767470821.723697,1,left_wrist,0.0888,0.1313,-0.4973,-14.0,190.68,31.22,-0.8087227870021451,0.2214660686004402,-0.543532550166835,0.038634196656396606,-52.144822183623965,59.54437556545683,-36.74484073160465,21
1767470821.723697,2,right_wrist,-0.1893,-0.3177,-0.6598,51.59,-80.5,28.0,0.4426402578054981,0.0538564372464952,0.5023548238901752,0.7408162506662955,58.2822303847479,21.403243443929583,130.31243932915802,21
1767470821.776244,1,left_wrist,0.06,-0.2601,-0.9521,-0.42,42.07,-28.63,-0.7950867222640269,0.23010320746545257,-0.5586088566094509,0.05334569627476054,-57.60143498554137,59.73856413900472,-42.72292767650091,21
1767470821.776244,2,right_wrist,-0.144,0.0361,-0.246,14.07,-210.91,84.56,0.458767160645965,0.1412440944207574,0.4660764697824737,0.7432062448736597,57.414200221831,12.573636585831371,123.53279026995985,21
1767470821.83098,1,left_wrist,0.0615,-0.4109,-0.1854,-65.31,-268.38,-137.55,-0.8679525273310478,0.296740918808674,-0.39184100633537233,0.0711608260092129,-47.84590547424848,39.64032526663724,-27.54218178531875,21
1767470821.83098,2,right_wrist,0.2645,0.162,0.0395,70.63,-288.19,162.96,0.45293336489640873,0.2829811164569519,0.4153713691359883,0.7363692554652784,60.31820638290379,-2.3203159324859217,115.46112408808794,21
1767470821.893651,1,left_wrist,0.2381,-0.4943,0.3523,-217.91,-311.78,-303.59,-0.8642268460270345,0.433020706550991,-0.23221246882169982,0.10808513139176901,-57.07630500424902,17.924427876335297,-24.06136928182828,21
1767470821.893651,2,right_wrist,0.2645,0.162,0.0395,70.63,-288.19,162.96,0.4367084426791592,0.41829238891619785,0.3552044892059967,0.7128442917744595,65.47600300287564,-16.62539450229046,106.28135766572528,21
1767470822.539066,1,left_wrist,0.3294,-1.0941,1.4928,417.34,343.49,322.42,-0.971185696212071,0.10140335098853848,-0.21407134991953772,-0.026251876599539155,-11.81584058310009,24.905957426106102,0.4785729981048316,22
1767470822.539066,2,right_wrist,0.8823,0.9126,1.0258,-115.85,385.07,-203.21,0.4316609990507596,0.281860517027782,0.1778908891138215,0.8381994168511606,34.84736737930863,-18.598441210154338,119.62086549009528,22
1767470822.6219242,1,left_wrist,0.4748,-0.4616,0.6388,12.18,390.04,142.73,-0.9200034357775579,0.08789729181195294,-0.37608544073417816,-0.06653935314828269,-9.043760925909888,44.72437683989532,4.546423488672857,22
1767470822.6219242,2,right_wrist,0.4973,0.1093,-0.3416,17.78,271.6,-94.36,0.4533283969178616,0.024988238173754174,0.31144667657276814,0.834787350259113,33.99150524244235,13.925232604475587,127.26729201759834,22
1767470822.672077,1,left_wrist,0.3636,-0.3001,0.2411,-91.35,292.18,54.11,-0.8603578983078314,0.12488567069011845,-0.4858100356356434,-0.09042380964826403,-14.344004698190831,59.15151406791557,3.8301258313660136,22
1767470822.672077,2,right_wrist,0.2098,-0.2542,-1.1985,49.07,78.61,-24.01,0.449477831681513,0.003928871388531607,0.3490619183708444,0.822259095382814,37.36892450277987,17.89840263508167,128.7714541164398,22
1767470822.724777,1,left_wrist,0.164,0.0874,-0.6398,-56.14,181.65,17.5,-0.812517953779598,0.14936630499836612,-0.5547647155332973,-0.09869342488843907,-21.40525376134177,68.59053503256676,-0.8391391216340208,22
1767470822.724777,2,right_wrist,-0.1425,-0.4753,-0.7008,49.49,-121.8,54.25,0.44848742006832615,0.06227252217960705,0.34414146543548974,0.822525269392838,39.468452553729804,11.902377566298753,127.07967116793176,22
1767470822.779006,1,left_wrist,0.0151,0.0625,-0.9335,-39.55,-25.9,-18.97,-0.8139874397051677,0.16762202913122162,-0.5465402996638363,-0.10305825631904354,-24.82417359228744,67.56356898804302,-2.3197586814101894,22
1767470822.779006,2,right_wrist,-0.2118,0.1508,-0.1581,-2.24,-224.14,102.2,0.4431933811632124,0.15511101817471806,0.2993251290768626,0.830617039337047,39.401889348578024,0.4378656379504266,123.99058893501672,22
1767470822.8324149,1,left_wrist,0.0512,0.0059,0.0083,28.21,-224.98,-108.15,-0.9028813611424096,0.16859442442642117,-0.38956086329432704,-0.06799633477866389,-21.4615735920595,46.5839432481243,-0.714481250262844,22
1767470822.8324149,2,right_wrist,0.2547,0.1166,0.1113,20.3,-283.15,160.23,0.41471839671984867,0.28387937876391084,0.2366307472901213,0.8315209192628007,40.87211402168722,-16.01166379540261,120.9850384705658,22
1767470822.8848262,1,left_wrist,0.3104,-0.1225,0.4797,28.28,-332.92,-144.27,-0.9548993785140869,0.1698101105851313,-0.24174437800175422,-0.029855635331055896,-20.575828612784164,28.15267648076281,-1.6302098219267227,22
1767470822.8848262,2,right_wrist,0.8101,0.4982,0.4768,-11.48,-342.72,203.21,0.37016792394441017,0.42436495608150465,0.1411193518719213,0.814233026018889,42.196562351454624,-35.915269157144756,116.84923626488607,22
1767470822.972696,1,left_wrist,0.5553,-0.8008,0.998,35.91,-346.01,-209.86,-0.9815080192020824,0.17148634559626205,-0.07686515416300989,0.036416886076939596,-20.215628476114876,7.955128987969809,-5.670094065219738,22
1767470822.972696,2,right_wrist,1.6914,1.6904,1.1239,335.72,-352.94,399.0,0.07192290160733754,0.731347056949067,0.039461802778159284,0.6770534282003281,114.66623653150836,-79.94665425534563,62.693101596824526,22
1767470823.578507,1,left_wrist,0.8818,-1.039,1.5426,112.49,479.43,228.97,-0.8868267302014737,0.18974028701507817,-0.40073307278210274,0.13019208294751392,-35.99970097469032,41.40338916988872,-30.703743040109636,23
1767470823.578507,2,right_wrist,1.0677,0.7818,1.1087,-141.33,419.16,-229.88,0.46061682938707876,0.22469070763039378,0.2862992239844492,0.8095548015643226,42.370645669293246,-5.742072788208161,118.49527511002213,23
1767470823.6375208,1,left_wrist,0.9389,-0.3504,0.8877,-63.14,464.59,119.28,-0.7909556776225624,0.16398356795798397,-0.5791072556387806,0.11015122306594038,-54.55363714819314,61.63878847150421,-50.05343458152985,23
1767470823.6375208,2,right_wrist,0.8745,0.3396,0.6198,-58.94,408.52,-161.35,0.46268790593059006,0.05065150283561065,0.354021972742121,0.811186026618948,39.8534993850571,14.207116058331103,125.77391497596463,23
1767470823.6912022,1,left_wrist,0.772,0.0844,-0.0303,-20.51,362.18,82.18,-0.6927646020469717,0.13156987039228324,-0.7017211545137405,0.10175459038078787,-93.42316107488065,70.99312020678515,-90.97347026437782,23
1767470823.6912022,2,right_wrist,0.6427,-0.0049,-0.6237,17.78,290.85,-94.57,0.44534853702667954,-0.05872533185988702,0.4186969856798497,0.7892457476279171,43.448551659169055,27.7509773889849,132.37266175176075,23
1767470823.7741451,1,left_wrist,0.7666,-0.388,-1.6724,-171.36,217.91,-4.55,-0.6079010350057962,0.17543691727514824,-0.7718006409420085,0.06326128624505999,-129.12319625838165,66.37101564893835,-119.82686187535599,23
1767470823.7741451,2,right_wrist,-0.6427,0.4738,0.2118,-152.18,-151.97,16.52,0.45928965466093696,-0.03126166540152648,0.4120652642090392,0.7863065174790903,43.24515771327852,25.320234943496274,129.59702033920317,23
1767470823.825845,1,left_wrist,-0.1488,0.6608,-0.5114,184.66,-146.72,31.78,-0.6672418352173334,0.11735601112689847,-0.728370360109158,0.10243299518535814,-106.15513737166741,71.43374424809626,-104.92987830706741,23
1767470823.825845,2,right_wrist,-1.0175,0.3943,0.385,29.33,-48.65,21.35,0.462097182018035,-0.008993915714156371,0.4142311358195294,0.7840904730761497,44.32083373395658,23.386657908756128,128.6115461163151,23
1767470823.8772402,1,left_wrist,-1.1009,-0.3128,0.7154,3.99,-117.46,-16.94,-0.7052901117344663,0.12625964601809797,-0.6899848897099901,0.1026898828943802,-87.14326119464182,71.3246031217448,-85.2077007957666,23
1767470823.8772402,2,right_wrist,-0.4987,0.3318,-0.4651,58.94,-114.52,62.37,0.4604719732107096,0.05164914259713816,0.41471939544386316,0.7831383983684445,46.97385924292466,17.519866128140297,126.75194666509135,23
1767470823.93095,1,left_wrist,-0.0605,0.0244,-0.6217,16.38,-145.04,-78.82,-0.7411849979335636,0.15148886061303338,-0.6423409525697159,0.12285774131172236,-71.37199710692863,66.20058622642736,-69.00094193068782,23
1767470823.93095,2,right_wrist,0.0698,-0.1703,-0.3938,30.8,-227.64,132.09,0.4520547958084887,0.15918946270511217,0.3773521100044425,0.7924080777133702,48.151080202640664,5.099271346455097,122.87161903119632,23
1767470823.993966,1,left_wrist,0.3235,-0.124,-0.2601,-52.71,-280.56,-195.72,-0.8191736905526656,0.26175786279395613,-0.4802360907553038,0.17265741544436933,-55.96071562274582,44.139257163892864,-48.1154599187193,23
1767470823.993966,2,right_wrist,0.5202,0.4377,0.0815,73.57,-329.84,218.12,0.4171211091821882,0.32297052506762924,0.3171105686177066,0.7881249313929332,52.50132779140279,-14.15436844173409,117.2119205999399,23
1767470824.0737631,1,left_wrist,0.5173,-0.5319,0.5871,-178.64,-352.66,-344.33,-0.8255864244022936,0.41504019204509623,-0.31665626803697416,0.21419034231893222,-61.006434805587894,20.18539925261328,-41.06076536847533,23
1767470824.0737631,2,right_wrist,1.179,1.5509,1.0521,333.62,-341.88,387.66,0.15972752547897434,0.6833539873357213,0.22476910192179358,0.6760127930875309,93.83315552065126,-58.44174200654493,91.64552464449984,23
1767470824.67676,1,left_wrist,1.3776,-1.9959,2.2804,266.98,577.15,400.82,-0.9101775647256839,0.16648817523603038,-0.2658629836100319,0.270509449229731,-29.09186913691458,23.196876173401854,-39.20123135980481,24
1767470824.67676,2,right_wrist,1.8368,0.3816,0.3953,-56.42,463.82,-197.05,0.45496482793944926,0.15046308757183735,0.4983401062393237,0.7225129778279117,61.87778327610097,13.652426558704647,123.81121178798641,24
1767470824.729609,1,left_wrist,1.8739,-0.6032,1.2503,-19.67,564.06,159.95,-0.8363882703615789,0.08773045135781314,-0.48521188846434166,0.23943151922624512,-36.42438257581861,50.32158955811177,-49.52056132317021,24
1767470824.729609,2,right_wrist,1.2254,-0.1396,-0.772,-24.22,294.49,-102.06,0.4186780028140478,0.03360737817848045,0.5514334616132188,0.7207637695562059,64.66982642524675,24.412314965954703,135.29178954742912,24
1767470824.784406,1,left_wrist,1.0907,-0.0952,-2.134,-34.16,196.7,10.64,-0.7891094774444707,0.07904731679553192,-0.56194223683336,0.2351141781719278,-47.54033788665019,58.17879390054249,-60.718981911285155,24
1767470824.784406,2,right_wrist,0.7476,-0.8242,-2.0999,233.59,2.1,27.86,0.40220104690116554,0.0828438154970843,0.6247840814521947,0.6640904092587312,77.08509888388991,23.11301552656393,136.10254021738416,24
1767470824.87075,1,left_wrist,0.0415,0.9428,-0.8808,127.96,-234.01,34.09,-0.8009438123003132,0.03968883781223867,-0.5460472315428084,0.24237620884771047,-39.339170802679156,58.811369992750045,-56.453839521678596,24
1767470824.87075,2,right_wrist,-0.4158,0.6027,0.0322,164.78,-129.22,76.51,0.4623327267833336,0.20503960804776566,0.5279815740458754,0.6822335863505591,68.50396187517161,12.030743303867931,119.95918229839592,24
1767470824.931187,1,left_wrist,-0.5183,-0.5363,0.1366,-87.01,-149.03,-88.83,-0.8206798632383654,0.11033409598237173,-0.5012351191930019,0.25114598270007793,-42.45225728956032,50.110903603869495,-54.61282446067039,24
1767470824.931187,2,right_wrist,0.4768,-0.1513,-0.4182,-35.42,-289.52,174.79,0.4725970954032453,0.3242714295478721,0.43896463249168116,0.691961037065555,66.13718496944267,-1.9403812715770863,110.07176296177998,24
1767470824.981615,1,left_wrist,0.5876,-1.2122,0.2513,-221.55,-310.45,-357.21,-0.8222095237160857,0.36378553647954126,-0.26367885171792393,0.34943532408097644,-52.6922649994821,10.33245428680907,-51.17800484991554,24
1767470824.981615,2,right_wrist,0.8857,0.7266,0.2015,106.33,-374.57,282.1,0.43187134215420636,0.505627332174117,0.34407393824721966,0.6629036655528902,74.24511134238895,-21.91144275423659,97.16121565735254,24
1767470825.0340118,1,left_wrist,0.5178,-1.1936,1.3156,-472.08,-383.18,-553.28,-0.6647501764868299,0.6171519318824816,-0.09970781604878175,0.4090098375995762,-76.3921520310117,-21.856351919581602,-45.93025727363558,24
1767470825.0340118,2,right_wrist,1.1985,0.9101,0.8438,302.54,-364.84,396.76,0.2931470126722235,0.7030252262964493,0.2624039387893061,0.5924225966824997,99.90012415551865,-42.77571103237719,77.38094299877368,24
1767470825.729035,1,left_wrist,1.1351,-1.8895,2.0472,376.81,461.23,422.03,-0.9416481856906792,0.23032523180486414,-0.11488063981942598,0.2169133941787988,-29.13839103600807,6.686287302650364,-27.683815637094952,25
1767470825.729035,2,right_wrist,1.4006,0.6739,0.6783,-92.54,454.65,-189.91,0.49261726527044264,0.2720967916087604,0.43747729468835134,0.7013595244850178,61.98348351834264,2.8282588108101794,111.53257839177223,25
1767470825.782509,1,left_wrist,0.9331,-0.794,0.4377,29.68,410.41,127.12,-0.8499600745493526,0.12046422786043934,-0.49174447920586845,0.14575187356804822,-35.53898022398228,53.20757638875097,-37.6984777775297,25
1767470825.782509,2,right_wrist,0.9184,0.1649,0.1303,15.26,378.42,-135.24,0.45141766089642243,0.1345659260206177,0.52970632908483,0.7053547418940984,65.13555644841279,16.76243927035639,125.51470462911034,25
1767470825.834068,1,left_wrist,0.6281,-0.224,-0.4626,-28.21,265.3,75.74,-0.789571926436017,0.09967790806754379,-0.5922681728675823,0.12593212074562524,-47.74072636040163,65.5290407078053,-49.917641937082124,25
1767470825.834068,2,right_wrist,0.611,0.1649,-0.814,-4.62,211.89,-83.86,0.4238717696544712,0.052126968408980276,0.5745687847524229,0.6982021295030545,68.44999985915004,24.47503127358893,134.26253976098923,25
1767470825.885704,1,left_wrist,0.2206,0.0605,-1.3459,-106.47,97.93,2.87,-0.7551218666866639,0.13066021009450313,-0.6344427756762424,0.10100118980454408,-63.70643741598872,68.71235768779536,-61.26095391757602,25
1767470825.885704,2,right_wrist,0.611,0.1649,-0.814,-4.62,211.89,-83.86,0.3917970656555632,-0.031436063793290885,0.6140550080161014,0.6844291638783521,73.35746037190361,31.61449867056673,144.2363997801414,25
1767470825.9366012,1,left_wrist,-0.5973,0.2381,-0.1991,77.42,-137.2,-8.89,-0.7939826325955915,0.11075955079401681,-0.5867182694384468,0.11439219095565696,-47.21800836758486,65.00547635798503,-47.51949939898049,25
1767470825.9366012,2,right_wrist,-0.8086,0.0117,0.2035,-46.2,-128.94,16.8,0.4225379704719481,0.00029968232431138423,0.5766997937347604,0.699198771170428,67.45849922088497,29.13939491299791,137.39886174991767,25
1767470825.9955149,1,left_wrist,-0.9399,-0.387,0.3113,-51.31,-65.8,-30.73,-0.806021959547069,0.14338147931383743,-0.5633114744922075,0.1115819645959581,-47.740682472554866,61.173677459955236,-45.08004406327929,25
1767470825.9955149,2,right_wrist,-0.8857,0.3543,0.163,19.67,-88.55,44.03,0.4332014046894005,0.03798550454745398,0.566611336853157,0.6998894465334393,66.74285551946316,25.959922456793155,133.75419774371443,25
1767470826.071834,1,left_wrist,-0.4343,-0.1274,-0.164,-52.36,-126.7,-63.77,-0.8267986278937923,0.18348885985076338,-0.5197330972462263,0.11230928212064176,-46.955199047493124,54.90642771244501,-40.90335938172233,25
1767470826.071834,2,right_wrist,0.1835,0.3948,-0.1527,45.71,-265.16,166.25,0.4431866011148668,0.255570055068198,0.5127448074437219,0.6894652608973063,69.7964015444062,5.858377460486441,118.62279275985547,25
1767470826.129817,1,left_wrist,-0.0805,-0.3406,-0.2523,-32.13,-203.0,-128.17,-0.8569340110021862,0.23620736570056525,-0.4375724928953308,0.1356484229096313,-46.00590086417773,43.30321505758591,-37.12212077334769,25
1767470826.129817,2,right_wrist,0.5373,0.4773,0.551,151.34,-313.67,244.16,0.4147533604126782,0.42849959397314463,0.4594478680707532,0.6582365870387946,77.63089859170492,-10.544149714569395,107.079286522247,25
1767470826.181719,1,left_wrist,0.202,-0.5876,0.3499,-154.84,-285.6,-224.21,-0.8692029993733101,0.35122315307575014,-0.30897616163079156,0.1601941764480616,-51.6019294055504,25.125233772690994,-33.18244492069597,25
1767470826.181719,2,right_wrist,0.9745,0.8711,0.9794,67.97,-322.77,301.98,0.37214604983435745,0.5835717974488465,0.3541395344091666,0.6289168983128574,85.57658798765455,-28.06371043311643,92.72175243426503,25
1767470826.235571,1,left_wrist,0.9209,-1.4972,0.754,-144.06,-255.15,-343.7,-0.7887172570402614,0.5409945156032969,-0.0034977067486516474,0.2919551139842232,-64.14050309594792,-18.081820786613434,-29.238549531552366,25
1767470826.235571,2,right_wrist,1.038,0.772,1.0502,334.18,-220.08,348.53,0.21909348470644016,0.7322593215654439,0.3109868921129526,0.5648729803005552,111.57709905995576,-43.70905079971422,76.52742914721257,25
1767470826.9699252,1,left_wrist,0.5602,-0.7798,0.9638,118.23,313.74,247.87,-0.9031647353443768,0.3205511874081244,-0.25256441850645384,0.13323517398217322,-44.10155627805007,21.764788968332873,-25.689118476436573,26
1767470826.9699252,2,right_wrist,0.286,0.2455,0.4431,-20.93,285.11,-91.91,0.34393185705435325,0.22357489473520267,0.4279488880530088,0.8053476847681879,57.6625198806199,-3.7693736853205033,131.67378025748818,26
1767470827.02598,1,left_wrist,0.364,-0.4031,0.5597,12.25,307.23,176.82,-0.8720598232554263,0.27569737690850926,-0.3895924405639751,0.10826057123850587,-46.07321166787647,38.30164176573434,-30.953849878562302,26
1767470827.02598,2,right_wrist,0.062,0.001,0.326,8.75,222.32,-70.21,0.324789812358197,0.13187847766029742,0.4661009779343204,0.8123235336286889,57.8046782732546,5.078108045731461,139.21897190908925,26
1767470827.080481,1,left_wrist,0.1269,-0.3343,0.6202,66.22,258.65,132.51,-0.8367593121700054,0.21390270769176678,-0.493921254997326,0.10060456749460474,-47.398746596857855,51.58651469283478,-37.66555150717475,26
1767470827.080481,2,right_wrist,0.062,0.001,0.326,8.75,222.32,-70.21,0.302599257417588,0.039326738199265646,0.49938565212006764,0.8108643952779933,59.14078209404686,13.79508508626808,146.92374189538046,26
1767470827.134376,1,left_wrist,-0.1547,-0.2508,-0.5431,32.2,132.79,54.39,-0.7780277064827354,0.1582849224673157,-0.5997496312733477,0.09959493487227923,-57.78222059454929,64.38440777600647,-52.90384615575543,26
1767470827.134376,2,right_wrist,-0.3797,0.1762,-0.3177,-0.21,89.88,-38.64,0.2970937475954102,-0.0031505543922921964,0.5147902575487275,0.8041867754941326,60.36486489308769,18.116443116485723,150.0430995941782,26
1767470827.188502,1,left_wrist,-0.3621,0.1191,-0.6603,3.92,-36.47,-0.07,-0.7850973266267111,0.1582581965513869,-0.5909384531492108,0.09678985245113222,-55.27702756598135,63.799280398738155,-50.16155462247939,26
1767470827.188502,2,right_wrist,-0.5754,0.2704,-0.7471,24.15,-39.34,8.82,0.3030823948224029,0.013851032411096201,0.5217232418440713,0.7973418775967914,61.55599572432674,17.10730858788138,148.61295292325477,26
1767470827.2761102,1,left_wrist,-0.7881,-0.5402,0.0361,35.35,-113.19,-28.14,-0.812329447336051,0.16097981286872323,-0.5497963212438304,0.10922625136022948,-48.00105221414901,59.100015043483864,-43.649273440947916,26
1767470827.2761102,2,right_wrist,-0.8169,0.3792,0.1366,75.46,-75.25,56.0,0.31299023692485173,0.09596668658821364,0.5064242806137205,0.7977229811531572,61.63581237980455,9.433458180526124,142.7900941982807,26
1767470827.329362,1,left_wrist,-0.5714,-0.345,-0.1015,-67.27,-128.87,-93.45,-0.8411483955823702,0.2399527476580359,-0.46886367273559104,0.12271475823818472,-49.36429343567865,46.87603032332596,-39.136304364198175,26
1767470827.329362,2,right_wrist,-0.3001,0.2377,-0.3231,94.71,-148.05,92.96,0.30864197165962654,0.17878608552772585,0.5171669567706342,0.7780192849642815,66.32889078144028,2.3521260213693553,138.26055375236095,26
1767470827.3841228,1,left_wrist,-0.245,-0.2635,-0.0307,-104.72,-175.98,-170.8,-0.8491510719645651,0.3229953546801041,-0.3919020914984784,0.14501451139669408,-53.827534174249465,34.882136072372845,-37.50512108331842,26
1767470827.3841228,2,right_wrist,0.0961,0.0893,-0.0815,117.6,-231.77,145.32,0.2974010162041933,0.3068115502674942,0.511925227105621,0.7452193435734399,73.08124622781006,-8.788624974320879,129.9695933261337,26
1767470827.4358778,1,left_wrist,0.0561,-0.5363,0.1898,-155.54,-240.73,-262.29,-0.8386547895611398,0.4375743745310542,-0.26883727741037683,0.18142031025905847,-60.39183565861252,16.98693197361672,-34.34573165807137,26
1767470827.4358778,2,right_wrist,0.551,0.5231,0.1464,48.02,-312.69,206.78,0.2867095851837484,0.4580835798577888,0.45106775048594466,0.7102780667456834,79.13551334687874,-23.08414356571201,116.87945610863466,26
1767470827.4909341,1,left_wrist,0.2011,-0.649,0.8584,-369.18,-260.54,-362.25,-0.7472794843776482,0.6157565419281378,-0.12602110979164205,0.21572188852284,-77.84509622645125,-4.4344408182459425,-28.622705694710348,26
1767470827.4909341,2,right_wrist,0.7681,0.6554,0.6627,275.17,-310.03,281.68,0.19963387384906547,0.6295980513468926,0.42834330122895065,0.6166641115262794,101.57890827228144,-37.26320166355055,99.21909191727877,26
1767470827.5444171,1,left_wrist,0.8491,-0.4753,0.1366,-6.93,-75.6,-405.3,-0.6987822306295817,0.6373126852659342,0.010472953029933982,0.32469409081519035,-78.0266555762079,-25.372400986263354,-29.173142306115487,26
1767470827.5444171,2,right_wrist,1.4089,0.934,0.6178,51.73,-263.48,349.65,0.13723138241588703,0.7560818476983403,0.31512451259229685,0.5569598987582101,121.47410297710886,-49.08872350489419,73.95700004765708,26
1767470828.2787468,1,left_wrist,0.8511,-0.6022,1.0287,23.52,414.54,200.41,-0.9376348420932615,0.26342764487186004,-0.20922894634421232,0.0875786893125274,-34.445907806918704,20.256250524219876,-17.011334774416543,27
1767470828.2787468,2,right_wrist,0.6398,0.551,0.5866,-60.55,340.83,-118.79,0.3114279826940146,0.27527710806601285,0.4102832793025345,0.8117282526158046,58.57275973774849,-11.031755655232569,131.8199276644824,27
1767470828.3301601,1,left_wrist,0.3328,-0.2313,0.5661,28.63,287.14,95.06,-0.8593127814574847,0.18330161094394737,-0.4717639986438891,0.07362603230300667,-38.252921973155075,51.6092869069444,-28.83230148971586,27
1767470828.3301601,2,right_wrist,0.3645,0.3084,0.368,-14.21,280.0,-92.26,0.29171153937863314,0.1583120156896265,0.44761102114277695,0.8303529714724673,56.69030667260147,-0.10101854225989608,141.23170480140604,27
1767470828.381124,1,left_wrist,0.0542,0.0615,0.3377,41.23,223.93,78.96,-0.8161292299582802,0.14227307331578506,-0.5556878395307155,0.07001769501112945,-42.19919303976479,62.511427710203456,-36.169079759238436,27
1767470828.381124,2,right_wrist,0.0298,0.1215,0.1142,-28.14,179.48,-76.51,0.28440459195308376,0.07591819901429468,0.4606287920649149,0.8373598814459905,55.297414750550836,7.75099739330081,146.54547931558898,27
1767470828.435231,1,left_wrist,0.122,-0.1484,-1.3444,-17.57,181.3,8.05,-0.7657374531452463,0.14210855451299553,-0.6228704072899949,0.07405246320855657,-59.34397327123714,68.88566256049869,-53.732296524920315,27
1767470828.435231,2,right_wrist,0.0298,0.1215,0.1142,-28.14,179.48,-76.51,0.2749002091512625,-0.00566966207255694,0.4710072060536395,0.8381825229543499,54.72944598541976,15.572909063636674,151.78049656227736,27
1767470828.4858549,1,left_wrist,0.0229,0.1474,-1.157,72.73,-113.05,-26.25,-0.7958161662364073,0.12880583397630777,-0.5840418788642358,0.09476692684258653,-47.965519756429046,64.84576727241073,-45.13930112259242,27
1767470828.4858549,2,right_wrist,-0.4246,-0.0898,-0.7764,7.07,-80.5,36.12,0.2786611189211704,0.029605815282485563,0.46741652220460517,0.8384469400464244,54.956357363243214,12.172509701521376,149.57927617297076,27
1767470828.5384378,1,left_wrist,-0.7178,-0.733,0.185,2.59,-183.96,-33.39,-0.8377487788368606,0.14752918373985804,-0.5163049389244657,0.09920349562693846,-39.55298853811098,56.6989022939697,-35.464992292414564,27
1767470828.5384378,2,right_wrist,-0.8223,0.5836,0.2689,-11.9,-143.78,37.31,0.2958012827835007,0.08410150608733458,0.44590611133026153,0.840592813231116,53.65498349791981,7.031150766172425,144.78571245751468,27
1767470828.621897,1,left_wrist,-0.568,-0.225,0.2381,-79.66,-150.57,-73.15,-0.8588041918236872,0.19891669024306466,-0.4619841513389493,0.09725304293665595,-41.13759593087312,49.00941230628821,-32.33461834748743,27
1767470828.621897,2,right_wrist,0.2796,0.0083,-0.0986,26.53,-277.83,142.59,0.3040671786753581,0.27177131595520476,0.3820344147391686,0.8292968157609704,54.95310775958807,-12.61683140149245,133.14766176101367,27
1767470828.676932,1,left_wrist,-0.1044,-0.3118,-0.0556,-46.41,-203.35,-148.68,-0.8821190839088827,0.25724358697516203,-0.3736282626039386,0.12686047511919485,-42.99441723380597,36.43433745110346,-31.138959969772277,27
1767470828.676932,2,right_wrist,0.6749,0.6242,0.3841,103.11,-321.09,191.52,0.2697138931607836,0.43113479196573995,0.347220225084456,0.7879183474732716,63.596389467661695,-29.478556610762375,123.67944841327343,27
1767470828.7319381,1,left_wrist,0.2957,-0.5368,0.3318,-148.47,-269.92,-246.54,-0.882449861795322,0.3665723882310859,-0.24309506606853162,0.16676844562779697,-49.90053417434148,17.864863685053116,-29.768249313743624,27
1767470828.7319381,2,right_wrist,0.976,1.0814,0.7554,251.02,-324.94,275.73,0.17109351807141657,0.601180272569589,0.33199899740218153,0.7064601571716883,85.19553167747283,-47.37604851181031,108.83446068940174,27
1767470828.78221,1,left_wrist,0.4387,-1.3293,1.1517,-681.38,-253.96,-510.09,-0.5916151253603503,0.7366880831007858,0.05167535120136209,0.3234375824488589,-96.17952294931179,-32.52646155455302,-21.321233044138143,27
1767470828.78221,2,right_wrist,0.976,1.0814,0.7554,251.02,-324.94,275.73,0.06637403304574904,0.7416507829818557,0.3051281838094739,0.5936711171050638,121.85607195690226,-57.14942618845358,78.41853646698472,27
1767470829.422792,1,left_wrist,0.7505,-1.3947,1.0565,256.06,360.71,295.54,-0.940473071892871,0.24530656670000112,-0.21265252674141777,0.10056834615690388,-32.57225094150763,20.52694248948237,-18.263757025175103,28
1767470829.422792,2,right_wrist,0.9658,0.568,0.6959,-116.62,340.62,-195.93,0.3830733794435328,0.1975489157358779,0.37544600573530823,0.820530016898037,50.17407860330756,-2.0942196365900214,128.96742578875705,28
1767470829.48118,1,left_wrist,0.3099,-0.0054,0.3528,-25.76,269.99,77.77,-0.8662481315540868,0.17947849684018452,-0.4609679090981119,0.07007303713095595,-36.33507670901242,50.66670105735761,-26.910340640213413,28
1767470829.48118,2,right_wrist,0.265,0.1908,0.1181,-31.43,203.56,-80.57,0.3776465553309922,0.11000865643827738,0.4019923760749351,0.8268514403040664,48.89145395410975,6.990249981900691,134.0857224944824,28
1767470829.53591,1,left_wrist,-0.0127,0.0405,0.0654,3.5,176.26,43.96,-0.8312465579393835,0.1608562503097403,-0.5279033131400451,0.06687689156936735,-40.852632891314066,58.88374322339669,-32.94171188474971,28
1767470829.53591,2,right_wrist,-0.0776,0.0493,0.0376,-56.28,99.47,-46.62,0.3808111053132223,0.052450090322600985,0.4015448069951121,0.8312602829863407,46.47416268341033,12.628349448726771,136.21390284172955,28
1767470829.587132,1,left_wrist,-0.3152,-0.0693,0.0122,43.68,100.24,23.94,-0.8089245440988971,0.1360243964915882,-0.5671420831271692,0.07408308214205123,-43.567774117842816,63.8178779923537,-38.41310827057124,28
1767470829.587132,2,right_wrist,-0.5251,0.1806,0.083,-52.08,37.59,-3.57,0.3779919589896427,0.025466952263431434,0.39087478901969686,0.8388625707411148,44.241907395129225,14.641398929860706,137.4659531272304,28
1767470829.67619,1,left_wrist,-0.5949,-0.489,-0.2874,51.45,43.47,-0.98,-0.7985034621841898,0.11905794261152233,-0.583093337032497,0.0906619406878139,-45.41059456210077,65.45234609425385,-43.05572224040994,28
1767470829.67619,2,right_wrist,-0.9223,0.8257,-0.1132,33.46,38.78,21.07,0.35228471675263584,0.016129135819875705,0.4177611222129864,0.8373236973163758,47.546027368833165,15.505513390940056,141.22818277495227,28
1767470829.733137,1,left_wrist,-1.0424,-0.6769,0.1879,-1.47,-57.19,-14.98,-0.8238331870056094,0.11374822496582168,-0.5432203625950314,0.1152035544912924,-39.149982523398215,60.32383219537031,-39.27197365993322,28
1767470829.733137,2,right_wrist,-0.9223,0.8257,-0.1132,33.46,38.78,21.07,0.33760835381975834,0.008673562581909947,0.4390543063570729,0.8325723300786306,50.18566862357441,16.380447354186508,143.56653762792573,28
1767470829.831584,1,left_wrist,-0.9374,-0.4412,0.1562,-66.5,-36.19,-12.39,-0.8258787977496045,0.14402201350564683,-0.5354053910889888,0.10258137377854928,-42.073956213070936,58.7389681799659,-38.586601092945735,28
1767470829.831584,2,right_wrist,-0.306,0.4041,-0.1903,135.1,-157.36,61.18,0.349842165691379,0.144799310486988,0.46238183143438283,0.8017771889660148,57.812028959001495,5.239996420904418,135.74825199076034,28
1767470829.8870609,1,left_wrist,-0.2747,-0.3753,-0.2425,-141.05,-147.63,-119.84,-0.8398040246659406,0.2887615724686107,-0.4501953032611126,0.09311360449460825,-53.04972279778704,44.6179746850476,-35.80162168957937,28
1767470829.8870609,2,right_wrist,-0.0137,0.3484,0.0586,76.23,-260.68,106.89,0.35620122088588024,0.26824768276233396,0.44205472145457025,0.7783003881354349,62.11285003007335,-5.890850256988955,127.26665791064876,28
1767470829.972311,1,left_wrist,-0.1161,-0.2123,0.1962,-193.2,-196.14,-231.63,-0.8351670328658883,0.40908918422748264,-0.34893793797077405,0.1156908899040261,-61.100199571128286,29.2214971084089,-33.26719665119443,28
1767470829.972311,2,right_wrist,0.693,0.9048,0.7867,203.91,-262.5,237.86,0.25921084788956966,0.5691374566759374,0.3947757125262648,0.6730857512562541,87.19672687913662,-34.159342280395826,105.259453387433,28
1767470830.028019,1,left_wrist,0.2064,-0.6608,0.4124,-158.41,-233.03,-307.65,-0.8132815229360445,0.5181110320952408,-0.20970054029906218,0.16173993406179651,-67.60743905989067,9.990952231703876,-29.194347120085173,28
1767470830.028019,2,right_wrist,0.6837,1.0072,1.0336,424.41,-179.34,332.92,0.08446270544514783,0.7048797572660255,0.4032265456313659,0.5774243951234406,118.60640819511919,-48.23769274404263,89.31360942607836,28
1767470830.0835688,1,left_wrist,0.5553,-0.265,0.0693,-296.59,40.04,-396.97,-0.5217858510150122,0.7899264398338438,0.011650003091814957,0.32190064113003747,-106.90402257254514,-31.380108301616385,-21.83416727909625,28
1767470830.0835688,2,right_wrist,1.3088,0.711,0.164,124.81,-63.42,335.09,-0.02787482612729189,0.7738077878632791,0.3234470765731003,0.543899338266583,142.80597987403567,-59.29179485564466,67.05144198371778,28
1767470830.776648,1,left_wrist,0.6578,-0.5114,0.7193,75.18,345.87,218.75,-0.851366800641345,0.36227023935824393,-0.33006334742748994,0.18706424331229377,-54.935231323403144,25.244019800150426,-38.06427543425815,29
1767470830.776648,2,right_wrist,0.2762,0.2952,0.3172,-52.43,232.12,-97.65,0.3356928489380075,0.17506553813058112,0.39138872551063536,0.8387354970871894,50.75514148438468,-1.770410163705309,135.53393084989622,29
1767470830.827273,1,left_wrist,0.3035,-0.3479,0.3362,-5.18,283.92,108.43,-0.8121264579845584,0.32366931867610343,-0.4461760064291658,0.19135244883753938,-60.607054325658524,36.92956916180624,-48.6012940232221,29
1767470830.827273,2,right_wrist,0.2762,0.2952,0.3172,-52.43,232.12,-97.65,0.33209879329147435,0.06880013434797537,0.40875412485512763,0.8472880256571349,48.36422468852092,8.911370309991113,141.20214524662507,29
1767470830.883967,1,left_wrist,-0.3904,-0.0551,0.368,12.32,132.44,31.36,-0.7615145870575267,0.2493650804059134,-0.5605718739410146,0.20897790437990335,-68.07654568422737,48.55087019753965,-64.57708418413182,29
1767470830.883967,2,right_wrist,-0.061,0.1484,0.3094,-80.92,167.16,-62.93,0.32762299245606563,-0.01749397117976223,0.4001165111467639,0.8557242039899514,44.7506753498036,16.98460650922451,145.13506533987527,29
1767470830.972919,1,left_wrist,-0.5319,-0.2699,0.0644,36.54,147.98,13.79,-0.7280361037080056,0.21788355995938513,-0.6093795275540375,0.2261565329481085,-74.68455089034123,52.06875801068697,-75.39338123379433,29
1767470830.972919,2,right_wrist,-0.7798,0.4734,-0.1054,5.53,-22.89,11.62,0.3185641246340149,-0.043221929814121665,0.41761777156329216,0.849849492647855,46.50049819743637,19.848872185029254,147.5012142335555,29
1767470831.027231,1,left_wrist,-0.3792,-0.5002,-0.7032,26.6,53.83,15.75,-0.7146397017215369,0.20169713982022774,-0.627956791831152,0.23297774165104207,-77.38734952620527,53.46985740592109,-80.05668806261235,29
1767470831.027231,2,right_wrist,-0.9565,0.3353,0.5065,7.35,-27.86,11.48,0.32137229111272253,-0.03430913947476759,0.4167390385054154,0.8496301002430661,46.53420159165352,19.03568103409577,146.8087534410404,29
1767470831.081902,1,left_wrist,-0.9872,-0.5392,0.5358,-13.23,-98.07,-20.23,-0.7573396771282254,0.21178649525185808,-0.5720049012168982,0.23322411294738923,-66.46570665126946,50.14033955607354,-68.31350228889015,29
1767470831.081902,2,right_wrist,-0.7998,0.408,0.3533,29.05,-20.37,13.02,0.32223155080775173,-0.02466957665277952,0.42595260595584217,0.8450577596420443,47.90944183773795,18.433584257264393,146.5018216493026,29
1767470831.134363,1,left_wrist,-0.8394,-0.5231,0.1996,-57.61,-16.31,-36.4,-0.7513784494957003,0.23921191120729884,-0.5717105802401606,0.22661663577823932,-69.45402500102117,48.65306446441288,-68.3631923973625,29
1767470831.134363,2,right_wrist,-0.4734,0.3133,-0.1547,69.16,-67.76,35.0,0.32284896040537,0.013829207851764898,0.4450934211981633,0.8351461837196401,51.27020347497479,15.325189150409221,145.11726590123726,29
1767470831.1867661,1,left_wrist,-0.2987,-0.3655,-0.489,-140.42,-87.85,-94.64,-0.7439324210086796,0.3180697269493212,-0.5479984785250941,0.21235317116711724,-74.40417231393863,42.86407621464652,-65.0481807469999,29
1767470831.1867661,2,right_wrist,-0.1171,0.1737,-0.386,118.86,-169.89,90.65,0.3200021535962272,0.1090131482456413,0.46583797661781007,0.8177467424233342,56.8961122786134,6.883331337644008,140.98945718803924,29
1767470831.27368,1,left_wrist,0.1854,0.1586,-0.4094,-162.47,-193.97,-214.9,-0.737714318295713,0.43762672105389305,-0.4675872429546758,0.21359449390645538,-78.00082576712396,30.194852162761226,-56.94174928102732,29
1767470831.27368,2,right_wrist,0.6393,0.1986,0.4856,94.08,-302.75,256.48,0.25929545468719756,0.41948796637638436,0.4058652315182003,0.7694602829832368,69.27681653408898,-25.79042518198726,124.77875276184506,29
1767470831.3251278,1,left_wrist,0.4577,-0.0029,0.1742,-53.9,-269.78,-343.77,-0.7369207528641374,0.5411544344428437,-0.31177085531016485,0.25864766741682965,-77.08325997564023,10.3443745384558,-46.92929807473117,29
1767470831.3251278,2,right_wrist,0.6393,0.1986,0.4856,94.08,-302.75,256.48,0.2047143372933935,0.5691601544014717,0.34738453727078444,0.7165701235841349,81.38267963536558,-42.33445208382302,111.28108893159313,29
1767470832.079344,1,left_wrist,0.507,-1.1287,0.9716,104.16,315.63,248.64,-0.8459534951998238,0.39713476344129867,-0.27858673613927254,0.22144094940388212,-56.35237723240102,17.185065944693537,-38.592610414763286,30
1767470832.079344,2,right_wrist,0.8833,0.6895,1.0228,-76.3,339.29,-207.27,0.3927201393554624,0.29555771765265704,0.3444834808396887,0.7998422713942733,53.10446999422994,-11.667271538741579,121.85267330027659,30
1767470832.129647,1,left_wrist,0.4392,-0.467,0.7745,72.94,337.89,188.02,-0.824775429395606,0.30966308214873445,-0.41988573136080454,0.21806017339037845,-56.712373975363555,33.88808548908261,-48.2939949573735,30
1767470832.129647,2,right_wrist,0.5802,0.4548,0.5919,-7.49,342.93,-148.12,0.3873419647189241,0.15243994401503067,0.41108242252990923,0.8110114103533433,51.89440534063913,4.082792284225894,130.92868028491984,30
1767470832.220581,1,left_wrist,0.2894,-0.1957,0.5797,12.74,331.17,119.7,-0.7694078779372248,0.24843073873263383,-0.5454512168701866,0.22085437608462113,-65.68963130702137,46.85411905228949,-63.28667025986947,30
1767470832.220581,2,right_wrist,0.0264,-0.0356,-0.1908,24.22,172.55,-62.58,0.35235910138744975,-0.021503909305203663,0.5054016193651348,0.7873689406479799,57.98073834150688,22.956287790316626,144.62035277928663,30
1767470832.2730649,1,left_wrist,0.1215,-0.143,0.1405,-24.64,255.85,64.4,-0.7079444818456028,0.21651181906445563,-0.6347147299085879,0.22152754787346338,-80.29523867826555,53.39437301697828,-80.72331268634859,30
1767470832.2730649,2,right_wrist,-0.2591,0.1786,-0.6939,10.5,3.08,-4.48,0.3527714705488247,-0.022942251473165812,0.5134423854419823,0.7819225405983695,59.05517231202469,23.461563646774977,144.85014636626823,30
1767470832.330053,1,left_wrist,-0.2298,-0.0073,-0.9126,2.94,-49.7,-17.99,-0.6823071846408008,0.19213830544714672,-0.6647905207251608,0.23578240163636605,-85.80028746573429,54.74359529550862,-89.51159676438893,30
1767470832.330053,2,right_wrist,-0.5939,-0.0312,-0.2513,18.97,-76.93,41.79,0.3571573817341247,0.011829526822301843,0.5102587118316965,0.7822625607606714,59.3014884380634,20.24149202327604,142.5240153443676,30
1767470832.3845491,1,left_wrist,-0.5505,-0.4558,-0.1664,44.17,-144.48,-37.38,-0.7197868453036224,0.20569101106039125,-0.6153343452723853,0.24690433132089534,-75.23641227164993,51.651100632166866,-78.77257024124614,30
1767470832.3845491,2,right_wrist,-0.774,0.5129,0.1083,-29.61,-115.43,48.65,0.367388383534621,0.05369771006982935,0.48337401983018496,0.7927748031630942,56.82060815778346,15.666148226198152,138.78382015452468,30
1767470832.436168,1,left_wrist,-0.5832,-0.3836,0.0517,-14.56,-138.6,-72.45,-0.744880076012394,0.24288461706138362,-0.5686911310103206,0.25050176180002653,-70.01604142320903,46.51273372995098,-70.6805282076432,30
1767470832.436168,2,right_wrist,-0.4216,0.2826,0.0503,43.4,-140.7,92.19,0.36463276023390506,0.12487089568046414,0.47489968963340873,0.7911513725970866,58.4273311073049,8.554170197618204,135.30066800272738,30
1767470832.52034,1,left_wrist,-0.3201,-0.429,0.0834,-3.57,-183.4,-121.38,-0.7710987583547165,0.2965085701303098,-0.49423748824679214,0.2705895007471574,-65.15152311367359,36.99516416086135,-62.80456492691478,30
1767470832.52034,2,right_wrist,0.2943,0.5617,0.5173,57.89,-252.7,231.84,0.31068219746974574,0.36874789398725544,0.394098738518038,0.7824242756675082,63.73341953398788,-19.39966904038389,124.55565642827621,30
1767470832.571722,1,left_wrist,-0.0961,-0.6285,0.4133,-124.95,-228.34,-234.22,-0.7677106072698946,0.412849591503774,-0.39378219074153253,0.2917382808876064,-67.99771713625027,21.329659015402513,-56.09203737516171,30
1767470832.571722,2,right_wrist,0.5441,0.9682,0.5305,219.17,-248.36,271.11,0.2192744608905733,0.5232223667675856,0.3815518208328686,0.7297775508566959,78.40715081442892,-36.60841194619139,116.35157386749776,30
1767470832.62398,1,left_wrist,0.0039,-0.7086,0.5266,-238.28,-273.63,-329.7,-0.7140464501497619,0.571446506218264,-0.26336356561879093,0.3069628476933653,-77.98055695172171,1.4487030781841645,-47.69771456442402,30
1767470832.62398,2,right_wrist,0.9775,0.5002,0.5173,184.45,-197.4,331.45,0.10083460147239098,0.6479428882075272,0.33672458094820507,0.675735860638199,96.47004176626594,-53.87857571395756,103.73892643911894,30
1767470832.6768901,1,left_wrist,0.6305,-0.7754,0.6666,-54.6,-162.33,-357.28,-0.6614803760108574,0.6410391679915337,-0.12580983379100294,0.36835361132305666,-81.14975788396335,-17.807306039885212,-42.941715922438554,30
1767470832.6768901,2,right_wrist,1.524,0.8364,0.2128,153.79,-153.23,344.61,-0.022927883323493305,0.7380114417849879,0.27123570215375997,0.6174500933985715,128.14256014003405,-67.48932068225103,76.34646271872424,30
1767470833.377791,1,left_wrist,0.7515,-0.997,1.0014,42.14,397.67,248.5,-0.857800510842388,0.30211249511808813,-0.3441375610106919,0.2334002206375859,-49.464967484690845,26.70368820840332,-42.921131378993785,31
1767470833.377791,2,right_wrist,0.7886,0.8198,0.7764,-51.45,315.7,-191.17,0.3752360240751878,0.26919655312999824,0.3790181199348342,0.801920449159539,54.969042637665616,-8.470833778526238,125.43557652052024,31
1767470833.433804,1,left_wrist,0.3362,-0.1698,0.3011,-62.09,333.06,86.38,-0.7999866835930894,0.27609562487502515,-0.4782180484697284,0.23473391343477443,-59.646806407291955,39.45842367099949,-55.940006101463055,31
1767470833.433804,2,right_wrist,0.3772,0.1728,0.5558,-89.18,294.42,-153.93,0.3859618980872974,0.12499992346784754,0.4061889559243051,0.8187911604572962,50.014838647084446,6.2489844812079465,132.44067863036634,31
1767470833.487058,1,left_wrist,0.3362,-0.1698,0.3011,-62.09,333.06,86.38,-0.7242055717567298,0.2436209270918262,-0.6024369980528574,0.2307483414815556,-76.15918911932998,49.47708926612713,-75.0473271933154,31
1767470833.487058,2,right_wrist,0.1771,0.0737,0.2245,-16.94,237.58,-100.24,0.3774785747867609,0.021299987394955897,0.4399636956568432,0.8145478393672796,50.13586767023538,17.304749666524497,138.41470007909666,31
1767470833.573632,1,left_wrist,0.1332,0.2655,-0.5207,1.47,212.1,52.29,-0.6681885008786831,0.2073713216497012,-0.6748906412462315,0.23461433163599432,-89.70672182806935,53.572005936394696,-92.03077768385414,31
1767470833.573632,2,right_wrist,-0.4353,-0.0581,-0.4992,-30.94,26.88,-15.19,0.3681076188147786,-0.0662367009890645,0.4574660369910329,0.8067430231568895,50.28203815874027,26.337986847795392,143.47942099983703,31
1767470833.631111,1,left_wrist,-0.6388,-0.3567,-0.1723,136.22,-122.43,12.25,-0.6912309849496562,0.19673060166192047,-0.6526652894304804,0.23984331507860296,-83.11431750667997,53.89280636160285,-86.78919881557293,31
1767470833.631111,2,right_wrist,-0.7901,0.4568,-0.1274,-15.05,-71.19,22.47,0.3742274992155521,-0.04196221754959376,0.4440955534502455,0.8130019006957578,48.92329528719958,23.61670964467263,141.43218078134169,31
1767470833.725111,1,left_wrist,-1.1151,-0.5836,0.2845,-3.71,-79.8,-11.97,-0.714369473106207,0.20707106308920917,-0.6260148800508243,0.23431432026237117,-77.51601848578512,52.87991344408685,-79.84476660127372,31
1767470833.725111,2,right_wrist,-0.7379,0.4265,0.0981,57.96,-79.1,28.14,0.39007716975128764,0.024119690360343792,0.4368341345552316,0.810206134920693,49.65743532904323,17.56059128805863,136.75775008414604,31
1767470833.783982,1,left_wrist,-0.5524,-0.2923,-0.1976,-35.63,-128.8,-76.23,-0.7392799142197473,0.272201405940384,-0.570892201325957,0.23120055687762653,-73.29737988806134,45.90870679819646,-69.71249335662725,31
1767470833.783982,2,right_wrist,-0.3992,0.1064,0.0054,82.95,-145.6,82.32,0.3880725833012994,0.10110329853007688,0.4412691778778146,0.8027822281112306,53.13468941857178,10.379142225886243,133.6016250918091,31
1767470833.87813,1,left_wrist,-0.3074,-0.3992,-0.0952,-91.56,-180.11,-139.79,-0.7522761941488506,0.35481192897767816,-0.5047862653724805,0.23104079523617327,-72.72192058135873,36.550090084833634,-61.475415605162375,31
1767470833.87813,2,right_wrist,0.1386,0.4895,0.4182,125.93,-239.4,198.87,0.332570751837051,0.3488604571330855,0.4081491754412171,0.7753111162998296,63.91613473989958,-15.632958758904582,123.7763175464998,31
1767470833.930681,1,left_wrist,0.0215,-0.8389,0.4734,-270.13,-232.54,-353.36,-0.6769534877884832,0.6351250283363251,-0.2732076133973683,0.2524039891394433,-87.47811068465029,2.824766839513945,-43.59935848352805,31
1767470833.930681,2,right_wrist,0.4504,0.9189,0.5392,231.63,-239.54,258.58,0.24630838239843392,0.5030614231694517,0.4019850118781108,0.7243406902172125,78.38237344542199,-32.056221803746624,116.07456847227472,31
1767470834.023712,1,left_wrist,0.1879,-0.7706,0.6481,-485.24,-156.03,-428.26,-0.4944799531754503,0.8123773566188451,-0.15356573217255753,0.26823529272429547,-112.50947857277565,-16.495868432885825,-32.47138962329541,31
1767470834.023712,2,right_wrist,1.2,1.6055,0.3343,249.62,-168.07,292.67,0.011453174423872786,0.7162671815271683,0.3376282456295942,0.6106040592854141,120.65124925121141,-60.10927894977385,86.97027130035778,31
1767470838.429576,1,left_wrist,0.5466,-0.4743,1.1688,6.3,296.31,133.98,-0.9364241700267718,0.1605829882604437,-0.2596988285460732,0.17285657674157226,-25.64272565609111,25.52220544238758,-26.8185247014322,32
1767470838.429576,2,right_wrist,0.5963,0.5417,1.0521,-72.52,292.04,-110.81,0.5300267111051071,-0.032669925977696246,0.3212849946505123,0.784079277665298,30.661701241424772,23.06722478740826,118.28768460127162,32
1767470838.486764,1,left_wrist,0.2743,-0.4192,0.9736,-56.35,294.77,98.42,-0.8992260306097564,0.14982183490353485,-0.38396745623957573,0.1466797743687549,-30.05824148148578,40.28539852752731,-29.777650207193723,32
1767470838.486764,2,right_wrist,0.3558,0.346,0.8101,-21.35,285.74,-81.34,0.5130913222318191,-0.142539787603456,0.3735091748070267,0.7595463121728254,31.75681494451491,36.856990910703125,122.74886969029609,32
1767470838.5698292,1,left_wrist,0.0366,-0.1776,0.5919,-20.93,249.41,85.19,-0.8573925533934547,0.12703294195481607,-0.48254883625967077,0.12604468123722648,-34.06770994272514,52.69720365311675,-33.98319407009567,32
1767470838.5698292,2,right_wrist,-0.1225,0.103,-0.0107,-19.04,187.74,-41.3,0.4594659254491844,-0.3044190799658648,0.45493164964974114,0.6994692854234745,41.671410206868174,57.55584881080565,137.0133976708237,32
1767470838.6222012,1,left_wrist,-0.161,-0.1196,0.3035,-63.0,229.74,55.3,-0.805750172687083,0.12571155469422615,-0.5691677113036049,0.10493512586599836,-45.13787358493158,62.97783719780408,-43.40640859384835,32
1767470838.6222012,2,right_wrist,-0.4089,0.2308,-0.4875,1.26,92.19,-17.29,0.44468061340149595,-0.33714058509913736,0.47426418015698346,0.680932350064164,46.98864077548455,61.754999411121396,142.84782691050492,32
1767470838.6772559,1,left_wrist,-0.325,-0.1035,-0.5226,-16.94,158.76,25.13,-0.7618386790255952,0.11856693320329527,-0.6289343832713009,0.0999262279406652,-59.45672231823496,69.16316482507584,-57.92092928435837,32
1767470838.6772559,2,right_wrist,-0.5534,0.0917,-0.5553,-2.17,-26.11,5.95,0.44693611819622775,-0.33113593771646976,0.4719920235263704,0.6839741418590356,46.21485584758188,61.030469670592495,141.9089343597361,32
1767470838.730201,1,left_wrist,-0.4299,0.3192,-0.7901,-46.62,8.82,-16.59,-0.753510842561641,0.13707187718996947,-0.6364762748573107,0.09127246117764687,-64.75043787550938,69.09314282036193,-60.976065889614524,32
1767470838.730201,2,right_wrist,-0.6891,0.3738,0.0766,-4.27,-101.64,18.48,0.4593191903485356,-0.2981843784051735,0.4564192644611866,0.7012798392092814,42.084641845536645,56.877651160235956,137.09098445627816,32
