timestamp,node_id,node_name,ax,ay,az,gx,gy,gz,qw,qx,qy,qz,roll,pitch,yaw,rep_number
1767556664.038553,1,left_wrist,0.3255,0.5924,-1.1122,-14.14,-40.39,-0.7,0.1999318099299854,0.7466333008364312,-0.6220279551841947,-0.12508880217503435,152.93232687572407,-3.5509108129464524,-78.74108860396758,1
1767556664.038553,2,right_wrist,0.1274,0.1288,-1.0531,10.71,-14.07,-5.81,0.047488899115278635,0.7764161760718878,-0.6284203929788725,-0.003245871686547247,175.52993118932218,-3.132527801841787,-77.85016004004063,1
1767556664.128684,1,left_wrist,0.2948,0.6251,-0.7183,-54.25,-84.35,0.49,0.18047900723006666,0.7302607132653812,-0.6304597512663435,-0.19148660695611786,149.62020847699537,2.9865076930873373,-82.42141592599928,1
1767556664.128684,2,right_wrist,0.2098,0.1235,-1.0736,27.79,-30.24,-11.76,0.03367628627034675,0.7798613218807873,-0.6250375233272342,-0.0032126018032232044,176.75643906920394,-2.125422725593063,-77.36225728904024,1
1767556664.185535,1,left_wrist,0.2181,0.7442,-0.5812,-50.89,-84.28,6.58,0.1776041324869333,0.7156663792246972,-0.6343837308989493,-0.23202518773121422,146.51282033759094,6.128975235155094,-84.95455394350185,1
1767556664.185535,2,right_wrist,0.2908,-0.0439,-1.0668,54.95,-44.1,-18.83,0.0042276196521844256,0.7852523420664995,-0.6191603893509885,0.0011396358567359452,179.70043391343523,-0.402503452251452,-76.50950897274808,1
1767556664.238688,1,left_wrist,0.1967,0.6144,-0.733,17.78,-61.25,-3.5,0.1586183432767294,0.7105261180529197,-0.640489505814214,-0.2444709587715032,147.0261018859246,8.292069382788748,-86.52297354284863,1
1767556664.238688,2,right_wrist,0.4085,-0.1088,-1.0497,-7.84,-72.59,3.5,-0.02455780216729794,0.7857141890002723,-0.6172965183041238,-0.03154577699095,179.97957354318424,4.582290137152539,-76.31073048279508,1
1767556664.339277,1,left_wrist,-0.0386,0.446,-0.63,-11.27,-33.11,34.72,0.14180045473021471,0.6895578414414008,-0.658524149934828,-0.2659860114697627,146.2929587681181,10.373687553429114,-90.512892787266,1
1767556664.339277,2,right_wrist,0.3235,0.0815,-0.9087,12.18,-65.24,11.06,-0.04257938303625129,0.7815810787746291,-0.6205162486894991,-0.04772419254477637,-179.57649568910216,7.321860810948748,-76.86673620754495,1
1767556664.390597,1,left_wrist,-0.1576,0.3777,-0.5602,-36.82,-16.52,45.36,0.1503096125293563,0.6726432043083967,-0.6673513215546791,-0.282135346417691,143.96563772986812,10.307686701318007,-92.90815516178414,1
1767556664.390597,2,right_wrist,-0.039,-0.1142,-0.6046,82.39,-32.97,-17.99,-0.11791408974231937,0.7790173692146158,-0.6150981196797101,-0.029707054190278782,-171.37660237575994,11.03111752698403,-75.75371186656791,1
1767556664.445696,1,left_wrist,-0.2128,0.4172,-0.6046,-63.07,-12.53,71.61,0.16972680441181184,0.6466963565877315,-0.6797544053148666,-0.30151381841524355,140.38924694976222,9.162245530890333,-96.16099539357035,1
1767556664.445696,2,right_wrist,-0.1913,-0.1186,-0.5627,25.55,-11.06,-53.62,-0.13428179443381927,0.7911350865010518,-0.5961464318905865,-0.026136303004232395,-169.33285731489025,11.62222706073989,-72.90973160642908,1
1767556664.526573,1,left_wrist,-0.2572,0.5939,-0.5973,-26.74,-5.04,121.24,0.20799479103498775,0.580806901344297,-0.7185543125143578,-0.32106262663251,135.17478940081003,4.246046057475741,-103.85468713365738,1
1767556664.526573,2,right_wrist,-0.2401,-0.0386,-0.5919,68.04,16.38,-80.5,-0.15466761787951622,0.8070088495643575,-0.5699183256382339,-0.002783308462998618,-165.48739370964398,10.415669431754448,-69.1304892268364,1
1767556664.583594,1,left_wrist,-0.2347,0.5758,-0.5797,-28.63,11.69,144.76,0.23519459422057273,0.5347736996324681,-0.7475328686424996,-0.31606202449825965,133.6016397062906,-0.7785626273227315,-108.50760289114133,1
1767556664.583594,2,right_wrist,-0.2377,-0.3572,-0.6115,86.24,34.72,-114.94,-0.18043235140708958,0.827538422967186,-0.5301943851618528,0.03896458676203675,-159.9576256484825,7.286971248893266,-64.00509039829096,1
1767556664.639022,1,left_wrist,-0.1771,0.3196,-0.3553,-89.39,39.76,155.19,0.28552145506261273,0.480815182021512,-0.7643744002895572,-0.32097669014825436,129.5032196434818,-7.344194063526386,-112.19048417838633,1
1767556664.639022,2,right_wrist,-0.2318,-0.5544,-0.6378,62.09,58.8,-152.39,-0.21991228090550402,0.8657799715513657,-0.4271504622663542,0.14002182741664043,-149.92327590768983,-3.129040841704347,-53.36162566502542,1
1767556664.6921852,1,left_wrist,0.0791,0.9936,-0.3919,-93.59,48.02,163.59,0.34444739183440276,0.4190993569002528,-0.775329238377958,-0.3233825836691389,125.0134020143595,-15.251792768488034,-115.2420450680341,1
1767556664.6921852,2,right_wrist,-0.0551,-0.6476,-0.6974,105.21,98.56,-163.52,-0.23429470158030186,0.8750921703761642,-0.3666768037417232,0.2118202250860042,-144.76540810153446,-11.472850491408641,-49.12303433946884,1
1767556664.779588,1,left_wrist,0.5475,1.057,-0.3157,-46.55,86.8,145.25,0.4604567612254415,0.32105001896081853,-0.778882749969173,-0.27972865095927096,119.83419606741548,-32.52515787963695,-116.01496290312747,1
1767556664.779588,2,right_wrist,0.1244,-0.3899,-0.6651,57.89,114.45,-150.43,-0.22082424000539055,0.8807703822047063,-0.3153578255512979,0.27573471076484807,-143.12567727422532,-20.269761936386907,-46.22034355790216,1
1767556664.835333,1,left_wrist,0.7462,0.8677,-0.2982,-35.84,88.2,114.59,0.5114161795993479,0.2835141755066307,-0.7696639344151227,-0.2563018368865829,116.783310603772,-39.93414991731078,-114.34955537159897,1
1767556664.835333,2,right_wrist,0.6803,-0.571,-0.5104,73.36,123.83,-129.85,-0.2208968104007866,0.8539042971944902,-0.21272435216698102,0.420476396938854,-134.6198026931665,-38.61710938121858,-44.64534476481035,1
1767556664.8935812,1,left_wrist,0.7462,0.8677,-0.2982,-35.84,88.2,114.59,0.5591676102379399,0.2463408762098049,-0.7563719099010021,-0.23355789492476436,112.89590033569273,-46.95414362554946,-111.78245932338207,1
1767556664.8935812,2,right_wrist,0.9379,-0.6349,-0.569,63.21,100.73,-128.52,-0.20962572341044186,0.8375608052254313,-0.16058259870526878,0.4782908974963234,-132.0064392409602,-47.21189721275607,-43.7245933613467,1
1767556664.978067,1,left_wrist,1.015,0.6324,-0.2991,7.14,48.58,91.28,0.6119624448435469,0.1875046523022054,-0.7496448138824237,-0.1684536271064663,111.94775489579756,-58.68659601860681,-110.34454352605607,1
1767556664.978067,2,right_wrist,1.0609,-0.7393,-0.5661,31.43,94.71,-126.91,-0.18894130086600955,0.8196955051879431,-0.11566814677073894,0.5282247092141428,-130.62576015319868,-55.311457043037166,-43.151149716006316,1
1767556665.0318458,1,left_wrist,1.1082,0.6154,-0.2684,35.63,53.13,87.29,0.6298972326153659,0.17169713247380702,-0.7467104936201406,-0.12717314874351965,113.20049858827056,-63.77053699366398,-109.49552537157159,1
1767556665.0318458,2,right_wrist,1.117,-0.6749,-0.4041,25.34,51.87,-97.37,-0.17533322548009855,0.8076255413066599,-0.08008619855662985,0.5573019342085738,-130.4309840246677,-60.70348174283207,-41.585558208750975,1
1767556665.083853,1,left_wrist,1.0829,0.5183,-0.2367,22.89,46.55,68.18,0.644113497255394,0.16060607489030704,-0.741251331373491,-0.09934764767613558,113.0212573760878,-67.36693709906466,-107.95751619191304,1
1767556665.083853,2,right_wrist,1.0297,-0.5749,-0.3777,6.72,31.64,-55.79,-0.16689694603208788,0.8005192418864949,-0.06399453946649641,0.572030638771303,-130.4127640460696,-63.44198193630915,-41.01215338425925,1
1767556665.136662,1,left_wrist,0.9882,0.4104,-0.2142,8.47,27.23,56.0,0.6518062467040222,0.1477337419252598,-0.7395373376206554,-0.0800492630779895,113.84935577646598,-70.12189961368645,-108.27922886761377,1
1767556665.136662,2,right_wrist,0.9692,-0.283,-0.3797,-0.91,28.91,-59.5,-0.14008306554586503,0.7894530523207973,-0.029020973029436733,0.5969073596908269,-134.1284331689798,-69.12016685545807,-36.711137097823126,1
1767556665.229482,1,left_wrist,0.9296,0.2425,-0.222,-3.57,-1.54,29.75,0.6512946333226983,0.12415846471384537,-0.7461928982356305,-0.05996778191381336,119.89639344122902,-73.15493027797976,-114.63656558399936,1
1767556665.229482,2,right_wrist,0.998,-0.4187,-0.2689,36.89,23.03,-50.12,-0.14324973330069676,0.7813223626419159,-0.006575395754230507,0.6074303612066233,-133.63118005431818,-71.31854521215644,-35.12747160727991,1
1767556665.287151,1,left_wrist,0.9077,0.3387,-0.12,-26.25,0.98,18.2,0.6538848196646775,0.1137218589600115,-0.7449985618672579,-0.06692625958836469,118.68102046047535,-73.54945844090896,-114.84912006452477,1
1767556665.287151,2,right_wrist,0.9423,-0.2957,-0.2479,8.82,2.52,-16.94,-0.13865177420935032,0.7779458458812573,0.008241433826777805,0.6127870961053057,-135.67577723777606,-72.88494704916938,-32.265443861507784,1
1767556665.339191,1,left_wrist,0.9257,0.2645,-0.0981,-19.46,4.34,16.45,0.65888911537229,0.10404804296257468,-0.7416890598092074,-0.07026006660197183,116.79063441985998,-74.3146388012414,-114.02672869232102,1
1767556665.339191,2,right_wrist,0.9677,-0.2596,-0.161,3.99,-1.47,-11.2,-0.13958366261284555,0.776239506856596,0.011469307867894147,0.6146845403161229,-135.3873324729547,-73.23317791632763,-32.21671722942745,1
1767556665.429495,1,left_wrist,0.935,0.2338,-0.1049,-55.23,-1.96,-14.42,0.6633864901613481,0.08240433281170165,-0.7372499158414072,-0.09793085416304603,111.63838151195586,-74.15910645173189,-112.90861510473121,1
1767556665.429495,2,right_wrist,0.997,-0.1796,-0.1591,10.57,-6.65,-5.46,-0.14078392494687042,0.7752743525452805,0.017747286218147522,0.6154791617869294,-135.90195785187774,-73.60274141232685,-31.091952831019096,1
1767556665.482368,1,left_wrist,0.9604,0.405,-0.1147,-77.07,-15.12,-48.86,0.6577855188402015,0.0784426655117338,-0.7357391023162608,-0.1409004356075721,106.99871243264704,-71.05167892604187,-112.13127084956453,1
1767556665.482368,2,right_wrist,0.9745,-0.2425,-0.1884,18.55,-4.9,10.22,-0.15327215861670562,0.7743368967262559,0.016896994337560246,0.6136974069879092,-132.68092639903247,-72.86180152523401,-33.340222432691554,1
1767556665.5347672,1,left_wrist,0.9536,0.5588,-0.2172,-106.19,-35.21,-97.44,0.6404974408332653,0.07991789213595758,-0.7353812806123072,-0.20637473422777855,103.0850674312307,-65.37214047830385,-113.58765640967403,1
1767556665.5347672,2,right_wrist,0.9262,-0.2108,-0.2577,47.88,-9.31,30.94,-0.17688018380387946,0.7759037467242593,0.019890806913744157,0.6052199039994326,-129.2847162791499,-71.12407143220439,-34.49837002887204,1
1767556665.58951,1,left_wrist,0.9135,0.8784,-0.2401,-96.95,-33.11,-142.45,0.6163607583337762,0.09852146677114758,-0.7291666145974895,-0.28055121516028064,98.86766052306625,-57.51997793915545,-114.27663539686853,1
1767556665.58951,2,right_wrist,0.9477,-0.5495,-0.3357,150.64,-25.13,97.79,-0.3026099896749515,0.7660415025286516,0.03478609390955567,0.5660366933539619,-112.53826330585053,-62.6564595446993,-39.03518120991089,1
1767556665.648316,1,left_wrist,0.9018,1.1888,-0.1279,-138.81,-21.14,-205.17,0.5851736343140931,0.1264164284564498,-0.7041813596180267,-0.3817319964143151,91.98033626231397,-46.68743498760377,-114.38173919002041,1
1767556665.648316,2,right_wrist,0.8813,-1.0365,0.0195,204.05,-21.07,219.03,-0.4242775082444304,0.7399319570031998,0.012077993353396443,0.5218653246574901,-98.80382183682913,-51.493589634442735,-43.04329809460537,1
1767556665.732448,1,left_wrist,0.7081,1.2551,0.406,-110.39,34.44,-275.38,0.5005508093695485,0.23794275040662244,-0.6058841969065714,-0.5707332780794377,80.6811359861185,-19.569373355024,-114.16132382699355,1
1767556665.732448,2,right_wrist,0.8813,-1.0365,0.0195,204.05,-21.07,219.03,-0.5384603349423712,0.700337661764217,-0.010791388660689193,0.46847750547828076,-88.58937262976602,-40.132949493592015,-42.81643710026139,1
1767556665.786326,1,left_wrist,0.6329,1.2293,0.5661,-101.43,75.53,-280.77,0.45900034003547596,0.30430693059111286,-0.5281711136247299,-0.6463367965495588,75.0517202378698,-5.249441283765076,-113.27152701688168,1
1767556665.786326,2,right_wrist,0.753,-1.239,0.2616,179.69,12.46,247.8,-0.640963121763214,0.6461518508527706,-0.05419925127541089,0.4107511452695893,-79.66963859082753,-27.47333677351862,-42.25466854268335,1
1767556665.842583,1,left_wrist,0.5173,1.0443,0.5861,-99.75,89.04,-280.49,0.4123710700577021,0.3677633136194829,-0.4405451693125256,-0.7075451925711047,69.77967959911868,9.037574919503502,-113.2220408029729,1
1767556665.842583,2,right_wrist,0.7135,-1.1956,0.4865,173.74,55.09,255.15,-0.7292557184954501,0.5734481566307551,-0.10864272081391911,0.3571275233199236,-70.77614891310071,-14.544483890600041,-41.82417775803199,1
1767556665.927399,1,left_wrist,0.0927,1.0194,0.6173,-96.95,138.04,-253.61,0.3209774132196792,0.4876725399884071,-0.24075944836183533,-0.7753604851735503,59.24709823548008,36.99084062104424,-113.48470580608863,1
1767556665.927399,2,right_wrist,0.5261,-1.1204,0.8564,144.13,130.34,245.07,-0.8407781206815803,0.4050286151861782,-0.2481985806367495,0.25969489258246864,-55.885743789822996,11.946142353014077,-40.6823104427314,1
1767556665.9797041,1,left_wrist,-0.0259,0.7618,0.4387,-51.24,163.45,-214.41,0.27702866357926553,0.5521286385310334,-0.156389804847931,-0.7706823697276197,58.02931930182742,49.852105302997174,-111.5488905859468,1
1767556665.9797041,2,right_wrist,0.3592,-1.0531,0.8477,104.02,176.75,224.0,-0.8583976770612246,0.32076030277601464,-0.3342222512345828,0.22036729103617092,-50.7234023137929,25.6213044715275,-41.09993938222671,1
1767556666.0306659,1,left_wrist,-0.1669,0.5714,0.2098,-50.61,158.62,-166.74,0.24539879435396555,0.6064248616427401,-0.08315505622103482,-0.7517403511426536,59.32859958488808,60.56756542614247,-107.0470812937404,1
1767556666.0306659,2,right_wrist,0.1586,-0.8477,0.6276,71.12,191.1,196.98,-0.8533846966643275,0.24734894629946277,-0.42011833852699737,0.18453628341601172,-47.73222979035832,38.73765413419718,-42.08483634365597,1
1767556666.091845,1,left_wrist,-0.3592,0.3465,0.0059,-61.95,136.64,-120.4,0.2281626583100226,0.6484243233624326,-0.019609172530267636,-0.7260187177873263,63.98301633146105,68.84193562133568,-98.76086746637925,1
1767556666.091845,2,right_wrist,-0.2523,-0.324,0.1791,38.08,160.44,128.45,-0.8071048364176833,0.13815570117492992,-0.559272988058651,0.12926140217403007,-47.54979185232681,60.11962813319747,-46.80388016111891,1
1767556666.176911,1,left_wrist,-0.5671,0.426,-0.1576,-51.94,105.21,-85.33,0.20673271985869027,0.7053423094197526,0.07737155696540947,-0.6736226326772183,92.13564892356426,79.19153370053077,-64.58116095845779,1
1767556666.176911,2,right_wrist,-0.4338,-0.3562,0.1684,32.83,137.41,83.86,-0.777586309763873,0.10220614076658266,-0.6089931967471192,0.11849355245382835,-51.95069718382163,67.34903338284109,-53.29668135165177,1
1767556666.232696,1,left_wrist,-0.8174,0.1571,-0.1552,12.67,38.99,-54.11,0.18484191491276863,0.7183013025917184,0.09397837866511889,-0.664112015799968,109.40798579951482,81.41954702604079,-47.785890990441324,1
1767556666.232696,2,right_wrist,-0.5597,-0.4026,0.0381,51.94,104.02,62.02,-0.752488785698019,0.06616392090786771,-0.6445633984577256,0.11798723802787073,-57.50233180758088,72.63838621354924,-61.7511302245028,1
1767556666.291379,1,left_wrist,-0.9584,0.162,-0.1357,42.07,54.95,-36.54,0.15882639289082465,0.7380817737069509,0.09720958362270427,-0.6485057972715365,135.01507476354317,81.18171688211791,-24.061064870693706,1
1767556666.291379,2,right_wrist,-0.8272,-0.2791,-0.1186,13.79,44.17,44.73,-0.722591084182337,0.010053335293366304,-0.682551852250089,0.10901387296875042,-67.38499516705924,79.80784967738904,-75.44207510545124,1
1767556666.342825,1,left_wrist,-0.8032,-0.286,-0.3977,31.5,27.44,-6.51,0.14249852478712768,0.7492612423704499,0.09494801385051208,-0.6397551373618074,146.82750500486645,80.31493738513878,-13.771082583668797,1
1767556666.342825,2,right_wrist,-0.8867,-0.0864,-0.245,-19.39,43.12,24.15,-0.7081173256389551,0.00642787739623699,-0.6996542718271099,0.09493384768452982,-81.62981471043179,81.75111434095469,-88.82466530311068,1
1767556666.3989398,1,left_wrist,-0.9897,0.0986,-0.1913,-20.93,-8.89,10.92,0.1524559167589347,0.7482654138936796,0.09666141304922246,-0.6383671631929708,142.89854229994117,80.00052623518303,-16.731657502916022,1
1767556666.3989398,2,right_wrist,-0.9135,0.0386,-0.2689,31.64,-7.91,-1.05,-0.7082380017781125,-0.004130792706799843,-0.6983939721356559,0.10309087774163445,-79.96021694163882,81.93518459119873,-88.6781932483967,1
1767556666.4765718,1,left_wrist,-0.9052,-0.0278,-0.2728,20.72,-0.42,14.84,0.1465120210810329,0.7576446972625489,0.08085797916027451,-0.6308492114561198,143.32529913820045,78.41060522557635,-18.0750703558074,1
1767556666.4765718,2,right_wrist,-1.056,-0.2733,0.0717,7.21,-7.77,-3.01,-0.7110919588495803,-0.0019571345174324226,-0.6945304114737488,0.10941619268669825,-76.70821409961982,81.18125072204202,-85.76885218523157,1
1767556666.529811,1,left_wrist,-0.8408,0.0351,-0.2689,3.99,-27.51,41.86,0.15568181363611253,0.7538151048376969,0.06560590811063008,-0.6349975003434912,133.78097505966593,77.89602947399108,-28.11267825590943,1
1767556666.529811,2,right_wrist,-0.9618,0.0029,-0.0649,-19.32,-5.32,-10.57,-0.7108535136168749,0.004770387736226776,-0.6955913424254654,0.10400581677064481,-77.97711644102613,81.09072316722015,-86.04904903087487,1
1767556666.585556,1,left_wrist,-0.6037,-0.0151,-0.4397,31.99,-54.6,105.35,0.17400563509348987,0.7454706139283711,0.01951354334669964,-0.6431289329139418,115.58826597472792,74.94090674520015,-48.54412894277895,1
1767556666.585556,2,right_wrist,-0.8735,-0.1074,-0.0283,3.43,-30.24,-31.71,-0.7162997068627163,0.013552835616423264,-0.6883928808859449,0.1133414846412834,-73.53341903849204,79.45736828817877,-81.66029257206127,1
1767556666.6380439,1,left_wrist,-0.4236,0.0834,-0.4143,76.23,-84.77,187.95,0.20072353172369842,0.7286995542847597,-0.06869114217184293,-0.6511440319811627,100.59355838251403,67.131747109137,-68.47485931912493,1
1767556666.6380439,2,right_wrist,-0.5085,-0.1215,-0.4616,-89.32,-87.64,-132.02,-0.7316616494535105,0.11756349045393649,-0.6572653468763305,0.13730375168505915,-72.91309322745194,68.35823184200477,-74.54162735740199,1
1767556666.688312,1,left_wrist,-0.2094,0.2552,-0.245,87.29,-113.19,245.56,0.23843931269742477,0.6938814009946319,-0.1818796835322093,-0.6546717316581876,92.92780895748507,55.26483997849868,-82.26892474248126,1
1767556666.688312,2,right_wrist,-0.3231,-0.2489,-0.2664,-112.28,-142.1,-201.04,-0.7465669582077941,0.219468693347639,-0.6069930346363822,0.16134040242777928,-72.33017619229817,56.66830797504559,-67.41209263425363,1
1767556666.782061,1,left_wrist,0.1157,1.1663,0.0869,152.04,-102.06,342.44,0.35059287438859355,0.5672518684224199,-0.43415529699768207,-0.605655952078465,91.27337304969831,22.50074429304493,-96.87679567417365,1
1767556666.782061,2,right_wrist,-0.1801,-0.5392,0.1635,-146.02,-162.61,-257.88,-0.7490246141987578,0.3459411396264904,-0.5314948051572933,0.1918335928067297,-74.8390849669688,41.56575310010327,-61.11426364867797,1
1767556666.838523,1,left_wrist,0.5758,1.241,0.712,-90.65,-76.65,315.56,0.43965881825721165,0.4654745569204234,-0.4953421098131455,-0.5870858153918126,85.61768249627501,6.3720400119882425,-100.43887507655893,1
1767556666.838523,2,right_wrist,0.1498,-0.9199,0.4817,-198.66,-102.34,-297.36,-0.6741722424323228,0.57558871931928,-0.3653680301937298,0.28406973833641286,-85.90595833814342,9.53367722133197,-54.57570664250507,1
1767556666.891346,1,left_wrist,0.2557,1.6763,0.04,316.05,-10.64,305.69,0.44528502335205133,0.4466683575553569,-0.631337953051593,-0.45124385355790453,101.4628809633958,-9.156864383040086,-101.94987601661514,1
1767556666.891346,2,right_wrist,0.3113,-1.79,0.5305,-185.29,-32.9,-308.63,-0.587449744154445,0.6750252333297216,-0.29426811655895524,0.335633740910948,-94.87585772789399,-6.164711027481798,-52.77035670184395,1
1767556666.941507,1,left_wrist,0.2557,1.6763,0.04,316.05,-10.64,305.69,0.4348613870323143,0.4131414982815363,-0.7406068388933243,-0.3028385488184366,118.48476155830758,-23.196906969961404,-107.76317699990615,1
1767556666.941507,2,right_wrist,0.4695,-0.548,-0.0361,-279.23,37.31,-296.8,-0.44774002945773894,0.767943273499632,-0.25016584892082006,0.3836783063212957,-109.10206439576842,-21.42406572533121,-51.42795657011742,1
1767556667.0293918,1,left_wrist,1.039,0.974,-0.2245,83.09,55.3,240.24,0.4900477732693961,0.28874086626818285,-0.8145580751026194,-0.11391678693468213,136.49854165088817,-47.10142917417677,-121.23360650294492,1
1767556667.0293918,2,right_wrist,0.8462,-1.0399,0.2772,-136.08,68.11,-277.27,-0.3454155216380685,0.8045579755794425,-0.18989093702059018,0.444202671514313,-116.84824007019675,-35.70351640619013,-48.953275875433725,1
1767556667.088129,1,left_wrist,1.1697,0.7232,-0.3001,47.88,74.2,200.83,0.5209214528927629,0.22935312134550984,-0.8210014570044043,-0.04466086924602076,145.4361863433042,-56.60212968794121,-129.76312798651244,1
1767556667.088129,2,right_wrist,1.2205,-0.4953,-0.1518,-69.3,57.68,-187.25,-0.1987665670889055,0.8134230651392864,-0.07973622641476227,0.540811337810362,-129.36446779639002,-58.007671406341274,-40.58933254213683,1
1767556667.146698,1,left_wrist,1.1639,0.5558,-0.2889,35.0,48.86,136.71,0.5392190161159781,0.1888550270350773,-0.8207123757336834,0.0027978098702335997,154.5584676356825,-62.39265752908239,-138.51492824009784,1
1767556667.146698,2,right_wrist,1.1136,-0.3684,-0.2943,-68.25,47.46,-138.11,-0.13789833715774913,0.8094911205969757,-0.048668491961883616,0.5686295386048251,-138.53472712884428,-65.11830976773462,-34.056099867469456,1
1767556667.226453,1,left_wrist,1.0141,0.3758,-0.2621,10.22,34.86,89.32,0.5691803897390847,0.12297845133433655,-0.8103850170353939,0.06470014380521985,174.16394736377237,-69.78854454103438,-158.66982058406353,1
1767556667.226453,2,right_wrist,1.118,-0.4089,-0.2694,-30.24,41.09,-118.37,-0.09867096459766554,0.8003952701168047,-0.017591974115594333,0.5910346646066791,-147.62067210683338,-70.50164352738788,-25.709589466449984,1
1767556667.2795699,1,left_wrist,1.0102,0.3367,-0.2743,-10.22,35.35,65.45,0.5816396709570684,0.09852478161983645,-0.8038879190235555,0.07584440799224576,-178.65386189897944,-71.82189116316171,-167.00016697603445,1
1767556667.2795699,2,right_wrist,1.0819,-0.2689,-0.3045,-15.82,32.13,-89.88,-0.07335052898530384,0.7918975770003176,0.0057159063245338605,0.6062056217600519,-156.75006701553318,-73.9341053322619,-16.776372484056825,1
1767556667.336472,1,left_wrist,1.0102,0.3367,-0.2743,-10.22,35.35,65.45,0.5931390848712028,0.07438527703296903,-0.7969528597654804,0.08671214373144699,-169.9284030459186,-73.39707599199376,-176.8505862496303,1
1767556667.336472,2,right_wrist,1.0067,-0.2664,-0.263,8.47,20.65,-41.58,-0.06578230391499726,0.778490231373817,0.041560273130513026,0.6228148937240445,-166.7756683711414,-77.20753516370623,-4.463514202149314,1
1767556667.429651,1,left_wrist,0.9862,0.1005,-0.1503,-6.93,11.34,14.91,0.6075219896133033,0.058658174210100535,-0.7871687510402006,0.08855285495364712,-164.52677341877592,-75.20223429274773,176.5774093368408,1
1767556667.429651,2,right_wrist,1.0072,-0.2147,-0.2547,16.94,8.33,-22.26,-0.06936202376792694,0.7760196935606175,0.050442967119002396,0.624850263609718,-167.9782991405362,-77.63141576957719,-2.245406945227759,1
1767556667.4815302,1,left_wrist,0.9867,-0.022,-0.1308,-6.72,5.95,8.82,0.6121387914401394,0.054279623186330735,-0.7839560697272587,0.08804943644762868,-163.05946295030145,-75.77504675418298,174.7016189815631,1
1767556667.4815302,2,right_wrist,0.9745,-0.1962,-0.2064,12.11,3.64,-8.4,-0.0751025288242787,0.7745780744587307,0.053359304262485814,0.6257325318222051,-166.44753202577854,-77.78816889461824,-3.069398554406717,1
1767556667.537607,1,left_wrist,0.9809,0.0073,-0.1039,-3.36,-0.91,2.94,0.6144471239545756,0.0534659719568906,-0.7823763708343004,0.08650627761500576,-163.14678742069802,-76.09800257507553,174.59152034672616,1
1767556667.537607,2,right_wrist,0.9736,-0.0727,-0.161,-5.11,1.47,1.54,-0.07994208024233498,0.7702513879590995,0.04891802784088471,0.6308162091336647,-162.20126478115736,-78.40572575356549,-7.288996220934197,1
1767556667.596193,1,left_wrist,0.9872,-0.0288,-0.0888,2.66,-9.38,-0.63,0.6139124615001504,0.055231458280098636,-0.7826611637715313,0.08661684798509063,-163.6644305309476,-76.0576928489892,175.26358026651187,1
1767556667.596193,2,right_wrist,0.9882,-0.0229,-0.1401,-5.74,-0.98,5.32,-0.07796207504643815,0.7687755759059645,0.04693400935406282,0.633011238060478,-162.03503364046682,-78.69726491831092,-7.782002279937499,1
1767556667.684779,1,left_wrist,0.9692,-0.101,-0.059,8.89,-8.75,-6.3,0.6129280164591693,0.06125649946549659,-0.7827383640961779,0.08881183076989844,-164.64576436949437,-76.02593890566425,176.92000650292525,1
1767556667.684779,2,right_wrist,0.9906,0.0366,-0.1425,-6.02,-2.73,10.01,-0.07566400005363846,0.7685895441587269,0.044558285859885215,0.6336873289462177,-162.11550043780127,-78.76426646889432,-8.084114188898857,1
1767556667.739918,1,left_wrist,0.9692,-0.101,-0.059,8.89,-8.75,-6.3,0.6124588140912284,0.06552491580663358,-0.7825222001511355,0.09088285163399126,-165.12179632236715,-76.03312284030332,177.91656990292785,1
1767556667.739918,2,right_wrist,0.996,0.0068,-0.0966,1.33,-5.32,8.26,-0.07371876872217253,0.7681405022274087,0.04140655693206699,0.6346740966976222,-161.69895407653723,-78.85544007673397,-8.917844102073142,1
1767556667.833314,1,left_wrist,0.9721,-0.0395,-0.063,-10.71,-2.73,-5.18,0.6169511980690728,0.06365731331458269,-0.780254203022726,0.08076103223755403,-168.1195968232835,-76.66535512763949,179.92212969028282,1
1767556667.833314,2,right_wrist,0.9867,-0.0176,-0.0849,1.4,-3.36,6.93,-0.07522458494590958,0.7669939838798864,0.040397129590900686,0.6359477670631386,-160.40552903900397,-78.99602321425613,-10.171843337008701,1
1767556667.8980732,1,left_wrist,0.9692,0.0351,-0.1581,-21.49,1.89,-14.0,0.6209548760727887,0.06447677169824302,-0.7782775227566812,0.06739351129392195,-173.55394318077197,-77.22374264560241,-175.67821109452402,1
1767556667.8980732,2,right_wrist,0.9838,-0.0493,-0.1581,22.12,-3.64,9.59,-0.0798614953547167,0.7633300394198859,0.04146599257877095,0.6397108440056346,-157.80312915676717,-79.49659627006642,-12.312194190527302,1
1767556667.978678,1,left_wrist,0.9809,0.2601,-0.286,-115.22,-36.05,-88.34,0.6080683333869616,0.07066587303490698,-0.7902187794415818,-0.028522218323165004,153.15631029807025,-73.13341068933195,-149.703624828244,1
1767556667.978678,2,right_wrist,0.9609,-0.1059,-0.1996,25.83,-12.18,17.08,-0.09511838686896884,0.7679210033345308,0.04144350078999187,0.6320856440067301,-152.86749275429506,-78.14419849442459,-15.99006781110541,1
1767556668.034675,1,left_wrist,0.9701,0.69,-0.2289,-129.64,-38.64,-145.39,0.5946355195199742,0.08837141784046916,-0.7906076065538941,-0.11635593621813413,132.590963482548,-66.87958586092243,-134.90561380530255,1
1767556668.034675,2,right_wrist,0.9579,-0.2494,-0.2635,33.67,-15.26,35.91,-0.11890020612504258,0.7726222144629935,0.036714676819615814,0.6225509514953405,-144.92862261331823,-76.10183022693842,-22.34267012319247,1
1767556668.088039,1,left_wrist,0.9882,0.8545,-0.1259,-137.13,-27.79,-195.72,0.5775083987010753,0.12055656596525263,-0.7774988248935867,-0.2178204332046869,116.47858418385881,-57.726065269016665,-124.69000495895789,1
1767556668.088039,2,right_wrist,0.9765,-0.5153,-0.3133,130.76,-39.55,114.52,-0.24965283510488662,0.7779067156552212,0.027782674636788962,0.5759884778818284,-120.72397306464137,-65.50571872932245,-36.11495345621606,1
1767556668.140973,1,left_wrist,1.0063,0.9638,-0.0425,-126.0,-14.7,-240.24,0.5531009691451693,0.16940719245034644,-0.749162086353231,-0.3227021683342706,105.00917784963654,-46.00400993621424,-118.43645078179125,1
1767556668.140973,2,right_wrist,0.9984,-0.7027,-0.2084,165.69,-53.62,154.0,-0.34578182624762865,0.7705431657714361,0.019892817785230995,0.5350723634428819,-110.2035495420353,-56.96627646775146,-38.50363211431316,1
1767556668.191406,1,left_wrist,0.9335,1.1395,0.0239,-129.5,5.25,-267.61,0.5231953729581624,0.22544323117001958,-0.7013991821806839,-0.4283469837305476,95.83885018459779,-32.738234630257686,-114.65464642905329,1
1767556668.191406,2,right_wrist,1.0072,-0.957,-0.0171,201.6,-32.06,217.63,-0.4633508358141962,0.741288455851438,-0.003393560107659006,0.48557791539718115,-98.16533828011454,-45.78777078669196,-40.73220254685529,1
1767556668.242372,1,left_wrist,0.8247,1.2976,0.2982,-158.34,40.88,-288.05,0.49389653296322295,0.28167815118925454,-0.6250504794928586,-0.5348228977477114,86.37772152349453,-18.4287230134853,-111.87313166318816,1
1767556668.242372,2,right_wrist,0.9599,-1.1722,0.1103,199.85,1.75,253.96,-0.5788486349318318,0.6907861445287894,-0.044609349619293616,0.4309974086826383,-87.15530304615183,-32.94337752941719,-41.9132904725974,1
1767556668.329931,1,left_wrist,0.5768,1.2712,0.5597,-84.7,128.59,-275.24,0.4210357908969376,0.405657475723713,-0.44538151337773546,-0.6780900992601303,73.83188334114628,10.08456602492727,-108.74191263236504,1
1767556668.329931,2,right_wrist,0.8818,-1.2322,0.3265,174.3,48.23,270.62,-0.6762660315090875,0.6234475437481025,-0.10394753037429878,0.37838119106331375,-77.69939327379092,-19.342190339794076,-42.82421547824284,1
1767556668.383351,1,left_wrist,0.3826,0.997,0.4563,-93.24,142.45,-250.32,0.3904912030979285,0.4723187849820243,-0.3456700676410883,-0.7105939698542636,69.89473048647581,23.658942472655596,-105.76541610911862,1
1767556668.383351,2,right_wrist,0.7964,-1.1927,0.4963,136.29,87.85,277.76,-0.7483379637167098,0.5494917313081326,-0.17833859016419423,0.3259516475530798,-70.49415934802099,-5.238422296334817,-43.3697043975334,1
1767556668.439606,1,left_wrist,0.1757,0.8355,0.4821,-60.34,156.31,-215.46,0.35969978760804167,0.536574852580747,-0.25562424025410213,-0.7192772331773003,68.72534450536247,36.01493968824191,-101.7998224795274,1
1767556668.439606,2,right_wrist,0.3426,-0.9155,0.5871,94.01,160.65,227.78,-0.8214054656208152,0.3857309286017886,-0.34230908404849086,0.24357586651008098,-59.68222190534561,21.989681849526086,-45.753151577727884,1
1767556668.500555,1,left_wrist,-0.019,0.6886,0.3914,-53.55,161.7,-179.9,0.3343933559576343,0.5932402597636189,-0.17217322480394562,-0.7117608154061271,69.74558612256226,46.83135850678049,-96.08263319172075,1
1767556668.500555,2,right_wrist,-0.0503,-0.6983,0.4592,58.66,169.75,168.35,-0.8196638784385462,0.3210312055242933,-0.41944114829646156,0.22171877362651277,-58.17738874543838,33.04135478873707,-49.0126357116431,1
1767556668.575575,1,left_wrist,-0.3977,0.408,0.0444,-45.36,133.28,-118.72,0.29554245334207496,0.6766372883605681,-0.03512789209024482,-0.6734854634436448,79.62884208852115,62.954685295236516,-78.53663167756484,1
1767556668.575575,2,right_wrist,-0.0503,-0.6983,0.4592,58.66,169.75,168.35,-0.8090461471626819,0.25328655816282913,-0.4923095592736478,0.19728545071300807,-57.35818690267587,44.15986931760947,-52.43002056684719,1
1767556668.6297479,1,left_wrist,-0.3977,0.408,0.0444,-45.36,133.28,-118.72,0.2783183122116417,0.7095029605986812,0.026778326557470415,-0.6468596348638173,91.30745404716804,68.87612583384066,-63.33860980444431,1
1767556668.6297479,2,right_wrist,-0.245,-0.5392,0.2943,48.51,160.79,136.43,-0.7884052118605199,0.19506570288782935,-0.5552163221672101,0.17916871676484883,-58.75044925816964,53.66548826866724,-57.39472862993903,1
1767556668.6840692,1,left_wrist,-0.7603,0.3836,-0.0298,-47.88,87.92,-71.96,0.27415685396387335,0.7276937500467054,0.06982034532870547,-0.6248399354600944,102.4496324547503,71.38191472608683,-49.01237424092854,1
1767556668.6840692,2,right_wrist,-0.407,-0.548,0.1542,50.54,136.43,103.25,-0.7644080399892272,0.1456034468513219,-0.6047108943337144,0.16971953022254577,-62.13068106338689,61.05305305045845,-64.14892343104792,1
1767556668.734148,1,left_wrist,-0.8008,0.286,-0.3367,56.49,92.68,-52.85,0.23780411732909737,0.7594515282089479,0.08216775021414437,-0.5999425296702747,122.45894755520264,71.86655143388244,-31.05087183650127,1
1767556668.734148,2,right_wrist,-0.7281,-0.3816,0.0434,84.77,114.94,86.73,-0.7138919037443401,0.036730720177562785,-0.6791209374097874,0.1667451838440049,-74.9705269990434,73.21369122995401,-85.63483920263681,1
1767556668.792661,1,left_wrist,-0.6144,-0.5427,-0.6115,61.53,32.69,-8.68,0.21017462417112812,0.7753189717939325,0.0750362299055824,-0.5908271181424232,131.98531855554504,71.38778166502267,-24.430107918960033,1
1767556668.792661,2,right_wrist,-0.5929,-0.0156,-0.65,-86.45,109.9,36.47,-0.6784103801312694,0.044216633655820514,-0.7217339947899505,0.13001648435038296,-100.45693169683528,75.4128968763016,-107.47025095167942,1
1767556668.879264,1,left_wrist,-0.9838,0.161,-0.2074,7.07,12.74,6.72,0.21414632349879856,0.7742687907000866,0.07375705560035917,-0.5909391581448458,130.64761107830756,71.20566152373115,-25.535597286977932,1
1767556668.879264,2,right_wrist,-0.669,0.1186,-0.3928,66.71,-25.27,6.09,-0.685503593767505,0.022255597891926427,-0.7128980219264281,0.14617086449663752,-94.17434279918692,76.13954945180559,-104.30208570064445,1
1767556668.934881,1,left_wrist,-0.9106,0.0747,-0.3138,0.0,-10.99,11.97,0.21422125275748083,0.7733162853059322,0.0711123265383442,-0.5924814045706019,129.84250445502383,71.23012693879383,-26.55720805706383,1
1767556668.934881,2,right_wrist,-1.0878,-0.4046,0.2011,-9.94,-12.11,-2.73,-0.6908581851492486,0.028097495831044834,-0.7076372329090747,0.14551647790232858,-90.72089672263651,75.8307003073892,-100.31959818676548,1
1767556668.98661,1,left_wrist,-0.9858,0.2406,-0.1249,-4.62,-20.65,20.44,0.22215258561213713,0.7658632061023615,0.06364722818205062,-0.6000423389971711,124.47416954214579,71.33026332865253,-31.88987795239783,1
1767556668.98661,2,right_wrist,-0.9209,-0.1781,-0.0512,1.54,-31.71,-17.5,-0.6918424313436377,0.03814712117617452,-0.7072233024822392,0.14047792625394695,-90.73813730217542,75.43353073676217,-99.10472230048417,1
1767556669.044336,1,left_wrist,-0.8286,0.0093,-0.3006,13.51,-28.98,39.97,0.22540073054023976,0.7620824112697921,0.04653828552578435,-0.6051934377415757,120.00675145664314,70.62959022923651,-37.49559137225549,1
1767556669.044336,2,right_wrist,-0.9228,-0.2094,-0.123,-3.36,-28.98,-18.48,-0.6971561384236313,0.04612534607638999,-0.7009156806176653,0.14339797687505443,-87.15640465643341,74.59382442446979,-95.11643068508685,1
1767556669.098058,1,left_wrist,-0.6437,0.0024,-0.4416,23.03,-64.4,94.01,0.24103220413358686,0.7508124698491457,0.004477718171707372,-0.6149504546949335,109.67968010418225,67.75650508941983,-49.938981638269205,1
1767556669.098058,2,right_wrist,-0.7325,-0.0698,-0.347,-14.42,-58.24,-50.4,-0.7086940456592948,0.06867572045312478,-0.6856138816779762,0.1515585705849843,-80.61547062290003,71.98288437776344,-87.41921291685014,1
1767556669.1780841,1,left_wrist,-0.2269,0.2718,-0.2552,108.99,-120.96,236.67,0.28744974402987217,0.700300120174742,-0.19332266715700136,-0.6241624249373766,94.93386410565616,49.73479178576687,-76.93599722165324,1
1767556669.1780841,2,right_wrist,-0.4982,-0.1093,-0.3743,-62.37,-107.45,-107.94,-0.7273022931659937,0.12683422980717868,-0.6548251971355811,0.16170471143740445,-74.45454889280623,65.71240478739543,-77.34503140998186,1
1767556669.2376692,1,left_wrist,-0.0151,0.7266,0.0342,47.18,-141.4,279.79,0.337002277890035,0.6364342941392742,-0.30932482622343743,-0.6210467018044711,90.10293584045786,35.59306127701741,-87.37528424077786,1
1767556669.2376692,2,right_wrist,-0.3284,-0.2801,-0.162,-98.42,-142.1,-198.52,-0.7407937390098835,0.22522485715410603,-0.604177990817149,0.18832778705178363,-73.2906192537761,54.12626432652702,-70.1477780323237,1
1767556669.296614,1,left_wrist,0.1547,0.9897,0.1781,145.32,-109.13,319.41,0.36651696524573163,0.5753707854236898,-0.450076608203986,-0.576233303632809,94.08955344564386,19.46154968079905,-94.21058950657961,1
1767556669.296614,2,right_wrist,-0.0229,-1.0648,0.5485,-166.25,-105.63,-310.1,-0.6761386396632459,0.49827110992876134,-0.4688155402725158,0.2734491363374267,-86.07170985716179,21.190193605744636,-63.85331312461929,1
1767556669.37753,1,left_wrist,0.4485,1.3181,0.1591,88.41,-91.07,310.31,0.4308930082596704,0.4090158666848973,-0.6577150698119606,-0.46308543831044996,101.73541503935151,-10.835568278057783,-107.42233683225727,1
1767556669.37753,2,right_wrist,0.1401,-1.0917,0.0264,-140.28,-70.7,-326.13,-0.6116277500933801,0.6095231676467577,-0.38619958470395227,0.324411596882829,-92.37617253131172,4.413157894503111,-60.48346466894886,1
1767556669.427813,1,left_wrist,0.7305,0.9355,0.0956,10.57,1.19,282.94,0.4857059077740356,0.3247253060516133,-0.7047095513317452,-0.4025266389009509,103.01974582198018,-25.03311542099834,-110.49840756381313,1
1767556669.427813,2,right_wrist,0.488,-0.8916,0.4065,-235.69,-15.19,-335.23,-0.49611171571334406,0.7195931671683794,-0.3185494862526945,0.3668583706346187,-104.12984154597741,-12.234030477011567,-57.306217957048595,1
1767556669.4847732,1,left_wrist,0.7696,1.1409,0.0024,132.51,29.54,278.39,0.5230030471042988,0.26773153514284465,-0.7532299812921387,-0.29568941998711923,110.97111608639943,-39.01710610982849,-113.48102234870171,1
1767556669.4847732,2,right_wrist,0.9326,-0.8008,-0.1859,-28.84,34.37,-300.51,-0.4281270426593008,0.7560386269341534,-0.23127674639779347,0.4377486681909746,-106.40274117241935,-27.63764166508296,-54.87013287943839,1
1767556669.5444942,1,left_wrist,1.0995,1.0258,-0.1645,104.93,74.41,256.69,0.5668104233929269,0.21331488094113057,-0.7722600990998489,-0.1919297914355499,117.79889559752566,-52.52013149508661,-115.96901255234245,1
1767556669.5444942,2,right_wrist,1.2449,-0.9072,-0.2918,-85.82,53.62,-270.83,-0.25207473394326696,0.7930673875682767,-0.08632405122569424,0.5477687518132478,-118.89061381679399,-55.620424414754105,-47.0153763281872,1
1767556669.630112,1,left_wrist,1.22,0.3933,-0.244,26.81,75.25,174.3,0.6329123283592698,0.11601887817593542,-0.7646377155005939,-0.035927267523127394,134.20267388903616,-73.65016131371509,-127.64276941217223,1
1767556669.630112,2,right_wrist,1.4025,-0.9853,-0.1952,-45.71,44.94,-215.32,-0.18412785955002076,0.7897064800279668,-0.028002580963122393,0.5845309762525595,-127.56367429641159,-65.90975553205169,-39.47331223994373,1
1767556669.6828191,1,left_wrist,1.0951,0.4885,-0.2074,-1.68,63.35,122.15,0.6552265812293778,0.07861800473607973,-0.7513232576729036,-0.003270941998079669,142.63029714658688,-79.7560975306332,-136.4976365899812,1
1767556669.6828191,2,right_wrist,1.2263,-0.4202,-0.2591,-82.53,24.92,-109.55,-0.08384625778945866,0.7683733776232716,0.02468897615408668,0.6340052145455682,-151.81239045362838,-78.08240422333556,-19.336591339737822,1
1767556669.738283,1,left_wrist,1.0956,0.2259,-0.1581,13.3,60.13,88.76,0.6740034024021834,0.0565983390708893,-0.736141148061554,0.024743720320806108,156.1596329056112,-84.33972004707199,-149.5569086127576,1
1767556669.738283,2,right_wrist,1.1278,-0.3645,-0.2577,-12.32,41.44,-81.62,-0.06121879202244361,0.7566413497982424,0.043966267678816014,0.6494713962794676,-166.57674886904206,-81.19572031191343,-4.867100673204231,1
1767556669.792928,1,left_wrist,1.0014,0.265,-0.1932,-7.98,47.46,51.87,0.6872874146141631,0.04014131284766629,-0.7244166469242062,0.03528748184463136,175.61053639674554,-86.9655218763949,-169.4936085623028,1
1767556669.792928,2,right_wrist,1.0643,-0.1723,-0.2621,20.65,23.52,-50.75,-0.05661273124539353,0.750154977124644,0.06365527386283266,0.655751870043471,-179.37695356467506,-82.32366507623644,9.155857001215118,1
1767556669.879174,1,left_wrist,0.9306,0.1469,-0.2059,-22.61,-0.63,13.37,0.6900559201859326,0.007761993317158835,-0.7234766552707109,0.018550141627360243,-161.04361505379592,-87.15408537785228,163.176427867479,1
1767556669.879174,2,right_wrist,0.9941,-0.2952,-0.1898,7.56,18.27,-34.23,-0.05342159023027148,0.7446080476445769,0.073393476718054,0.6613005267315586,171.67273817320842,-83.05419461012177,18.635695579640814,1
1767556669.931416,1,left_wrist,0.9721,0.1757,-0.1313,-23.1,2.66,-3.01,0.6896196904162988,0.004773939484861451,-0.7241204511945804,0.007173859050786343,-175.53663147231384,-87.19742145707465,176.50504442662157,1
1767556669.931416,2,right_wrist,1.1209,-0.264,-0.2084,21.14,12.04,-16.03,-0.05955843241507999,0.7412211297059257,0.08131449619090284,0.6636504974118148,170.059072613784,-83.46850095145176,21.393267145311967,1
1767556669.9855769,1,left_wrist,0.9862,-0.002,-0.1347,2.31,-1.96,-4.62,0.6863926395618817,0.006994304999153457,-0.7271690729762696,0.006431435274033602,179.7533188092036,-86.69517517024633,-178.66498270284228,1
1767556669.9855769,2,right_wrist,0.9916,-0.0742,-0.1552,3.01,-3.5,7.91,-0.07033715719554884,0.7447198879866674,0.07605696469743171,0.6592877299599833,-177.87767038466853,-83.0578198012848,9.782968899688646,1
1767556670.037421,1,left_wrist,0.9877,0.0132,-0.0698,10.29,-4.83,-6.3,0.6827525830824503,0.01410008892302958,-0.7304917790609999,0.005644334407166493,170.7561471994898,-86.07078591922028,-169.1552937860767,1
1767556670.037421,2,right_wrist,1.0048,-0.0195,-0.0834,5.39,-3.71,15.05,-0.07756227635504272,0.7439493956248365,0.0717201355250709,0.6598330184193042,-169.95682153444355,-83.16370530333629,2.0972026471556786,1
1767556670.130553,1,left_wrist,0.9394,0.082,-0.0874,0.91,-12.6,-25.27,0.6784813130235903,0.02972630479656211,-0.7340001491598349,-0.004820343791398404,149.11820021478385,-84.69968349262616,-147.09784295881215,1
1767556670.130553,2,right_wrist,1.0033,0.0283,-0.0883,0.7,-3.78,21.49,-0.0812771916188489,0.743932685369257,0.06740037637606454,0.6598601117102046,-164.58166923696479,-83.09137044276194,-3.3268622669539196,1
1767556670.1936178,1,left_wrist,0.9213,0.2255,-0.266,-15.47,-6.23,-52.5,0.674010130803405,0.04400238432881614,-0.7368973162351835,-0.027504164650833628,132.0003004949524,-82.27814314837443,-130.66040356749556,1
1767556670.1936178,2,right_wrist,0.9765,-0.0571,-0.1981,12.95,-7.21,35.21,-0.10110397802210579,0.7487554361508639,0.05710955870278564,0.6525961850696097,-148.97368021740718,-81.4235996413426,-18.14340878901729,1
1767556670.2813098,1,left_wrist,1.0931,0.7154,-0.2542,-78.96,-45.99,-140.14,0.63899372256669,0.08463603292541559,-0.7509593090285186,-0.14347083548380768,113.72017264001236,-69.29788206793287,-118.56778213582128,1
1767556670.2813098,2,right_wrist,0.9716,-0.3421,-0.1635,61.39,-9.73,65.1,-0.14292741327866956,0.7504121738819298,0.050471938238250844,0.6433551952644345,-131.28585676798602,-78.51900714277411,-32.914292707102135,1
1767556670.3387442,1,left_wrist,1.1829,0.8267,-0.1854,-113.61,-66.71,-231.21,0.6017670039271436,0.1268433608135327,-0.748002007680323,-0.2495600755495226,106.03657993494959,-56.817945829009446,-116.42631689149685,1
1767556670.3387442,2,right_wrist,1.1014,-0.6847,-0.1796,145.67,-45.08,159.11,-0.2922324978783683,0.7523411490268522,0.029579945029981153,0.5896676941437003,-108.28709382103644,-64.76287583208929,-44.743213880465596,1
1767556670.38907,1,left_wrist,1.1209,0.9165,-0.04,-142.1,-52.99,-289.59,0.555905304154623,0.1780411529933397,-0.7206432912721361,-0.37409074754399047,97.8822270954374,-41.91379633724354,-115.34451644191454,1
1767556670.38907,2,right_wrist,1.0765,-1.059,-0.083,171.15,-14.07,234.5,-0.40866209375888407,0.7303827845093082,-0.004604584143727146,0.5472797082131752,-96.34692258621844,-52.71990106966784,-48.55422528256701,1
1767556670.484097,1,left_wrist,0.8662,1.3161,0.4577,-119.21,53.97,-329.98,0.45779434442348527,0.314932246571613,-0.5845325962489119,-0.5912390905595932,83.1149529522043,-9.368928679814855,-112.80867309328741,1
1767556670.484097,2,right_wrist,1.0443,-0.9204,0.002,190.4,-33.32,284.13,-0.5343112113324622,0.6937141609101513,-0.045361997117452986,0.4808476698650809,-87.56305465299133,-38.218844447601036,-47.234757355724184,1
1767556670.5396428,1,left_wrist,0.7227,1.3474,0.6105,-133.77,107.1,-328.02,0.41596755153612547,0.39196682512289727,-0.47648015646448477,-0.6680566327548115,76.0771427329594,7.314262041135211,-110.4573503505267,1
1767556670.5396428,2,right_wrist,0.8306,-1.2166,0.6554,116.06,92.82,311.78,-0.7223642149407448,0.5620580883210999,-0.1924444004449925,0.35390083224434443,-72.76778547647271,-6.8803151110906695,-47.12992920412789,1
1767556670.596668,1,left_wrist,0.5866,1.1702,0.5763,-103.04,160.16,-304.43,0.37624597520539693,0.47466715526529807,-0.36177089397145834,-0.7086973106546837,71.70501041424265,23.613253178745154,-106.89335935948192,1
1767556670.596668,2,right_wrist,0.6681,-1.3015,0.7554,106.96,134.05,299.74,-0.7755493145815442,0.4762360059966091,-0.2855255320958153,0.30032931552863124,-67.16046587337713,9.022539259553819,-48.334515164004394,1
1767556670.675982,1,left_wrist,0.0742,0.7793,0.2625,-65.38,172.27,-233.31,0.29305980073223425,0.6137344567603564,-0.15789647505773177,-0.7159013011192229,71.43035981730323,51.831834802599694,-96.96078153210614,1
1767556670.675982,2,right_wrist,0.3933,-1.0477,0.6403,77.28,178.22,267.68,-0.7966929662935418,0.3899732083303183,-0.384085203868489,0.2562806477521405,-63.903117232826695,24.337500340379318,-50.98361023246971,1
1767556670.735184,1,left_wrist,-0.1005,0.4685,0.1488,-65.03,155.96,-193.55,0.26193414943100435,0.6621166564971336,-0.06823785537449195,-0.6988101527917315,75.55816642900416,62.82804859408025,-88.24119589891674,1
1767556670.735184,2,right_wrist,0.2045,-0.8067,0.5085,57.4,192.22,232.05,-0.7936688143222473,0.3083031503107774,-0.47679033827745665,0.21842608362106558,-63.01560816698054,38.472895597018876,-54.92245282544298,1
1767556664.038553,1,left_wrist,0.3255,0.5924,-1.1122,-14.14,-40.39,-0.7,0.1999318099299854,0.7466333008364312,-0.6220279551841947,-0.12508880217503435,152.93232687572407,-3.5509108129464524,-78.74108860396758,1
1767556664.038553,2,right_wrist,0.1274,0.1288,-1.0531,10.71,-14.07,-5.81,0.047488899115278635,0.7764161760718878,-0.6284203929788725,-0.003245871686547247,175.52993118932218,-3.132527801841787,-77.85016004004063,1
1767556664.128684,1,left_wrist,0.2948,0.6251,-0.7183,-54.25,-84.35,0.49,0.18047900723006666,0.7302607132653812,-0.6304597512663435,-0.19148660695611786,149.62020847699537,2.9865076930873373,-82.42141592599928,1
1767556664.128684,2,right_wrist,0.2098,0.1235,-1.0736,27.79,-30.24,-11.76,0.03367628627034675,0.7798613218807873,-0.6250375233272342,-0.0032126018032232044,176.75643906920394,-2.125422725593063,-77.36225728904024,1
1767556664.185535,1,left_wrist,0.2181,0.7442,-0.5812,-50.89,-84.28,6.58,0.1776041324869333,0.7156663792246972,-0.6343837308989493,-0.23202518773121422,146.51282033759094,6.128975235155094,-84.95455394350185,1
1767556664.185535,2,right_wrist,0.2908,-0.0439,-1.0668,54.95,-44.1,-18.83,0.0042276196521844256,0.7852523420664995,-0.6191603893509885,0.0011396358567359452,179.70043391343523,-0.402503452251452,-76.50950897274808,1
1767556664.238688,1,left_wrist,0.1967,0.6144,-0.733,17.78,-61.25,-3.5,0.1586183432767294,0.7105261180529197,-0.640489505814214,-0.2444709587715032,147.0261018859246,8.292069382788748,-86.52297354284863,1
1767556664.238688,2,right_wrist,0.4085,-0.1088,-1.0497,-7.84,-72.59,3.5,-0.02455780216729794,0.7857141890002723,-0.6172965183041238,-0.03154577699095,179.97957354318424,4.582290137152539,-76.31073048279508,1
1767556664.339277,1,left_wrist,-0.0386,0.446,-0.63,-11.27,-33.11,34.72,0.14180045473021471,0.6895578414414008,-0.658524149934828,-0.2659860114697627,146.2929587681181,10.373687553429114,-90.512892787266,1
1767556664.339277,2,right_wrist,0.3235,0.0815,-0.9087,12.18,-65.24,11.06,-0.04257938303625129,0.7815810787746291,-0.6205162486894991,-0.04772419254477637,-179.57649568910216,7.321860810948748,-76.86673620754495,1
1767556664.390597,1,left_wrist,-0.1576,0.3777,-0.5602,-36.82,-16.52,45.36,0.1503096125293563,0.6726432043083967,-0.6673513215546791,-0.282135346417691,143.96563772986812,10.307686701318007,-92.90815516178414,1
1767556664.390597,2,right_wrist,-0.039,-0.1142,-0.6046,82.39,-32.97,-17.99,-0.11791408974231937,0.7790173692146158,-0.6150981196797101,-0.029707054190278782,-171.37660237575994,11.03111752698403,-75.75371186656791,1
1767556664.445696,1,left_wrist,-0.2128,0.4172,-0.6046,-63.07,-12.53,71.61,0.16972680441181184,0.6466963565877315,-0.6797544053148666,-0.30151381841524355,140.38924694976222,9.162245530890333,-96.16099539357035,1
1767556664.445696,2,right_wrist,-0.1913,-0.1186,-0.5627,25.55,-11.06,-53.62,-0.13428179443381927,0.7911350865010518,-0.5961464318905865,-0.026136303004232395,-169.33285731489025,11.62222706073989,-72.90973160642908,1
1767556664.526573,1,left_wrist,-0.2572,0.5939,-0.5973,-26.74,-5.04,121.24,0.20799479103498775,0.580806901344297,-0.7185543125143578,-0.32106262663251,135.17478940081003,4.246046057475741,-103.85468713365738,1
1767556664.526573,2,right_wrist,-0.2401,-0.0386,-0.5919,68.04,16.38,-80.5,-0.15466761787951622,0.8070088495643575,-0.5699183256382339,-0.002783308462998618,-165.48739370964398,10.415669431754448,-69.1304892268364,1
1767556664.583594,1,left_wrist,-0.2347,0.5758,-0.5797,-28.63,11.69,144.76,0.23519459422057273,0.5347736996324681,-0.7475328686424996,-0.31606202449825965,133.6016397062906,-0.7785626273227315,-108.50760289114133,1
1767556664.583594,2,right_wrist,-0.2377,-0.3572,-0.6115,86.24,34.72,-114.94,-0.18043235140708958,0.827538422967186,-0.5301943851618528,0.03896458676203675,-159.9576256484825,7.286971248893266,-64.00509039829096,1
1767556664.639022,1,left_wrist,-0.1771,0.3196,-0.3553,-89.39,39.76,155.19,0.28552145506261273,0.480815182021512,-0.7643744002895572,-0.32097669014825436,129.5032196434818,-7.344194063526386,-112.19048417838633,1
1767556664.639022,2,right_wrist,-0.2318,-0.5544,-0.6378,62.09,58.8,-152.39,-0.21991228090550402,0.8657799715513657,-0.4271504622663542,0.14002182741664043,-149.92327590768983,-3.129040841704347,-53.36162566502542,1
1767556664.6921852,1,left_wrist,0.0791,0.9936,-0.3919,-93.59,48.02,163.59,0.34444739183440276,0.4190993569002528,-0.775329238377958,-0.3233825836691389,125.0134020143595,-15.251792768488034,-115.2420450680341,1
1767556664.6921852,2,right_wrist,-0.0551,-0.6476,-0.6974,105.21,98.56,-163.52,-0.23429470158030186,0.8750921703761642,-0.3666768037417232,0.2118202250860042,-144.76540810153446,-11.472850491408641,-49.12303433946884,1
1767556664.779588,1,left_wrist,0.5475,1.057,-0.3157,-46.55,86.8,145.25,0.4604567612254415,0.32105001896081853,-0.778882749969173,-0.27972865095927096,119.83419606741548,-32.52515787963695,-116.01496290312747,1
1767556664.779588,2,right_wrist,0.1244,-0.3899,-0.6651,57.89,114.45,-150.43,-0.22082424000539055,0.8807703822047063,-0.3153578255512979,0.27573471076484807,-143.12567727422532,-20.269761936386907,-46.22034355790216,1
1767556664.835333,1,left_wrist,0.7462,0.8677,-0.2982,-35.84,88.2,114.59,0.5114161795993479,0.2835141755066307,-0.7696639344151227,-0.2563018368865829,116.783310603772,-39.93414991731078,-114.34955537159897,1
1767556664.835333,2,right_wrist,0.6803,-0.571,-0.5104,73.36,123.83,-129.85,-0.2208968104007866,0.8539042971944902,-0.21272435216698102,0.420476396938854,-134.6198026931665,-38.61710938121858,-44.64534476481035,1
1767556664.8935812,1,left_wrist,0.7462,0.8677,-0.2982,-35.84,88.2,114.59,0.5591676102379399,0.2463408762098049,-0.7563719099010021,-0.23355789492476436,112.89590033569273,-46.95414362554946,-111.78245932338207,1
1767556664.8935812,2,right_wrist,0.9379,-0.6349,-0.569,63.21,100.73,-128.52,-0.20962572341044186,0.8375608052254313,-0.16058259870526878,0.4782908974963234,-132.0064392409602,-47.21189721275607,-43.7245933613467,1
1767556664.978067,1,left_wrist,1.015,0.6324,-0.2991,7.14,48.58,91.28,0.6119624448435469,0.1875046523022054,-0.7496448138824237,-0.1684536271064663,111.94775489579756,-58.68659601860681,-110.34454352605607,1
1767556664.978067,2,right_wrist,1.0609,-0.7393,-0.5661,31.43,94.71,-126.91,-0.18894130086600955,0.8196955051879431,-0.11566814677073894,0.5282247092141428,-130.62576015319868,-55.311457043037166,-43.151149716006316,1
1767556665.0318458,1,left_wrist,1.1082,0.6154,-0.2684,35.63,53.13,87.29,0.6298972326153659,0.17169713247380702,-0.7467104936201406,-0.12717314874351965,113.20049858827056,-63.77053699366398,-109.49552537157159,1
1767556665.0318458,2,right_wrist,1.117,-0.6749,-0.4041,25.34,51.87,-97.37,-0.17533322548009855,0.8076255413066599,-0.08008619855662985,0.5573019342085738,-130.4309840246677,-60.70348174283207,-41.585558208750975,1
1767556665.083853,1,left_wrist,1.0829,0.5183,-0.2367,22.89,46.55,68.18,0.644113497255394,0.16060607489030704,-0.741251331373491,-0.09934764767613558,113.0212573760878,-67.36693709906466,-107.95751619191304,1
1767556665.083853,2,right_wrist,1.0297,-0.5749,-0.3777,6.72,31.64,-55.79,-0.16689694603208788,0.8005192418864949,-0.06399453946649641,0.572030638771303,-130.4127640460696,-63.44198193630915,-41.01215338425925,1
1767556665.136662,1,left_wrist,0.9882,0.4104,-0.2142,8.47,27.23,56.0,0.6518062467040222,0.1477337419252598,-0.7395373376206554,-0.0800492630779895,113.84935577646598,-70.12189961368645,-108.27922886761377,1
1767556665.136662,2,right_wrist,0.9692,-0.283,-0.3797,-0.91,28.91,-59.5,-0.14008306554586503,0.7894530523207973,-0.029020973029436733,0.5969073596908269,-134.1284331689798,-69.12016685545807,-36.711137097823126,1
1767556665.229482,1,left_wrist,0.9296,0.2425,-0.222,-3.57,-1.54,29.75,0.6512946333226983,0.12415846471384537,-0.7461928982356305,-0.05996778191381336,119.89639344122902,-73.15493027797976,-114.63656558399936,1
1767556665.229482,2,right_wrist,0.998,-0.4187,-0.2689,36.89,23.03,-50.12,-0.14324973330069676,0.7813223626419159,-0.006575395754230507,0.6074303612066233,-133.63118005431818,-71.31854521215644,-35.12747160727991,1
1767556665.287151,1,left_wrist,0.9077,0.3387,-0.12,-26.25,0.98,18.2,0.6538848196646775,0.1137218589600115,-0.7449985618672579,-0.06692625958836469,118.68102046047535,-73.54945844090896,-114.84912006452477,1
1767556665.287151,2,right_wrist,0.9423,-0.2957,-0.2479,8.82,2.52,-16.94,-0.13865177420935032,0.7779458458812573,0.008241433826777805,0.6127870961053057,-135.67577723777606,-72.88494704916938,-32.265443861507784,1
1767556665.339191,1,left_wrist,0.9257,0.2645,-0.0981,-19.46,4.34,16.45,0.65888911537229,0.10404804296257468,-0.7416890598092074,-0.07026006660197183,116.79063441985998,-74.3146388012414,-114.02672869232102,1
1767556665.339191,2,right_wrist,0.9677,-0.2596,-0.161,3.99,-1.47,-11.2,-0.13958366261284555,0.776239506856596,0.011469307867894147,0.6146845403161229,-135.3873324729547,-73.23317791632763,-32.21671722942745,1
1767556665.429495,1,left_wrist,0.935,0.2338,-0.1049,-55.23,-1.96,-14.42,0.6633864901613481,0.08240433281170165,-0.7372499158414072,-0.09793085416304603,111.63838151195586,-74.15910645173189,-112.90861510473121,1
1767556665.429495,2,right_wrist,0.997,-0.1796,-0.1591,10.57,-6.65,-5.46,-0.14078392494687042,0.7752743525452805,0.017747286218147522,0.6154791617869294,-135.90195785187774,-73.60274141232685,-31.091952831019096,1
1767556665.482368,1,left_wrist,0.9604,0.405,-0.1147,-77.07,-15.12,-48.86,0.6577855188402015,0.0784426655117338,-0.7357391023162608,-0.1409004356075721,106.99871243264704,-71.05167892604187,-112.13127084956453,1
1767556665.482368,2,right_wrist,0.9745,-0.2425,-0.1884,18.55,-4.9,10.22,-0.15327215861670562,0.7743368967262559,0.016896994337560246,0.6136974069879092,-132.68092639903247,-72.86180152523401,-33.340222432691554,1
1767556665.5347672,1,left_wrist,0.9536,0.5588,-0.2172,-106.19,-35.21,-97.44,0.6404974408332653,0.07991789213595758,-0.7353812806123072,-0.20637473422777855,103.0850674312307,-65.37214047830385,-113.58765640967403,1
1767556665.5347672,2,right_wrist,0.9262,-0.2108,-0.2577,47.88,-9.31,30.94,-0.17688018380387946,0.7759037467242593,0.019890806913744157,0.6052199039994326,-129.2847162791499,-71.12407143220439,-34.49837002887204,1
1767556665.58951,1,left_wrist,0.9135,0.8784,-0.2401,-96.95,-33.11,-142.45,0.6163607583337762,0.09852146677114758,-0.7291666145974895,-0.28055121516028064,98.86766052306625,-57.51997793915545,-114.27663539686853,1
1767556665.58951,2,right_wrist,0.9477,-0.5495,-0.3357,150.64,-25.13,97.79,-0.3026099896749515,0.7660415025286516,0.03478609390955567,0.5660366933539619,-112.53826330585053,-62.6564595446993,-39.03518120991089,1
1767556665.648316,1,left_wrist,0.9018,1.1888,-0.1279,-138.81,-21.14,-205.17,0.5851736343140931,0.1264164284564498,-0.7041813596180267,-0.3817319964143151,91.98033626231397,-46.68743498760377,-114.38173919002041,1
1767556665.648316,2,right_wrist,0.8813,-1.0365,0.0195,204.05,-21.07,219.03,-0.4242775082444304,0.7399319570031998,0.012077993353396443,0.5218653246574901,-98.80382183682913,-51.493589634442735,-43.04329809460537,1
1767556665.732448,1,left_wrist,0.7081,1.2551,0.406,-110.39,34.44,-275.38,0.5005508093695485,0.23794275040662244,-0.6058841969065714,-0.5707332780794377,80.6811359861185,-19.569373355024,-114.16132382699355,1
1767556665.732448,2,right_wrist,0.8813,-1.0365,0.0195,204.05,-21.07,219.03,-0.5384603349423712,0.700337661764217,-0.010791388660689193,0.46847750547828076,-88.58937262976602,-40.132949493592015,-42.81643710026139,1
1767556665.786326,1,left_wrist,0.6329,1.2293,0.5661,-101.43,75.53,-280.77,0.45900034003547596,0.30430693059111286,-0.5281711136247299,-0.6463367965495588,75.0517202378698,-5.249441283765076,-113.27152701688168,1
1767556665.786326,2,right_wrist,0.753,-1.239,0.2616,179.69,12.46,247.8,-0.640963121763214,0.6461518508527706,-0.05419925127541089,0.4107511452695893,-79.66963859082753,-27.47333677351862,-42.25466854268335,1
1767556665.842583,1,left_wrist,0.5173,1.0443,0.5861,-99.75,89.04,-280.49,0.4123710700577021,0.3677633136194829,-0.4405451693125256,-0.7075451925711047,69.77967959911868,9.037574919503502,-113.2220408029729,1
1767556665.842583,2,right_wrist,0.7135,-1.1956,0.4865,173.74,55.09,255.15,-0.7292557184954501,0.5734481566307551,-0.10864272081391911,0.3571275233199236,-70.77614891310071,-14.544483890600041,-41.82417775803199,1
1767556665.927399,1,left_wrist,0.0927,1.0194,0.6173,-96.95,138.04,-253.61,0.3209774132196792,0.4876725399884071,-0.24075944836183533,-0.7753604851735503,59.24709823548008,36.99084062104424,-113.48470580608863,1
1767556665.927399,2,right_wrist,0.5261,-1.1204,0.8564,144.13,130.34,245.07,-0.8407781206815803,0.4050286151861782,-0.2481985806367495,0.25969489258246864,-55.885743789822996,11.946142353014077,-40.6823104427314,1
1767556665.9797041,1,left_wrist,-0.0259,0.7618,0.4387,-51.24,163.45,-214.41,0.27702866357926553,0.5521286385310334,-0.156389804847931,-0.7706823697276197,58.02931930182742,49.852105302997174,-111.5488905859468,1
1767556665.9797041,2,right_wrist,0.3592,-1.0531,0.8477,104.02,176.75,224.0,-0.8583976770612246,0.32076030277601464,-0.3342222512345828,0.22036729103617092,-50.7234023137929,25.6213044715275,-41.09993938222671,1
1767556666.0306659,1,left_wrist,-0.1669,0.5714,0.2098,-50.61,158.62,-166.74,0.24539879435396555,0.6064248616427401,-0.08315505622103482,-0.7517403511426536,59.32859958488808,60.56756542614247,-107.0470812937404,1
1767556666.0306659,2,right_wrist,0.1586,-0.8477,0.6276,71.12,191.1,196.98,-0.8533846966643275,0.24734894629946277,-0.42011833852699737,0.18453628341601172,-47.73222979035832,38.73765413419718,-42.08483634365597,1
1767556666.091845,1,left_wrist,-0.3592,0.3465,0.0059,-61.95,136.64,-120.4,0.2281626583100226,0.6484243233624326,-0.019609172530267636,-0.7260187177873263,63.98301633146105,68.84193562133568,-98.76086746637925,1
1767556666.091845,2,right_wrist,-0.2523,-0.324,0.1791,38.08,160.44,128.45,-0.8071048364176833,0.13815570117492992,-0.559272988058651,0.12926140217403007,-47.54979185232681,60.11962813319747,-46.80388016111891,1
1767556666.176911,1,left_wrist,-0.5671,0.426,-0.1576,-51.94,105.21,-85.33,0.20673271985869027,0.7053423094197526,0.07737155696540947,-0.6736226326772183,92.13564892356426,79.19153370053077,-64.58116095845779,1
1767556666.176911,2,right_wrist,-0.4338,-0.3562,0.1684,32.83,137.41,83.86,-0.777586309763873,0.10220614076658266,-0.6089931967471192,0.11849355245382835,-51.95069718382163,67.34903338284109,-53.29668135165177,1
1767556666.232696,1,left_wrist,-0.8174,0.1571,-0.1552,12.67,38.99,-54.11,0.18484191491276863,0.7183013025917184,0.09397837866511889,-0.664112015799968,109.40798579951482,81.41954702604079,-47.785890990441324,1
1767556666.232696,2,right_wrist,-0.5597,-0.4026,0.0381,51.94,104.02,62.02,-0.752488785698019,0.06616392090786771,-0.6445633984577256,0.11798723802787073,-57.50233180758088,72.63838621354924,-61.7511302245028,1
1767556666.291379,1,left_wrist,-0.9584,0.162,-0.1357,42.07,54.95,-36.54,0.15882639289082465,0.7380817737069509,0.09720958362270427,-0.6485057972715365,135.01507476354317,81.18171688211791,-24.061064870693706,1
1767556666.291379,2,right_wrist,-0.8272,-0.2791,-0.1186,13.79,44.17,44.73,-0.722591084182337,0.010053335293366304,-0.682551852250089,0.10901387296875042,-67.38499516705924,79.80784967738904,-75.44207510545124,1
1767556666.342825,1,left_wrist,-0.8032,-0.286,-0.3977,31.5,27.44,-6.51,0.14249852478712768,0.7492612423704499,0.09494801385051208,-0.6397551373618074,146.82750500486645,80.31493738513878,-13.771082583668797,1
1767556666.342825,2,right_wrist,-0.8867,-0.0864,-0.245,-19.39,43.12,24.15,-0.7081173256389551,0.00642787739623699,-0.6996542718271099,0.09493384768452982,-81.62981471043179,81.75111434095469,-88.82466530311068,1
1767556666.3989398,1,left_wrist,-0.9897,0.0986,-0.1913,-20.93,-8.89,10.92,0.1524559167589347,0.7482654138936796,0.09666141304922246,-0.6383671631929708,142.89854229994117,80.00052623518303,-16.731657502916022,1
1767556666.3989398,2,right_wrist,-0.9135,0.0386,-0.2689,31.64,-7.91,-1.05,-0.7082380017781125,-0.004130792706799843,-0.6983939721356559,0.10309087774163445,-79.96021694163882,81.93518459119873,-88.6781932483967,1
1767556666.4765718,1,left_wrist,-0.9052,-0.0278,-0.2728,20.72,-0.42,14.84,0.1465120210810329,0.7576446972625489,0.08085797916027451,-0.6308492114561198,143.32529913820045,78.41060522557635,-18.0750703558074,1
1767556666.4765718,2,right_wrist,-1.056,-0.2733,0.0717,7.21,-7.77,-3.01,-0.7110919588495803,-0.0019571345174324226,-0.6945304114737488,0.10941619268669825,-76.70821409961982,81.18125072204202,-85.76885218523157,1
1767556666.529811,1,left_wrist,-0.8408,0.0351,-0.2689,3.99,-27.51,41.86,0.15568181363611253,0.7538151048376969,0.06560590811063008,-0.6349975003434912,133.78097505966593,77.89602947399108,-28.11267825590943,1
1767556666.529811,2,right_wrist,-0.9618,0.0029,-0.0649,-19.32,-5.32,-10.57,-0.7108535136168749,0.004770387736226776,-0.6955913424254654,0.10400581677064481,-77.97711644102613,81.09072316722015,-86.04904903087487,1
1767556666.585556,1,left_wrist,-0.6037,-0.0151,-0.4397,31.99,-54.6,105.35,0.17400563509348987,0.7454706139283711,0.01951354334669964,-0.6431289329139418,115.58826597472792,74.94090674520015,-48.54412894277895,1
1767556666.585556,2,right_wrist,-0.8735,-0.1074,-0.0283,3.43,-30.24,-31.71,-0.7162997068627163,0.013552835616423264,-0.6883928808859449,0.1133414846412834,-73.53341903849204,79.45736828817877,-81.66029257206127,1
1767556666.6380439,1,left_wrist,-0.4236,0.0834,-0.4143,76.23,-84.77,187.95,0.20072353172369842,0.7286995542847597,-0.06869114217184293,-0.6511440319811627,100.59355838251403,67.131747109137,-68.47485931912493,1
1767556666.6380439,2,right_wrist,-0.5085,-0.1215,-0.4616,-89.32,-87.64,-132.02,-0.7316616494535105,0.11756349045393649,-0.6572653468763305,0.13730375168505915,-72.91309322745194,68.35823184200477,-74.54162735740199,1
1767556666.688312,1,left_wrist,-0.2094,0.2552,-0.245,87.29,-113.19,245.56,0.23843931269742477,0.6938814009946319,-0.1818796835322093,-0.6546717316581876,92.92780895748507,55.26483997849868,-82.26892474248126,1
1767556666.688312,2,right_wrist,-0.3231,-0.2489,-0.2664,-112.28,-142.1,-201.04,-0.7465669582077941,0.219468693347639,-0.6069930346363822,0.16134040242777928,-72.33017619229817,56.66830797504559,-67.41209263425363,1
1767556666.782061,1,left_wrist,0.1157,1.1663,0.0869,152.04,-102.06,342.44,0.35059287438859355,0.5672518684224199,-0.43415529699768207,-0.605655952078465,91.27337304969831,22.50074429304493,-96.87679567417365,1
1767556666.782061,2,right_wrist,-0.1801,-0.5392,0.1635,-146.02,-162.61,-257.88,-0.7490246141987578,0.3459411396264904,-0.5314948051572933,0.1918335928067297,-74.8390849669688,41.56575310010327,-61.11426364867797,1
1767556666.838523,1,left_wrist,0.5758,1.241,0.712,-90.65,-76.65,315.56,0.43965881825721165,0.4654745569204234,-0.4953421098131455,-0.5870858153918126,85.61768249627501,6.3720400119882425,-100.43887507655893,1
1767556666.838523,2,right_wrist,0.1498,-0.9199,0.4817,-198.66,-102.34,-297.36,-0.6741722424323228,0.57558871931928,-0.3653680301937298,0.28406973833641286,-85.90595833814342,9.53367722133197,-54.57570664250507,1
1767556666.891346,1,left_wrist,0.2557,1.6763,0.04,316.05,-10.64,305.69,0.44528502335205133,0.4466683575553569,-0.631337953051593,-0.45124385355790453,101.4628809633958,-9.156864383040086,-101.94987601661514,1
1767556666.891346,2,right_wrist,0.3113,-1.79,0.5305,-185.29,-32.9,-308.63,-0.587449744154445,0.6750252333297216,-0.29426811655895524,0.335633740910948,-94.87585772789399,-6.164711027481798,-52.77035670184395,1
1767556666.941507,1,left_wrist,0.2557,1.6763,0.04,316.05,-10.64,305.69,0.4348613870323143,0.4131414982815363,-0.7406068388933243,-0.3028385488184366,118.48476155830758,-23.196906969961404,-107.76317699990615,1
1767556666.941507,2,right_wrist,0.4695,-0.548,-0.0361,-279.23,37.31,-296.8,-0.44774002945773894,0.767943273499632,-0.25016584892082006,0.3836783063212957,-109.10206439576842,-21.42406572533121,-51.42795657011742,1
1767556667.0293918,1,left_wrist,1.039,0.974,-0.2245,83.09,55.3,240.24,0.4900477732693961,0.28874086626818285,-0.8145580751026194,-0.11391678693468213,136.49854165088817,-47.10142917417677,-121.23360650294492,1
1767556667.0293918,2,right_wrist,0.8462,-1.0399,0.2772,-136.08,68.11,-277.27,-0.3454155216380685,0.8045579755794425,-0.18989093702059018,0.444202671514313,-116.84824007019675,-35.70351640619013,-48.953275875433725,1
1767556667.088129,1,left_wrist,1.1697,0.7232,-0.3001,47.88,74.2,200.83,0.5209214528927629,0.22935312134550984,-0.8210014570044043,-0.04466086924602076,145.4361863433042,-56.60212968794121,-129.76312798651244,1
1767556667.088129,2,right_wrist,1.2205,-0.4953,-0.1518,-69.3,57.68,-187.25,-0.1987665670889055,0.8134230651392864,-0.07973622641476227,0.540811337810362,-129.36446779639002,-58.007671406341274,-40.58933254213683,1
1767556667.146698,1,left_wrist,1.1639,0.5558,-0.2889,35.0,48.86,136.71,0.5392190161159781,0.1888550270350773,-0.8207123757336834,0.0027978098702335997,154.5584676356825,-62.39265752908239,-138.51492824009784,1
1767556667.146698,2,right_wrist,1.1136,-0.3684,-0.2943,-68.25,47.46,-138.11,-0.13789833715774913,0.8094911205969757,-0.048668491961883616,0.5686295386048251,-138.53472712884428,-65.11830976773462,-34.056099867469456,1
1767556667.226453,1,left_wrist,1.0141,0.3758,-0.2621,10.22,34.86,89.32,0.5691803897390847,0.12297845133433655,-0.8103850170353939,0.06470014380521985,174.16394736377237,-69.78854454103438,-158.66982058406353,1
1767556667.226453,2,right_wrist,1.118,-0.4089,-0.2694,-30.24,41.09,-118.37,-0.09867096459766554,0.8003952701168047,-0.017591974115594333,0.5910346646066791,-147.62067210683338,-70.50164352738788,-25.709589466449984,1
1767556667.2795699,1,left_wrist,1.0102,0.3367,-0.2743,-10.22,35.35,65.45,0.5816396709570684,0.09852478161983645,-0.8038879190235555,0.07584440799224576,-178.65386189897944,-71.82189116316171,-167.00016697603445,1
1767556667.2795699,2,right_wrist,1.0819,-0.2689,-0.3045,-15.82,32.13,-89.88,-0.07335052898530384,0.7918975770003176,0.0057159063245338605,0.6062056217600519,-156.75006701553318,-73.9341053322619,-16.776372484056825,1
1767556667.336472,1,left_wrist,1.0102,0.3367,-0.2743,-10.22,35.35,65.45,0.5931390848712028,0.07438527703296903,-0.7969528597654804,0.08671214373144699,-169.9284030459186,-73.39707599199376,-176.8505862496303,1
1767556667.336472,2,right_wrist,1.0067,-0.2664,-0.263,8.47,20.65,-41.58,-0.06578230391499726,0.778490231373817,0.041560273130513026,0.6228148937240445,-166.7756683711414,-77.20753516370623,-4.463514202149314,1
1767556667.429651,1,left_wrist,0.9862,0.1005,-0.1503,-6.93,11.34,14.91,0.6075219896133033,0.058658174210100535,-0.7871687510402006,0.08855285495364712,-164.52677341877592,-75.20223429274773,176.5774093368408,1
1767556667.429651,2,right_wrist,1.0072,-0.2147,-0.2547,16.94,8.33,-22.26,-0.06936202376792694,0.7760196935606175,0.050442967119002396,0.624850263609718,-167.9782991405362,-77.63141576957719,-2.245406945227759,1
1767556667.4815302,1,left_wrist,0.9867,-0.022,-0.1308,-6.72,5.95,8.82,0.6121387914401394,0.054279623186330735,-0.7839560697272587,0.08804943644762868,-163.05946295030145,-75.77504675418298,174.7016189815631,1
1767556667.4815302,2,right_wrist,0.9745,-0.1962,-0.2064,12.11,3.64,-8.4,-0.0751025288242787,0.7745780744587307,0.053359304262485814,0.6257325318222051,-166.44753202577854,-77.78816889461824,-3.069398554406717,1
1767556667.537607,1,left_wrist,0.9809,0.0073,-0.1039,-3.36,-0.91,2.94,0.6144471239545756,0.0534659719568906,-0.7823763708343004,0.08650627761500576,-163.14678742069802,-76.09800257507553,174.59152034672616,1
1767556667.537607,2,right_wrist,0.9736,-0.0727,-0.161,-5.11,1.47,1.54,-0.07994208024233498,0.7702513879590995,0.04891802784088471,0.6308162091336647,-162.20126478115736,-78.40572575356549,-7.288996220934197,1
1767556667.596193,1,left_wrist,0.9872,-0.0288,-0.0888,2.66,-9.38,-0.63,0.6139124615001504,0.055231458280098636,-0.7826611637715313,0.08661684798509063,-163.6644305309476,-76.0576928489892,175.26358026651187,1
1767556667.596193,2,right_wrist,0.9882,-0.0229,-0.1401,-5.74,-0.98,5.32,-0.07796207504643815,0.7687755759059645,0.04693400935406282,0.633011238060478,-162.03503364046682,-78.69726491831092,-7.782002279937499,1
1767556667.684779,1,left_wrist,0.9692,-0.101,-0.059,8.89,-8.75,-6.3,0.6129280164591693,0.06125649946549659,-0.7827383640961779,0.08881183076989844,-164.64576436949437,-76.02593890566425,176.92000650292525,1
1767556667.684779,2,right_wrist,0.9906,0.0366,-0.1425,-6.02,-2.73,10.01,-0.07566400005363846,0.7685895441587269,0.044558285859885215,0.6336873289462177,-162.11550043780127,-78.76426646889432,-8.084114188898857,1
1767556667.739918,1,left_wrist,0.9692,-0.101,-0.059,8.89,-8.75,-6.3,0.6124588140912284,0.06552491580663358,-0.7825222001511355,0.09088285163399126,-165.12179632236715,-76.03312284030332,177.91656990292785,1
1767556667.739918,2,right_wrist,0.996,0.0068,-0.0966,1.33,-5.32,8.26,-0.07371876872217253,0.7681405022274087,0.04140655693206699,0.6346740966976222,-161.69895407653723,-78.85544007673397,-8.917844102073142,1
1767556667.833314,1,left_wrist,0.9721,-0.0395,-0.063,-10.71,-2.73,-5.18,0.6169511980690728,0.06365731331458269,-0.780254203022726,0.08076103223755403,-168.1195968232835,-76.66535512763949,179.92212969028282,1
1767556667.833314,2,right_wrist,0.9867,-0.0176,-0.0849,1.4,-3.36,6.93,-0.07522458494590958,0.7669939838798864,0.040397129590900686,0.6359477670631386,-160.40552903900397,-78.99602321425613,-10.171843337008701,1
1767556667.8980732,1,left_wrist,0.9692,0.0351,-0.1581,-21.49,1.89,-14.0,0.6209548760727887,0.06447677169824302,-0.7782775227566812,0.06739351129392195,-173.55394318077197,-77.22374264560241,-175.67821109452402,1
1767556667.8980732,2,right_wrist,0.9838,-0.0493,-0.1581,22.12,-3.64,9.59,-0.0798614953547167,0.7633300394198859,0.04146599257877095,0.6397108440056346,-157.80312915676717,-79.49659627006642,-12.312194190527302,1
1767556667.978678,1,left_wrist,0.9809,0.2601,-0.286,-115.22,-36.05,-88.34,0.6080683333869616,0.07066587303490698,-0.7902187794415818,-0.028522218323165004,153.15631029807025,-73.13341068933195,-149.703624828244,1
1767556667.978678,2,right_wrist,0.9609,-0.1059,-0.1996,25.83,-12.18,17.08,-0.09511838686896884,0.7679210033345308,0.04144350078999187,0.6320856440067301,-152.86749275429506,-78.14419849442459,-15.99006781110541,1
1767556668.034675,1,left_wrist,0.9701,0.69,-0.2289,-129.64,-38.64,-145.39,0.5946355195199742,0.08837141784046916,-0.7906076065538941,-0.11635593621813413,132.590963482548,-66.87958586092243,-134.90561380530255,1
1767556668.034675,2,right_wrist,0.9579,-0.2494,-0.2635,33.67,-15.26,35.91,-0.11890020612504258,0.7726222144629935,0.036714676819615814,0.6225509514953405,-144.92862261331823,-76.10183022693842,-22.34267012319247,1
1767556668.088039,1,left_wrist,0.9882,0.8545,-0.1259,-137.13,-27.79,-195.72,0.5775083987010753,0.12055656596525263,-0.7774988248935867,-0.2178204332046869,116.47858418385881,-57.726065269016665,-124.69000495895789,1
1767556668.088039,2,right_wrist,0.9765,-0.5153,-0.3133,130.76,-39.55,114.52,-0.24965283510488662,0.7779067156552212,0.027782674636788962,0.5759884778818284,-120.72397306464137,-65.50571872932245,-36.11495345621606,1
1767556668.140973,1,left_wrist,1.0063,0.9638,-0.0425,-126.0,-14.7,-240.24,0.5531009691451693,0.16940719245034644,-0.749162086353231,-0.3227021683342706,105.00917784963654,-46.00400993621424,-118.43645078179125,1
1767556668.140973,2,right_wrist,0.9984,-0.7027,-0.2084,165.69,-53.62,154.0,-0.34578182624762865,0.7705431657714361,0.019892817785230995,0.5350723634428819,-110.2035495420353,-56.96627646775146,-38.50363211431316,1
1767556668.191406,1,left_wrist,0.9335,1.1395,0.0239,-129.5,5.25,-267.61,0.5231953729581624,0.22544323117001958,-0.7013991821806839,-0.4283469837305476,95.83885018459779,-32.738234630257686,-114.65464642905329,1
1767556668.191406,2,right_wrist,1.0072,-0.957,-0.0171,201.6,-32.06,217.63,-0.4633508358141962,0.741288455851438,-0.003393560107659006,0.48557791539718115,-98.16533828011454,-45.78777078669196,-40.73220254685529,1
1767556668.242372,1,left_wrist,0.8247,1.2976,0.2982,-158.34,40.88,-288.05,0.49389653296322295,0.28167815118925454,-0.6250504794928586,-0.5348228977477114,86.37772152349453,-18.4287230134853,-111.87313166318816,1
1767556668.242372,2,right_wrist,0.9599,-1.1722,0.1103,199.85,1.75,253.96,-0.5788486349318318,0.6907861445287894,-0.044609349619293616,0.4309974086826383,-87.15530304615183,-32.94337752941719,-41.9132904725974,1
1767556668.329931,1,left_wrist,0.5768,1.2712,0.5597,-84.7,128.59,-275.24,0.4210357908969376,0.405657475723713,-0.44538151337773546,-0.6780900992601303,73.83188334114628,10.08456602492727,-108.74191263236504,1
1767556668.329931,2,right_wrist,0.8818,-1.2322,0.3265,174.3,48.23,270.62,-0.6762660315090875,0.6234475437481025,-0.10394753037429878,0.37838119106331375,-77.69939327379092,-19.342190339794076,-42.82421547824284,1
1767556668.383351,1,left_wrist,0.3826,0.997,0.4563,-93.24,142.45,-250.32,0.3904912030979285,0.4723187849820243,-0.3456700676410883,-0.7105939698542636,69.89473048647581,23.658942472655596,-105.76541610911862,1
1767556668.383351,2,right_wrist,0.7964,-1.1927,0.4963,136.29,87.85,277.76,-0.7483379637167098,0.5494917313081326,-0.17833859016419423,0.3259516475530798,-70.49415934802099,-5.238422296334817,-43.3697043975334,1
1767556668.439606,1,left_wrist,0.1757,0.8355,0.4821,-60.34,156.31,-215.46,0.35969978760804167,0.536574852580747,-0.25562424025410213,-0.7192772331773003,68.72534450536247,36.01493968824191,-101.7998224795274,1
1767556668.439606,2,right_wrist,0.3426,-0.9155,0.5871,94.01,160.65,227.78,-0.8214054656208152,0.3857309286017886,-0.34230908404849086,0.24357586651008098,-59.68222190534561,21.989681849526086,-45.753151577727884,1
1767556668.500555,1,left_wrist,-0.019,0.6886,0.3914,-53.55,161.7,-179.9,0.3343933559576343,0.5932402597636189,-0.17217322480394562,-0.7117608154061271,69.74558612256226,46.83135850678049,-96.08263319172075,1
1767556668.500555,2,right_wrist,-0.0503,-0.6983,0.4592,58.66,169.75,168.35,-0.8196638784385462,0.3210312055242933,-0.41944114829646156,0.22171877362651277,-58.17738874543838,33.04135478873707,-49.0126357116431,1
1767556668.575575,1,left_wrist,-0.3977,0.408,0.0444,-45.36,133.28,-118.72,0.29554245334207496,0.6766372883605681,-0.03512789209024482,-0.6734854634436448,79.62884208852115,62.954685295236516,-78.53663167756484,1
1767556668.575575,2,right_wrist,-0.0503,-0.6983,0.4592,58.66,169.75,168.35,-0.8090461471626819,0.25328655816282913,-0.4923095592736478,0.19728545071300807,-57.35818690267587,44.15986931760947,-52.43002056684719,1
1767556668.6297479,1,left_wrist,-0.3977,0.408,0.0444,-45.36,133.28,-118.72,0.2783183122116417,0.7095029605986812,0.026778326557470415,-0.6468596348638173,91.30745404716804,68.87612583384066,-63.33860980444431,1
1767556668.6297479,2,right_wrist,-0.245,-0.5392,0.2943,48.51,160.79,136.43,-0.7884052118605199,0.19506570288782935,-0.5552163221672101,0.17916871676484883,-58.75044925816964,53.66548826866724,-57.39472862993903,1
1767556668.6840692,1,left_wrist,-0.7603,0.3836,-0.0298,-47.88,87.92,-71.96,0.27415685396387335,0.7276937500467054,0.06982034532870547,-0.6248399354600944,102.4496324547503,71.38191472608683,-49.01237424092854,1
1767556668.6840692,2,right_wrist,-0.407,-0.548,0.1542,50.54,136.43,103.25,-0.7644080399892272,0.1456034468513219,-0.6047108943337144,0.16971953022254577,-62.13068106338689,61.05305305045845,-64.14892343104792,1
1767556668.734148,1,left_wrist,-0.8008,0.286,-0.3367,56.49,92.68,-52.85,0.23780411732909737,0.7594515282089479,0.08216775021414437,-0.5999425296702747,122.45894755520264,71.86655143388244,-31.05087183650127,1
1767556668.734148,2,right_wrist,-0.7281,-0.3816,0.0434,84.77,114.94,86.73,-0.7138919037443401,0.036730720177562785,-0.6791209374097874,0.1667451838440049,-74.9705269990434,73.21369122995401,-85.63483920263681,1
1767556668.792661,1,left_wrist,-0.6144,-0.5427,-0.6115,61.53,32.69,-8.68,0.21017462417112812,0.7753189717939325,0.0750362299055824,-0.5908271181424232,131.98531855554504,71.38778166502267,-24.430107918960033,1
1767556668.792661,2,right_wrist,-0.5929,-0.0156,-0.65,-86.45,109.9,36.47,-0.6784103801312694,0.044216633655820514,-0.7217339947899505,0.13001648435038296,-100.45693169683528,75.4128968763016,-107.47025095167942,1
1767556668.879264,1,left_wrist,-0.9838,0.161,-0.2074,7.07,12.74,6.72,0.21414632349879856,0.7742687907000866,0.07375705560035917,-0.5909391581448458,130.64761107830756,71.20566152373115,-25.535597286977932,1
1767556668.879264,2,right_wrist,-0.669,0.1186,-0.3928,66.71,-25.27,6.09,-0.685503593767505,0.022255597891926427,-0.7128980219264281,0.14617086449663752,-94.17434279918692,76.13954945180559,-104.30208570064445,1
1767556668.934881,1,left_wrist,-0.9106,0.0747,-0.3138,0.0,-10.99,11.97,0.21422125275748083,0.7733162853059322,0.0711123265383442,-0.5924814045706019,129.84250445502383,71.23012693879383,-26.55720805706383,1
1767556668.934881,2,right_wrist,-1.0878,-0.4046,0.2011,-9.94,-12.11,-2.73,-0.6908581851492486,0.028097495831044834,-0.7076372329090747,0.14551647790232858,-90.72089672263651,75.8307003073892,-100.31959818676548,1
1767556668.98661,1,left_wrist,-0.9858,0.2406,-0.1249,-4.62,-20.65,20.44,0.22215258561213713,0.7658632061023615,0.06364722818205062,-0.6000423389971711,124.47416954214579,71.33026332865253,-31.88987795239783,1
1767556668.98661,2,right_wrist,-0.9209,-0.1781,-0.0512,1.54,-31.71,-17.5,-0.6918424313436377,0.03814712117617452,-0.7072233024822392,0.14047792625394695,-90.73813730217542,75.43353073676217,-99.10472230048417,1
1767556669.044336,1,left_wrist,-0.8286,0.0093,-0.3006,13.51,-28.98,39.97,0.22540073054023976,0.7620824112697921,0.04653828552578435,-0.6051934377415757,120.00675145664314,70.62959022923651,-37.49559137225549,1
1767556669.044336,2,right_wrist,-0.9228,-0.2094,-0.123,-3.36,-28.98,-18.48,-0.6971561384236313,0.04612534607638999,-0.7009156806176653,0.14339797687505443,-87.15640465643341,74.59382442446979,-95.11643068508685,1
1767556669.098058,1,left_wrist,-0.6437,0.0024,-0.4416,23.03,-64.4,94.01,0.24103220413358686,0.7508124698491457,0.004477718171707372,-0.6149504546949335,109.67968010418225,67.75650508941983,-49.938981638269205,1
1767556669.098058,2,right_wrist,-0.7325,-0.0698,-0.347,-14.42,-58.24,-50.4,-0.7086940456592948,0.06867572045312478,-0.6856138816779762,0.1515585705849843,-80.61547062290003,71.98288437776344,-87.41921291685014,1
1767556669.1780841,1,left_wrist,-0.2269,0.2718,-0.2552,108.99,-120.96,236.67,0.28744974402987217,0.700300120174742,-0.19332266715700136,-0.6241624249373766,94.93386410565616,49.73479178576687,-76.93599722165324,1
1767556669.1780841,2,right_wrist,-0.4982,-0.1093,-0.3743,-62.37,-107.45,-107.94,-0.7273022931659937,0.12683422980717868,-0.6548251971355811,0.16170471143740445,-74.45454889280623,65.71240478739543,-77.34503140998186,1
1767556669.2376692,1,left_wrist,-0.0151,0.7266,0.0342,47.18,-141.4,279.79,0.337002277890035,0.6364342941392742,-0.30932482622343743,-0.6210467018044711,90.10293584045786,35.59306127701741,-87.37528424077786,1
1767556669.2376692,2,right_wrist,-0.3284,-0.2801,-0.162,-98.42,-142.1,-198.52,-0.7407937390098835,0.22522485715410603,-0.604177990817149,0.18832778705178363,-73.2906192537761,54.12626432652702,-70.1477780323237,1
1767556669.296614,1,left_wrist,0.1547,0.9897,0.1781,145.32,-109.13,319.41,0.36651696524573163,0.5753707854236898,-0.450076608203986,-0.576233303632809,94.08955344564386,19.46154968079905,-94.21058950657961,1
1767556669.296614,2,right_wrist,-0.0229,-1.0648,0.5485,-166.25,-105.63,-310.1,-0.6761386396632459,0.49827110992876134,-0.4688155402725158,0.2734491363374267,-86.07170985716179,21.190193605744636,-63.85331312461929,1
1767556669.37753,1,left_wrist,0.4485,1.3181,0.1591,88.41,-91.07,310.31,0.4308930082596704,0.4090158666848973,-0.6577150698119606,-0.46308543831044996,101.73541503935151,-10.835568278057783,-107.42233683225727,1
1767556669.37753,2,right_wrist,0.1401,-1.0917,0.0264,-140.28,-70.7,-326.13,-0.6116277500933801,0.6095231676467577,-0.38619958470395227,0.324411596882829,-92.37617253131172,4.413157894503111,-60.48346466894886,1
1767556669.427813,1,left_wrist,0.7305,0.9355,0.0956,10.57,1.19,282.94,0.4857059077740356,0.3247253060516133,-0.7047095513317452,-0.4025266389009509,103.01974582198018,-25.03311542099834,-110.49840756381313,1
1767556669.427813,2,right_wrist,0.488,-0.8916,0.4065,-235.69,-15.19,-335.23,-0.49611171571334406,0.7195931671683794,-0.3185494862526945,0.3668583706346187,-104.12984154597741,-12.234030477011567,-57.306217957048595,1
1767556669.4847732,1,left_wrist,0.7696,1.1409,0.0024,132.51,29.54,278.39,0.5230030471042988,0.26773153514284465,-0.7532299812921387,-0.29568941998711923,110.97111608639943,-39.01710610982849,-113.48102234870171,1
1767556669.4847732,2,right_wrist,0.9326,-0.8008,-0.1859,-28.84,34.37,-300.51,-0.4281270426593008,0.7560386269341534,-0.23127674639779347,0.4377486681909746,-106.40274117241935,-27.63764166508296,-54.87013287943839,1
1767556669.5444942,1,left_wrist,1.0995,1.0258,-0.1645,104.93,74.41,256.69,0.5668104233929269,0.21331488094113057,-0.7722600990998489,-0.1919297914355499,117.79889559752566,-52.52013149508661,-115.96901255234245,1
1767556669.5444942,2,right_wrist,1.2449,-0.9072,-0.2918,-85.82,53.62,-270.83,-0.25207473394326696,0.7930673875682767,-0.08632405122569424,0.5477687518132478,-118.89061381679399,-55.620424414754105,-47.0153763281872,1
1767556669.630112,1,left_wrist,1.22,0.3933,-0.244,26.81,75.25,174.3,0.6329123283592698,0.11601887817593542,-0.7646377155005939,-0.035927267523127394,134.20267388903616,-73.65016131371509,-127.64276941217223,1
1767556669.630112,2,right_wrist,1.4025,-0.9853,-0.1952,-45.71,44.94,-215.32,-0.18412785955002076,0.7897064800279668,-0.028002580963122393,0.5845309762525595,-127.56367429641159,-65.90975553205169,-39.47331223994373,1
1767556669.6828191,1,left_wrist,1.0951,0.4885,-0.2074,-1.68,63.35,122.15,0.6552265812293778,0.07861800473607973,-0.7513232576729036,-0.003270941998079669,142.63029714658688,-79.7560975306332,-136.4976365899812,1
1767556669.6828191,2,right_wrist,1.2263,-0.4202,-0.2591,-82.53,24.92,-109.55,-0.08384625778945866,0.7683733776232716,0.02468897615408668,0.6340052145455682,-151.81239045362838,-78.08240422333556,-19.336591339737822,1
1767556669.738283,1,left_wrist,1.0956,0.2259,-0.1581,13.3,60.13,88.76,0.6740034024021834,0.0565983390708893,-0.736141148061554,0.024743720320806108,156.1596329056112,-84.33972004707199,-149.5569086127576,1
1767556669.738283,2,right_wrist,1.1278,-0.3645,-0.2577,-12.32,41.44,-81.62,-0.06121879202244361,0.7566413497982424,0.043966267678816014,0.6494713962794676,-166.57674886904206,-81.19572031191343,-4.867100673204231,1
1767556669.792928,1,left_wrist,1.0014,0.265,-0.1932,-7.98,47.46,51.87,0.6872874146141631,0.04014131284766629,-0.7244166469242062,0.03528748184463136,175.61053639674554,-86.9655218763949,-169.4936085623028,1
1767556669.792928,2,right_wrist,1.0643,-0.1723,-0.2621,20.65,23.52,-50.75,-0.05661273124539353,0.750154977124644,0.06365527386283266,0.655751870043471,-179.37695356467506,-82.32366507623644,9.155857001215118,1
1767556669.879174,1,left_wrist,0.9306,0.1469,-0.2059,-22.61,-0.63,13.37,0.6900559201859326,0.007761993317158835,-0.7234766552707109,0.018550141627360243,-161.04361505379592,-87.15408537785228,163.176427867479,1
1767556669.879174,2,right_wrist,0.9941,-0.2952,-0.1898,7.56,18.27,-34.23,-0.05342159023027148,0.7446080476445769,0.073393476718054,0.6613005267315586,171.67273817320842,-83.05419461012177,18.635695579640814,1
1767556669.931416,1,left_wrist,0.9721,0.1757,-0.1313,-23.1,2.66,-3.01,0.6896196904162988,0.004773939484861451,-0.7241204511945804,0.007173859050786343,-175.53663147231384,-87.19742145707465,176.50504442662157,1
1767556669.931416,2,right_wrist,1.1209,-0.264,-0.2084,21.14,12.04,-16.03,-0.05955843241507999,0.7412211297059257,0.08131449619090284,0.6636504974118148,170.059072613784,-83.46850095145176,21.393267145311967,1
1767556669.9855769,1,left_wrist,0.9862,-0.002,-0.1347,2.31,-1.96,-4.62,0.6863926395618817,0.006994304999153457,-0.7271690729762696,0.006431435274033602,179.7533188092036,-86.69517517024633,-178.66498270284228,1
1767556669.9855769,2,right_wrist,0.9916,-0.0742,-0.1552,3.01,-3.5,7.91,-0.07033715719554884,0.7447198879866674,0.07605696469743171,0.6592877299599833,-177.87767038466853,-83.0578198012848,9.782968899688646,1
1767556670.037421,1,left_wrist,0.9877,0.0132,-0.0698,10.29,-4.83,-6.3,0.6827525830824503,0.01410008892302958,-0.7304917790609999,0.005644334407166493,170.7561471994898,-86.07078591922028,-169.1552937860767,1
1767556670.037421,2,right_wrist,1.0048,-0.0195,-0.0834,5.39,-3.71,15.05,-0.07756227635504272,0.7439493956248365,0.0717201355250709,0.6598330184193042,-169.95682153444355,-83.16370530333629,2.0972026471556786,1
1767556670.130553,1,left_wrist,0.9394,0.082,-0.0874,0.91,-12.6,-25.27,0.6784813130235903,0.02972630479656211,-0.7340001491598349,-0.004820343791398404,149.11820021478385,-84.69968349262616,-147.09784295881215,1
1767556670.130553,2,right_wrist,1.0033,0.0283,-0.0883,0.7,-3.78,21.49,-0.0812771916188489,0.743932685369257,0.06740037637606454,0.6598601117102046,-164.58166923696479,-83.09137044276194,-3.3268622669539196,1
1767556670.1936178,1,left_wrist,0.9213,0.2255,-0.266,-15.47,-6.23,-52.5,0.674010130803405,0.04400238432881614,-0.7368973162351835,-0.027504164650833628,132.0003004949524,-82.27814314837443,-130.66040356749556,1
1767556670.1936178,2,right_wrist,0.9765,-0.0571,-0.1981,12.95,-7.21,35.21,-0.10110397802210579,0.7487554361508639,0.05710955870278564,0.6525961850696097,-148.97368021740718,-81.4235996413426,-18.14340878901729,1
1767556670.2813098,1,left_wrist,1.0931,0.7154,-0.2542,-78.96,-45.99,-140.14,0.63899372256669,0.08463603292541559,-0.7509593090285186,-0.14347083548380768,113.72017264001236,-69.29788206793287,-118.56778213582128,1
1767556670.2813098,2,right_wrist,0.9716,-0.3421,-0.1635,61.39,-9.73,65.1,-0.14292741327866956,0.7504121738819298,0.050471938238250844,0.6433551952644345,-131.28585676798602,-78.51900714277411,-32.914292707102135,1
1767556670.3387442,1,left_wrist,1.1829,0.8267,-0.1854,-113.61,-66.71,-231.21,0.6017670039271436,0.1268433608135327,-0.748002007680323,-0.2495600755495226,106.03657993494959,-56.817945829009446,-116.42631689149685,1
1767556670.3387442,2,right_wrist,1.1014,-0.6847,-0.1796,145.67,-45.08,159.11,-0.2922324978783683,0.7523411490268522,0.029579945029981153,0.5896676941437003,-108.28709382103644,-64.76287583208929,-44.743213880465596,1
1767556670.38907,1,left_wrist,1.1209,0.9165,-0.04,-142.1,-52.99,-289.59,0.555905304154623,0.1780411529933397,-0.7206432912721361,-0.37409074754399047,97.8822270954374,-41.91379633724354,-115.34451644191454,1
1767556670.38907,2,right_wrist,1.0765,-1.059,-0.083,171.15,-14.07,234.5,-0.40866209375888407,0.7303827845093082,-0.004604584143727146,0.5472797082131752,-96.34692258621844,-52.71990106966784,-48.55422528256701,1
1767556670.484097,1,left_wrist,0.8662,1.3161,0.4577,-119.21,53.97,-329.98,0.45779434442348527,0.314932246571613,-0.5845325962489119,-0.5912390905595932,83.1149529522043,-9.368928679814855,-112.80867309328741,1
1767556670.484097,2,right_wrist,1.0443,-0.9204,0.002,190.4,-33.32,284.13,-0.5343112113324622,0.6937141609101513,-0.045361997117452986,0.4808476698650809,-87.56305465299133,-38.218844447601036,-47.234757355724184,1
1767556670.5396428,1,left_wrist,0.7227,1.3474,0.6105,-133.77,107.1,-328.02,0.41596755153612547,0.39196682512289727,-0.47648015646448477,-0.6680566327548115,76.0771427329594,7.314262041135211,-110.4573503505267,1
1767556670.5396428,2,right_wrist,0.8306,-1.2166,0.6554,116.06,92.82,311.78,-0.7223642149407448,0.5620580883210999,-0.1924444004449925,0.35390083224434443,-72.76778547647271,-6.8803151110906695,-47.12992920412789,1
1767556670.596668,1,left_wrist,0.5866,1.1702,0.5763,-103.04,160.16,-304.43,0.37624597520539693,0.47466715526529807,-0.36177089397145834,-0.7086973106546837,71.70501041424265,23.613253178745154,-106.89335935948192,1
1767556670.596668,2,right_wrist,0.6681,-1.3015,0.7554,106.96,134.05,299.74,-0.7755493145815442,0.4762360059966091,-0.2855255320958153,0.30032931552863124,-67.16046587337713,9.022539259553819,-48.334515164004394,1
1767556670.675982,1,left_wrist,0.0742,0.7793,0.2625,-65.38,172.27,-233.31,0.29305980073223425,0.6137344567603564,-0.15789647505773177,-0.7159013011192229,71.43035981730323,51.831834802599694,-96.96078153210614,1
1767556670.675982,2,right_wrist,0.3933,-1.0477,0.6403,77.28,178.22,267.68,-0.7966929662935418,0.3899732083303183,-0.384085203868489,0.2562806477521405,-63.903117232826695,24.337500340379318,-50.98361023246971,1
1767556670.735184,1,left_wrist,-0.1005,0.4685,0.1488,-65.03,155.96,-193.55,0.26193414943100435,0.6621166564971336,-0.06823785537449195,-0.6988101527917315,75.55816642900416,62.82804859408025,-88.24119589891674,1
1767556670.735184,2,right_wrist,0.2045,-0.8067,0.5085,57.4,192.22,232.05,-0.7936688143222473,0.3083031503107774,-0.47679033827745665,0.21842608362106558,-63.01560816698054,38.472895597018876,-54.92245282544298,1
1767556670.786699,1,left_wrist,-0.344,0.365,0.0878,-93.87,126.77,-149.66,0.2492392192372154,0.6906583316779766,0.01481197266122305,-0.6787131101899393,82.00278574045144,70.89164347529116,-76.16882768248185,2
1767556670.786699,2,right_wrist,-0.1386,-0.5329,0.2015,41.72,176.4,143.15,-0.7456798695181803,0.16539796326735146,-0.6216642681706234,0.1736046762683677,-69.56234133593568,60.423487604514456,-70.25010436446878,2
1767556670.847751,1,left_wrist,-0.5636,0.4787,-0.1503,-61.04,126.7,-115.92,0.23371070886824513,0.7205002064911153,0.07845917171952646,-0.6481534659165591,102.13684246866752,76.08722846286707,-52.16609263677166,2
1767556670.847751,2,right_wrist,-0.3338,-0.5339,0.1371,46.97,154.56,133.28,-0.7141421913962204,0.10509976912211354,-0.6741313639852068,0.1565307416762821,-79.18354268933503,68.42680556736877,-83.42684279507294,2
1767556670.898984,1,left_wrist,-0.5636,0.4787,-0.1503,-61.04,126.7,-115.92,0.21792981372059034,0.7453628443044472,0.14153509542543483,-0.6139288585699536,135.02033665480928,77.65794689734082,-15.354089863150717,2
1767556670.898984,2,right_wrist,-0.5124,-0.3494,-0.0268,88.76,122.99,129.71,-0.6864422627879737,0.03420038262266681,-0.7107487353546866,0.1498785804533228,-92.78911488520404,74.91133111557029,-102.25495080482271,2
1767556670.981539,1,left_wrist,-1.1253,0.4041,-0.123,-18.2,-10.71,12.32,0.2169471358588181,0.7479418105561584,0.13340720444096746,-0.612959628415997,133.8099070180702,77.11019173809429,-17.316304873368846,2
1767556670.981539,2,right_wrist,-0.4553,0.0761,-0.8794,-118.44,116.55,54.32,-0.6470001324983883,0.04449113083424683,-0.7549872759479124,0.09698237458893753,-125.21041409151998,75.54041794915378,-129.4987872623949,2
1767556671.037817,1,left_wrist,-0.977,0.0776,-0.263,13.93,12.74,9.87,0.21171273903586207,0.7549732285418205,0.1296170153558222,-0.6069535152261016,136.91625047485758,76.25202184265048,-14.94411395698276,2
1767556671.037817,2,right_wrist,-1.2078,-0.5749,0.2396,-4.69,-13.23,-0.07,-0.6649756950788562,0.02696383256974048,-0.7360767356935433,0.12357716560222913,-111.3367903370451,76.47845033833035,-119.22626960305801,2
1767556671.133664,1,left_wrist,-0.975,0.142,-0.1274,8.68,-6.79,14.56,0.21369800954841578,0.7527054452919673,0.11950206020340376,-0.6111357712898244,132.63247129056916,76.18820405764379,-19.909528330246278,2
1767556671.133664,2,right_wrist,-0.936,-0.0005,-0.283,-21.42,14.98,0.56,-0.6580565494019537,0.03015654745832458,-0.7436694047273981,0.11405251819659765,-117.27123408884358,76.37886209474523,-124.12158527235448,2
1767556671.187101,1,left_wrist,-0.975,0.142,-0.1274,8.68,-6.79,14.56,0.2137241097568596,0.7503172010991422,0.11330187260719639,-0.6152306789384694,129.9054429863933,76.32854806148815,-23.15907621518688,2
1767556671.187101,2,right_wrist,-0.9453,-0.2333,-0.0937,10.78,-22.68,-15.54,-0.6674031241936916,0.04039451446120189,-0.7318900728501639,0.13144684964397274,-106.84661719590027,75.0857234972154,-114.29261942106244,2
1767556671.2435148,1,left_wrist,-0.7964,0.0737,-0.3431,3.64,-32.9,46.27,0.22466047671264608,0.7462282249971899,0.09531474155468143,-0.619343367174586,121.26233553439292,75.27792520050613,-32.362856347412496,2
1767556671.2435148,2,right_wrist,-0.8794,-0.203,-0.184,8.47,-27.86,-23.24,-0.6725171447152903,0.04662267257771583,-0.725335184924359,0.13941264640071208,-102.05224483406323,74.2808214497443,-109.64773341479665,2
1767556671.325569,1,left_wrist,-0.5168,0.2996,-0.3157,69.93,-98.21,145.11,0.2569270810464302,0.720331904497009,-0.02801781157884698,-0.6436811513653367,95.5296374064862,65.91359935774503,-65.4171030675677,2
1767556671.325569,2,right_wrist,-0.7208,-0.1225,-0.3362,-27.79,-49.63,-52.99,-0.6814678072601917,0.07396057298319246,-0.7137554985150387,0.14382124200385943,-95.56659379620396,72.08773465698648,-101.29955621421847,2
1767556671.3818161,1,left_wrist,-0.3582,0.2435,-0.184,76.58,-118.44,193.97,0.2844056520666907,0.6921115916244897,-0.12410388494762031,-0.651684889768394,88.84899301943784,56.25165296133856,-77.54564798341603,2
1767556671.3818161,2,right_wrist,-0.5451,-0.0966,-0.3831,-40.67,-97.44,-105.07,-0.6997662622861097,0.12422628874696492,-0.6855795802632985,0.1577201524101558,-85.73449603184726,66.97070321205388,-88.50446606807955,2
1767556671.4364522,1,left_wrist,-0.1708,0.4436,-0.0937,75.11,-139.72,246.89,0.32412283484396404,0.6433720126580983,-0.23880038339395104,-0.6511460805010518,85.4378412230562,43.082993264308186,-87.02027004747775,2
1767556671.4364522,2,right_wrist,-0.3392,-0.4514,-0.0024,-107.1,-133.21,-229.88,-0.7219598996926593,0.3193564392666998,-0.5784430440914131,0.20539964137485575,-79.71222513802975,44.75155253546101,-69.69593482943168,2
1767556671.4895759,1,left_wrist,-0.1708,0.4436,-0.0937,75.11,-139.72,246.89,0.3571405904381752,0.584460379705582,-0.34940378838758923,-0.6393540927187997,85.19521851064664,29.853348042300468,-94.08035763413042,2
1767556671.4895759,2,right_wrist,-0.2386,-0.8194,0.141,-69.37,-139.65,-257.11,-0.7173892207939203,0.41785585444919104,-0.49809901459211914,0.2502929532639465,-79.67899244277518,30.363817073864826,-63.980752365993744,2
1767556671.579276,1,left_wrist,0.4143,1.0243,0.1566,151.97,-28.07,316.82,0.4287541698258565,0.4618938550706523,-0.5915646151206844,-0.5028670148677765,97.27922663313133,-2.448949720536943,-101.87843322430535,2
1767556671.579276,2,right_wrist,0.0239,-0.7569,0.3894,-105.21,-115.15,-287.49,-0.6851756431337388,0.5214241489638898,-0.4136789069707112,0.2958394105947832,-83.22451562797399,14.973353598057162,-60.022284843022256,2
1767556671.638291,1,left_wrist,0.7476,1.1761,0.0644,85.68,-29.4,300.86,0.4683388440513817,0.38716593618901024,-0.6710858134466532,-0.4247412106190626,102.13219645364569,-17.439612432531103,-105.90976032986188,2
1767556671.638291,2,right_wrist,0.7867,-1.2756,0.2362,-83.44,-64.19,-295.96,-0.5576256874490874,0.6913395535103417,-0.23565262245558216,0.39442496875687366,-94.0030549902542,-16.412530607298503,-52.96250739578958,2
1767556671.730196,1,left_wrist,1.1649,1.0858,-0.4314,68.39,36.47,243.46,0.5364981306246784,0.24323089322662608,-0.7669722761717154,-0.254483822669303,114.3525667735869,-44.359788097948794,-115.34181722996641,2
1767556671.730196,2,right_wrist,0.9087,-0.8394,-0.0693,-86.45,0.63,-304.36,-0.4721791906638416,0.73719538438931,-0.15409153688984545,0.45808904745481793,-99.11870705769654,-31.997659971814393,-51.07707988345356,2
1767556671.7872589,1,left_wrist,1.157,0.8135,-0.1401,62.37,25.97,185.08,0.5599324524519684,0.1961497321285768,-0.7831773216191772,-0.18610269793429568,120.71457345017244,-53.518107742648134,-119.85739568227056,2
1767556671.7872589,2,right_wrist,1.2898,-0.9911,-0.0649,-98.42,35.77,-251.65,-0.28321875114720896,0.7876072046477813,-0.017837075189181137,0.5469404619647542,-117.39230910416966,-58.36917508034386,-40.113998085477164,2
1767556671.839359,1,left_wrist,1.0311,0.5514,-0.2411,48.37,63.91,151.13,0.5911626259909343,0.15922018687923017,-0.7806216880545258,-0.1257197751372007,125.01922418372176,-61.995959296524944,-122.22133424374205,2
1767556671.839359,2,right_wrist,1.2244,-0.6808,-0.1791,-89.46,25.41,-188.23,-0.207617603706104,0.788655609289222,0.02233309061567228,0.5782892819614881,-129.07831796784652,-67.13392677267356,-31.823630364078603,2
1767556671.9295921,1,left_wrist,0.9931,0.1957,-0.1791,46.2,67.34,110.53,0.6423727402453414,0.09934081142899624,-0.759744746853435,-0.016630856951150637,138.71976517191115,-76.59963063573394,-131.9679115538068,2
1767556671.9295921,2,right_wrist,1.1634,-0.487,-0.223,-45.01,35.14,-144.55,-0.15847454759985974,0.7791418425003124,0.055620796822307965,0.6039289146820922,-140.7867708481356,-73.48020139350051,-21.614468842178905,2
1767556671.980624,1,left_wrist,0.9931,0.1957,-0.1791,46.2,67.34,110.53,0.6623511517845114,0.07920101088713227,-0.7444418291139326,0.02871436347352127,152.79461831470738,-82.18497592414968,-144.02145812575085,2
1767556671.980624,2,right_wrist,1.1209,-0.4255,-0.2625,-18.55,21.49,-102.27,-0.1293777308111268,0.7717751059501009,0.08086714080633026,0.6173209004591399,-153.9570626789681,-76.85322787534353,-8.829723028732166,2
1767556672.0370739,1,left_wrist,1.0311,0.2562,-0.1757,2.24,47.25,61.39,0.6758058752750519,0.06255130976382406,-0.7330312662827813,0.04515434909743766,167.46208418348021,-85.15213057626858,-158.7185623528321,2
1767556672.0370739,2,right_wrist,1.035,-0.3889,-0.2338,16.24,18.76,-49.56,-0.11156788064329361,0.7548630817980926,0.11918553295553704,0.6352394387009946,-174.21867550617998,-80.27577931537093,13.068693046997115,2
1767556672.090796,1,left_wrist,1.0082,0.0522,-0.1679,-3.15,33.95,39.48,0.683324982212461,0.04950256951308684,-0.7263188012407512,0.055474888554552786,-167.83258113356268,-86.48227334087943,176.35059552292347,2
1767556672.090796,2,right_wrist,0.9877,-0.2884,-0.2416,19.11,13.58,-27.51,-0.1143895529540103,0.7499725431369884,0.12992715661397308,0.6384161250233489,-177.94891909497562,-80.8638232717566,17.909399756094746,2
1767556672.175692,1,left_wrist,0.9838,0.0859,-0.1235,1.82,14.21,19.04,0.691246677432911,0.036766263291036265,-0.7187401462343808,0.06510664338265439,-129.99848573135023,-86.80017228511679,138.26347462044208,2
1767556672.175692,2,right_wrist,0.9706,-0.2181,-0.1996,20.51,3.5,-16.17,-0.12031799152654198,0.7481920166898854,0.1377321648414735,0.6377790666403395,-178.4158006751455,-80.93336051227737,19.509756560800326,2
1767556672.2300422,1,left_wrist,0.875,0.0395,-0.1093,-9.87,3.22,3.29,0.6903729551034635,0.03482175732877308,-0.7200568450295248,0.06075169137047845,-134.98508406218428,-86.80589807054234,142.73817745454085,2
1767556672.2300422,2,right_wrist,0.9784,-0.2303,-0.1747,19.04,-2.1,-1.96,-0.12952227113659595,0.7484626575422642,0.1406445686662221,0.6350171153985394,-174.54973253992316,-80.75357828423688,16.649131777937153,2
1767556672.281516,1,left_wrist,0.9799,0.0054,-0.0503,-10.08,1.75,-3.99,0.6905590312158159,0.036289835670832944,-0.7204212552629791,0.05295740928870444,-147.21272065552787,-87.22865048505392,154.45121643943673,2
1767556672.281516,2,right_wrist,0.9687,-0.1932,-0.1098,8.82,0.28,2.52,-0.13670314584789603,0.7477998494888332,0.13920276023442935,0.6346102950337974,-169.9781112399357,-80.81636001632249,12.55205297762407,2
1767556672.33779,1,left_wrist,0.955,-0.0185,-0.0107,-6.23,0.77,-10.78,0.6936766718562287,0.03822473160405622,-0.7177109828964119,0.04735493476006802,-155.72922652111276,-87.91663602986218,162.66900333786668,2
1767556672.33779,2,right_wrist,0.9711,-0.04,-0.1415,2.1,0.35,19.53,-0.14944512852577793,0.7456164537728273,0.12877408777320543,0.6365056886951803,-157.89099175068182,-80.99238805726209,0.6539032222533697,2
1767556672.3890078,1,left_wrist,0.9477,0.019,-0.0176,-11.55,-0.07,-22.19,0.695718490185832,0.044592438382949615,-0.7161219587613001,0.03400936683456644,155.7712448123317,-88.13749150170929,-149.39813459892432,2
1767556672.3890078,2,right_wrist,0.9882,-0.0244,-0.1484,9.73,0.42,21.98,-0.1549939977633576,0.7458629027746461,0.12754707995881373,0.6351355235820866,-154.51554106329493,-80.74634631947751,-2.359090005259347,2
1767556672.487901,1,left_wrist,0.9843,0.2689,-0.1649,-22.82,-14.98,-60.06,0.6929863722765713,0.06397434122379639,-0.7180794663170239,-0.006249124562406032,112.00604024663758,-83.95473303405919,-107.32083277332033,2
1767556672.487901,2,right_wrist,0.9858,-0.0664,-0.1498,7.84,-1.75,21.14,-0.16131816412141609,0.748879164197139,0.12452710542248942,0.6305945189826715,-151.01553320503234,-79.94977650399447,-5.570925857390173,2
1767556672.582437,1,left_wrist,1.0053,0.4641,-0.2191,-35.21,-32.55,-99.33,0.6670210621333337,0.11039194551117032,-0.7305605961265588,-0.09580050325538696,107.7251939507022,-72.44871354635993,-106.52884498814026,2
1767556672.582437,2,right_wrist,0.9794,-0.2406,-0.1527,35.63,-10.85,48.51,-0.21718321397537563,0.7544492441896155,0.10734268152289243,0.6100125721921797,-129.3691563738523,-75.2561147600247,-23.873346147767748,2
1767556672.637891,1,left_wrist,1.1161,0.7842,-0.1513,-59.5,-51.24,-189.49,0.6419811781552519,0.15401715872273922,-0.7303635309793197,-0.17523696621657664,104.13994584634914,-62.10179397760116,-105.91167057811624,2
1767556672.637891,2,right_wrist,0.9755,-0.5519,-0.161,79.31,-12.88,101.92,-0.31201337587934097,0.7538586283622586,0.07997041943276448,0.5726687993350945,-111.52214862540346,-65.96914829178237,-35.5534332532859,2
1767556672.731333,1,left_wrist,1.0638,1.0433,0.1127,-90.23,-7.21,-284.9,0.5818734684957961,0.2598265228226587,-0.6826052777932456,-0.3577198337070006,94.8373899552457,-37.480371166254855,-103.69116949072941,2
1767556672.731333,2,right_wrist,1.0629,-0.6954,-0.1352,106.12,-20.16,156.24,-0.38736713926915584,0.7466962849202078,0.05451304193985182,0.5379774026474108,-103.10878448128538,-57.741062988204,-38.92857543297243,2
1767556672.782649,1,left_wrist,1.0453,1.117,0.1859,-84.7,1.05,-295.47,0.5432851612016687,0.3220587283780908,-0.6282363564224606,-0.45435502590220705,89.80123097889388,-22.952320160780207,-102.6871102982777,2
1767556672.782649,2,right_wrist,1.0282,-0.9335,0.0293,128.66,3.64,211.54,-0.47933409003342553,0.7230960865526184,0.01272892517812539,0.4972010199184286,-93.87189248912134,-46.99137584423743,-42.20635507779723,2
1767556672.8363981,1,left_wrist,0.8032,1.1717,0.4607,-124.46,44.45,-297.85,0.51109550608399,0.3773204828338321,-0.5441389666777309,-0.5480177203683153,82.85643448121778,-8.201644341520765,-101.23384666913915,2
1767556672.8363981,2,right_wrist,0.8804,-1.1893,0.4729,146.58,49.49,271.32,-0.6670655086464595,0.6258185736619691,-0.10521974013403039,0.39026084394935895,-78.02183323912173,-20.370416251305766,-44.09696501579376,2
1767556672.9283378,1,left_wrist,0.4904,1.2249,0.7296,-110.88,154.56,-286.65,0.4465857989629092,0.49625980889666166,-0.3174552378131489,-0.6734311384421617,70.64480126750873,22.63452859578895,-96.75563637404647,2
1767556672.9283378,2,right_wrist,0.834,-1.0282,0.6388,101.78,99.19,276.22,-0.7314971438534504,0.5597575355717077,-0.18826113575909867,0.34079491584767957,-72.29143768931958,-6.090550467139898,-45.50967831979317,2
1767556672.9800692,1,left_wrist,0.3899,0.8647,0.4778,-87.99,164.99,-252.77,0.4128955633847234,0.555084747052188,-0.204672127598099,-0.6924647987527511,67.98290823260785,36.85105456021015,-93.06577017930451,2
1767556672.9800692,2,right_wrist,0.7569,-1.2117,0.8452,123.48,141.26,271.74,-0.7831047666084212,0.47114559859436134,-0.27564173446184403,0.29797715292149035,-65.87242793561306,8.680910113404737,-47.29434718389932,2
1767556673.0396109,1,left_wrist,0.1122,0.7017,0.3226,-67.27,180.67,-207.62,0.38227445302784296,0.6097394044317431,-0.10328729320259902,-0.6865972883054282,68.85998517385659,49.316549278775526,-86.84903986837914,2
1767556673.0396109,2,right_wrist,0.3294,-0.8057,0.6198,79.59,202.72,221.13,-0.8107062671156188,0.28316349717651573,-0.458173348431605,0.2294579811494802,-57.90706483206186,37.802371730397645,-53.05985335105518,2
1767556673.09405,1,left_wrist,-0.1547,0.5622,0.1259,-94.78,159.04,-178.01,0.3618461679769273,0.6451294584357067,-0.0045629820978505785,-0.6729446572885767,70.49242422440373,59.879353973436054,-79.17475476116881,2
1767556673.09405,2,right_wrist,0.0766,-0.6407,0.4211,73.78,201.53,178.36,-0.7921373020117929,0.20174021572238912,-0.5376236869844012,0.20683363197280122,-57.860451270487005,50.20060035631786,-58.29937199336834,2
1767556670.786699,1,left_wrist,-0.344,0.365,0.0878,-93.87,126.77,-149.66,0.2492392192372154,0.6906583316779766,0.01481197266122305,-0.6787131101899393,82.00278574045144,70.89164347529116,-76.16882768248185,2
1767556670.786699,2,right_wrist,-0.1386,-0.5329,0.2015,41.72,176.4,143.15,-0.7456798695181803,0.16539796326735146,-0.6216642681706234,0.1736046762683677,-69.56234133593568,60.423487604514456,-70.25010436446878,2
1767556670.847751,1,left_wrist,-0.5636,0.4787,-0.1503,-61.04,126.7,-115.92,0.23371070886824513,0.7205002064911153,0.07845917171952646,-0.6481534659165591,102.13684246866752,76.08722846286707,-52.16609263677166,2
1767556670.847751,2,right_wrist,-0.3338,-0.5339,0.1371,46.97,154.56,133.28,-0.7141421913962204,0.10509976912211354,-0.6741313639852068,0.1565307416762821,-79.18354268933503,68.42680556736877,-83.42684279507294,2
1767556670.898984,1,left_wrist,-0.5636,0.4787,-0.1503,-61.04,126.7,-115.92,0.21792981372059034,0.7453628443044472,0.14153509542543483,-0.6139288585699536,135.02033665480928,77.65794689734082,-15.354089863150717,2
1767556670.898984,2,right_wrist,-0.5124,-0.3494,-0.0268,88.76,122.99,129.71,-0.6864422627879737,0.03420038262266681,-0.7107487353546866,0.1498785804533228,-92.78911488520404,74.91133111557029,-102.25495080482271,2
1767556670.981539,1,left_wrist,-1.1253,0.4041,-0.123,-18.2,-10.71,12.32,0.2169471358588181,0.7479418105561584,0.13340720444096746,-0.612959628415997,133.8099070180702,77.11019173809429,-17.316304873368846,2
1767556670.981539,2,right_wrist,-0.4553,0.0761,-0.8794,-118.44,116.55,54.32,-0.6470001324983883,0.04449113083424683,-0.7549872759479124,0.09698237458893753,-125.21041409151998,75.54041794915378,-129.4987872623949,2
1767556671.037817,1,left_wrist,-0.977,0.0776,-0.263,13.93,12.74,9.87,0.21171273903586207,0.7549732285418205,0.1296170153558222,-0.6069535152261016,136.91625047485758,76.25202184265048,-14.94411395698276,2
1767556671.037817,2,right_wrist,-1.2078,-0.5749,0.2396,-4.69,-13.23,-0.07,-0.6649756950788562,0.02696383256974048,-0.7360767356935433,0.12357716560222913,-111.3367903370451,76.47845033833035,-119.22626960305801,2
1767556671.133664,1,left_wrist,-0.975,0.142,-0.1274,8.68,-6.79,14.56,0.21369800954841578,0.7527054452919673,0.11950206020340376,-0.6111357712898244,132.63247129056916,76.18820405764379,-19.909528330246278,2
1767556671.133664,2,right_wrist,-0.936,-0.0005,-0.283,-21.42,14.98,0.56,-0.6580565494019537,0.03015654745832458,-0.7436694047273981,0.11405251819659765,-117.27123408884358,76.37886209474523,-124.12158527235448,2
1767556671.187101,1,left_wrist,-0.975,0.142,-0.1274,8.68,-6.79,14.56,0.2137241097568596,0.7503172010991422,0.11330187260719639,-0.6152306789384694,129.9054429863933,76.32854806148815,-23.15907621518688,2
1767556671.187101,2,right_wrist,-0.9453,-0.2333,-0.0937,10.78,-22.68,-15.54,-0.6674031241936916,0.04039451446120189,-0.7318900728501639,0.13144684964397274,-106.84661719590027,75.0857234972154,-114.29261942106244,2
1767556671.2435148,1,left_wrist,-0.7964,0.0737,-0.3431,3.64,-32.9,46.27,0.22466047671264608,0.7462282249971899,0.09531474155468143,-0.619343367174586,121.26233553439292,75.27792520050613,-32.362856347412496,2
1767556671.2435148,2,right_wrist,-0.8794,-0.203,-0.184,8.47,-27.86,-23.24,-0.6725171447152903,0.04662267257771583,-0.725335184924359,0.13941264640071208,-102.05224483406323,74.2808214497443,-109.64773341479665,2
1767556671.325569,1,left_wrist,-0.5168,0.2996,-0.3157,69.93,-98.21,145.11,0.2569270810464302,0.720331904497009,-0.02801781157884698,-0.6436811513653367,95.5296374064862,65.91359935774503,-65.4171030675677,2
1767556671.325569,2,right_wrist,-0.7208,-0.1225,-0.3362,-27.79,-49.63,-52.99,-0.6814678072601917,0.07396057298319246,-0.7137554985150387,0.14382124200385943,-95.56659379620396,72.08773465698648,-101.29955621421847,2
1767556671.3818161,1,left_wrist,-0.3582,0.2435,-0.184,76.58,-118.44,193.97,0.2844056520666907,0.6921115916244897,-0.12410388494762031,-0.651684889768394,88.84899301943784,56.25165296133856,-77.54564798341603,2
1767556671.3818161,2,right_wrist,-0.5451,-0.0966,-0.3831,-40.67,-97.44,-105.07,-0.6997662622861097,0.12422628874696492,-0.6855795802632985,0.1577201524101558,-85.73449603184726,66.97070321205388,-88.50446606807955,2
1767556671.4364522,1,left_wrist,-0.1708,0.4436,-0.0937,75.11,-139.72,246.89,0.32412283484396404,0.6433720126580983,-0.23880038339395104,-0.6511460805010518,85.4378412230562,43.082993264308186,-87.02027004747775,2
1767556671.4364522,2,right_wrist,-0.3392,-0.4514,-0.0024,-107.1,-133.21,-229.88,-0.7219598996926593,0.3193564392666998,-0.5784430440914131,0.20539964137485575,-79.71222513802975,44.75155253546101,-69.69593482943168,2
1767556671.4895759,1,left_wrist,-0.1708,0.4436,-0.0937,75.11,-139.72,246.89,0.3571405904381752,0.584460379705582,-0.34940378838758923,-0.6393540927187997,85.19521851064664,29.853348042300468,-94.08035763413042,2
1767556671.4895759,2,right_wrist,-0.2386,-0.8194,0.141,-69.37,-139.65,-257.11,-0.7173892207939203,0.41785585444919104,-0.49809901459211914,0.2502929532639465,-79.67899244277518,30.363817073864826,-63.980752365993744,2
1767556671.579276,1,left_wrist,0.4143,1.0243,0.1566,151.97,-28.07,316.82,0.4287541698258565,0.4618938550706523,-0.5915646151206844,-0.5028670148677765,97.27922663313133,-2.448949720536943,-101.87843322430535,2
1767556671.579276,2,right_wrist,0.0239,-0.7569,0.3894,-105.21,-115.15,-287.49,-0.6851756431337388,0.5214241489638898,-0.4136789069707112,0.2958394105947832,-83.22451562797399,14.973353598057162,-60.022284843022256,2
1767556671.638291,1,left_wrist,0.7476,1.1761,0.0644,85.68,-29.4,300.86,0.4683388440513817,0.38716593618901024,-0.6710858134466532,-0.4247412106190626,102.13219645364569,-17.439612432531103,-105.90976032986188,2
1767556671.638291,2,right_wrist,0.7867,-1.2756,0.2362,-83.44,-64.19,-295.96,-0.5576256874490874,0.6913395535103417,-0.23565262245558216,0.39442496875687366,-94.0030549902542,-16.412530607298503,-52.96250739578958,2
1767556671.730196,1,left_wrist,1.1649,1.0858,-0.4314,68.39,36.47,243.46,0.5364981306246784,0.24323089322662608,-0.7669722761717154,-0.254483822669303,114.3525667735869,-44.359788097948794,-115.34181722996641,2
1767556671.730196,2,right_wrist,0.9087,-0.8394,-0.0693,-86.45,0.63,-304.36,-0.4721791906638416,0.73719538438931,-0.15409153688984545,0.45808904745481793,-99.11870705769654,-31.997659971814393,-51.07707988345356,2
1767556671.7872589,1,left_wrist,1.157,0.8135,-0.1401,62.37,25.97,185.08,0.5599324524519684,0.1961497321285768,-0.7831773216191772,-0.18610269793429568,120.71457345017244,-53.518107742648134,-119.85739568227056,2
1767556671.7872589,2,right_wrist,1.2898,-0.9911,-0.0649,-98.42,35.77,-251.65,-0.28321875114720896,0.7876072046477813,-0.017837075189181137,0.5469404619647542,-117.39230910416966,-58.36917508034386,-40.113998085477164,2
1767556671.839359,1,left_wrist,1.0311,0.5514,-0.2411,48.37,63.91,151.13,0.5911626259909343,0.15922018687923017,-0.7806216880545258,-0.1257197751372007,125.01922418372176,-61.995959296524944,-122.22133424374205,2
1767556671.839359,2,right_wrist,1.2244,-0.6808,-0.1791,-89.46,25.41,-188.23,-0.207617603706104,0.788655609289222,0.02233309061567228,0.5782892819614881,-129.07831796784652,-67.13392677267356,-31.823630364078603,2
1767556671.9295921,1,left_wrist,0.9931,0.1957,-0.1791,46.2,67.34,110.53,0.6423727402453414,0.09934081142899624,-0.759744746853435,-0.016630856951150637,138.71976517191115,-76.59963063573394,-131.9679115538068,2
1767556671.9295921,2,right_wrist,1.1634,-0.487,-0.223,-45.01,35.14,-144.55,-0.15847454759985974,0.7791418425003124,0.055620796822307965,0.6039289146820922,-140.7867708481356,-73.48020139350051,-21.614468842178905,2
1767556671.980624,1,left_wrist,0.9931,0.1957,-0.1791,46.2,67.34,110.53,0.6623511517845114,0.07920101088713227,-0.7444418291139326,0.02871436347352127,152.79461831470738,-82.18497592414968,-144.02145812575085,2
1767556671.980624,2,right_wrist,1.1209,-0.4255,-0.2625,-18.55,21.49,-102.27,-0.1293777308111268,0.7717751059501009,0.08086714080633026,0.6173209004591399,-153.9570626789681,-76.85322787534353,-8.829723028732166,2
1767556672.0370739,1,left_wrist,1.0311,0.2562,-0.1757,2.24,47.25,61.39,0.6758058752750519,0.06255130976382406,-0.7330312662827813,0.04515434909743766,167.46208418348021,-85.15213057626858,-158.7185623528321,2
1767556672.0370739,2,right_wrist,1.035,-0.3889,-0.2338,16.24,18.76,-49.56,-0.11156788064329361,0.7548630817980926,0.11918553295553704,0.6352394387009946,-174.21867550617998,-80.27577931537093,13.068693046997115,2
1767556672.090796,1,left_wrist,1.0082,0.0522,-0.1679,-3.15,33.95,39.48,0.683324982212461,0.04950256951308684,-0.7263188012407512,0.055474888554552786,-167.83258113356268,-86.48227334087943,176.35059552292347,2
1767556672.090796,2,right_wrist,0.9877,-0.2884,-0.2416,19.11,13.58,-27.51,-0.1143895529540103,0.7499725431369884,0.12992715661397308,0.6384161250233489,-177.94891909497562,-80.8638232717566,17.909399756094746,2
1767556672.175692,1,left_wrist,0.9838,0.0859,-0.1235,1.82,14.21,19.04,0.691246677432911,0.036766263291036265,-0.7187401462343808,0.06510664338265439,-129.99848573135023,-86.80017228511679,138.26347462044208,2
1767556672.175692,2,right_wrist,0.9706,-0.2181,-0.1996,20.51,3.5,-16.17,-0.12031799152654198,0.7481920166898854,0.1377321648414735,0.6377790666403395,-178.4158006751455,-80.93336051227737,19.509756560800326,2
1767556672.2300422,1,left_wrist,0.875,0.0395,-0.1093,-9.87,3.22,3.29,0.6903729551034635,0.03482175732877308,-0.7200568450295248,0.06075169137047845,-134.98508406218428,-86.80589807054234,142.73817745454085,2
1767556672.2300422,2,right_wrist,0.9784,-0.2303,-0.1747,19.04,-2.1,-1.96,-0.12952227113659595,0.7484626575422642,0.1406445686662221,0.6350171153985394,-174.54973253992316,-80.75357828423688,16.649131777937153,2
1767556672.281516,1,left_wrist,0.9799,0.0054,-0.0503,-10.08,1.75,-3.99,0.6905590312158159,0.036289835670832944,-0.7204212552629791,0.05295740928870444,-147.21272065552787,-87.22865048505392,154.45121643943673,2
1767556672.281516,2,right_wrist,0.9687,-0.1932,-0.1098,8.82,0.28,2.52,-0.13670314584789603,0.7477998494888332,0.13920276023442935,0.6346102950337974,-169.9781112399357,-80.81636001632249,12.55205297762407,2
1767556672.33779,1,left_wrist,0.955,-0.0185,-0.0107,-6.23,0.77,-10.78,0.6936766718562287,0.03822473160405622,-0.7177109828964119,0.04735493476006802,-155.72922652111276,-87.91663602986218,162.66900333786668,2
1767556672.33779,2,right_wrist,0.9711,-0.04,-0.1415,2.1,0.35,19.53,-0.14944512852577793,0.7456164537728273,0.12877408777320543,0.6365056886951803,-157.89099175068182,-80.99238805726209,0.6539032222533697,2
1767556672.3890078,1,left_wrist,0.9477,0.019,-0.0176,-11.55,-0.07,-22.19,0.695718490185832,0.044592438382949615,-0.7161219587613001,0.03400936683456644,155.7712448123317,-88.13749150170929,-149.39813459892432,2
1767556672.3890078,2,right_wrist,0.9882,-0.0244,-0.1484,9.73,0.42,21.98,-0.1549939977633576,0.7458629027746461,0.12754707995881373,0.6351355235820866,-154.51554106329493,-80.74634631947751,-2.359090005259347,2
1767556672.487901,1,left_wrist,0.9843,0.2689,-0.1649,-22.82,-14.98,-60.06,0.6929863722765713,0.06397434122379639,-0.7180794663170239,-0.006249124562406032,112.00604024663758,-83.95473303405919,-107.32083277332033,2
1767556672.487901,2,right_wrist,0.9858,-0.0664,-0.1498,7.84,-1.75,21.14,-0.16131816412141609,0.748879164197139,0.12452710542248942,0.6305945189826715,-151.01553320503234,-79.94977650399447,-5.570925857390173,2
1767556672.582437,1,left_wrist,1.0053,0.4641,-0.2191,-35.21,-32.55,-99.33,0.6670210621333337,0.11039194551117032,-0.7305605961265588,-0.09580050325538696,107.7251939507022,-72.44871354635993,-106.52884498814026,2
1767556672.582437,2,right_wrist,0.9794,-0.2406,-0.1527,35.63,-10.85,48.51,-0.21718321397537563,0.7544492441896155,0.10734268152289243,0.6100125721921797,-129.3691563738523,-75.2561147600247,-23.873346147767748,2
1767556672.637891,1,left_wrist,1.1161,0.7842,-0.1513,-59.5,-51.24,-189.49,0.6419811781552519,0.15401715872273922,-0.7303635309793197,-0.17523696621657664,104.13994584634914,-62.10179397760116,-105.91167057811624,2
1767556672.637891,2,right_wrist,0.9755,-0.5519,-0.161,79.31,-12.88,101.92,-0.31201337587934097,0.7538586283622586,0.07997041943276448,0.5726687993350945,-111.52214862540346,-65.96914829178237,-35.5534332532859,2
1767556672.731333,1,left_wrist,1.0638,1.0433,0.1127,-90.23,-7.21,-284.9,0.5818734684957961,0.2598265228226587,-0.6826052777932456,-0.3577198337070006,94.8373899552457,-37.480371166254855,-103.69116949072941,2
1767556672.731333,2,right_wrist,1.0629,-0.6954,-0.1352,106.12,-20.16,156.24,-0.38736713926915584,0.7466962849202078,0.05451304193985182,0.5379774026474108,-103.10878448128538,-57.741062988204,-38.92857543297243,2
1767556672.782649,1,left_wrist,1.0453,1.117,0.1859,-84.7,1.05,-295.47,0.5432851612016687,0.3220587283780908,-0.6282363564224606,-0.45435502590220705,89.80123097889388,-22.952320160780207,-102.6871102982777,2
1767556672.782649,2,right_wrist,1.0282,-0.9335,0.0293,128.66,3.64,211.54,-0.47933409003342553,0.7230960865526184,0.01272892517812539,0.4972010199184286,-93.87189248912134,-46.99137584423743,-42.20635507779723,2
1767556672.8363981,1,left_wrist,0.8032,1.1717,0.4607,-124.46,44.45,-297.85,0.51109550608399,0.3773204828338321,-0.5441389666777309,-0.5480177203683153,82.85643448121778,-8.201644341520765,-101.23384666913915,2
1767556672.8363981,2,right_wrist,0.8804,-1.1893,0.4729,146.58,49.49,271.32,-0.6670655086464595,0.6258185736619691,-0.10521974013403039,0.39026084394935895,-78.02183323912173,-20.370416251305766,-44.09696501579376,2
1767556672.9283378,1,left_wrist,0.4904,1.2249,0.7296,-110.88,154.56,-286.65,0.4465857989629092,0.49625980889666166,-0.3174552378131489,-0.6734311384421617,70.64480126750873,22.63452859578895,-96.75563637404647,2
1767556672.9283378,2,right_wrist,0.834,-1.0282,0.6388,101.78,99.19,276.22,-0.7314971438534504,0.5597575355717077,-0.18826113575909867,0.34079491584767957,-72.29143768931958,-6.090550467139898,-45.50967831979317,2
1767556672.9800692,1,left_wrist,0.3899,0.8647,0.4778,-87.99,164.99,-252.77,0.4128955633847234,0.555084747052188,-0.204672127598099,-0.6924647987527511,67.98290823260785,36.85105456021015,-93.06577017930451,2
1767556672.9800692,2,right_wrist,0.7569,-1.2117,0.8452,123.48,141.26,271.74,-0.7831047666084212,0.47114559859436134,-0.27564173446184403,0.29797715292149035,-65.87242793561306,8.680910113404737,-47.29434718389932,2
