timestamp,node_id,node_name,ax,ay,az,gx,gy,gz,qw,qx,qy,qz,roll,pitch,yaw,rep_number
1767133192.406,1,left_wrist,-0.0864,0.102,-0.977,1.61,-5.11,-0.28,0.028420992830537006,0.9284758964605447,-0.3647813591099637,-0.06371276876892391,174.27610027450498,5.599639818907255,-43.17808851333839,1
1767133192.406,2,right_wrist,-0.1225,0.0244,-0.9609,1.12,-2.8,-0.35,0.05231778930075226,0.7393994239066837,0.6700563209122018,-0.039697199583228655,178.603459254293,7.401173294116783,84.27648067730513,1
1767133192.468,1,left_wrist,-0.0864,0.102,-0.977,1.61,-5.11,-0.28,0.028420992830537006,0.9284758964605447,-0.3647813591099637,-0.06371276876892391,174.27610027450498,5.599639818907255,-43.17808851333839,1
1767133192.468,2,right_wrist,-0.1225,0.0244,-0.9609,1.12,-2.8,-0.35,0.05231778930075226,0.7393994239066837,0.6700563209122018,-0.039697199583228655,178.603459254293,7.401173294116783,84.27648067730513,1
1767133192.533,1,left_wrist,-0.0864,0.102,-0.977,1.61,-5.11,-0.28,0.028420992830537006,0.9284758964605447,-0.3647813591099637,-0.06371276876892391,174.27610027450498,5.599639818907255,-43.17808851333839,1
1767133192.533,2,right_wrist,-0.1225,0.0244,-0.9609,1.12,-2.8,-0.35,0.05231778930075226,0.7393994239066837,0.6700563209122018,-0.039697199583228655,178.603459254293,7.401173294116783,84.27648067730513,1
1767133192.586,1,left_wrist,-0.0864,0.102,-0.977,1.61,-5.11,-0.28,0.028420992830537006,0.9284758964605447,-0.3647813591099637,-0.06371276876892391,174.27610027450498,5.599639818907255,-43.17808851333839,1
1767133192.586,2,right_wrist,-0.1225,0.0244,-0.9609,1.12,-2.8,-0.35,0.05231778930075226,0.7393994239066837,0.6700563209122018,-0.039697199583228655,178.603459254293,7.401173294116783,84.27648067730513,1
1767133192.645,1,left_wrist,-0.0864,0.102,-0.977,1.61,-5.11,-0.28,0.028420992830537006,0.9284758964605447,-0.3647813591099637,-0.06371276876892391,174.27610027450498,5.599639818907255,-43.17808851333839,1
1767133192.645,2,right_wrist,-0.1225,0.0244,-0.9609,1.12,-2.8,-0.35,0.05231778930075226,0.7393994239066837,0.6700563209122018,-0.039697199583228655,178.603459254293,7.401173294116783,84.27648067730513,1
1767133192.699,1,left_wrist,-0.0864,0.102,-0.977,1.61,-5.11,-0.28,0.028420992830537006,0.9284758964605447,-0.3647813591099637,-0.06371276876892391,174.27610027450498,5.599639818907255,-43.17808851333839,1
1767133192.699,2,right_wrist,-0.1225,0.0244,-0.9609,1.12,-2.8,-0.35,0.05231778930075226,0.7393994239066837,0.6700563209122018,-0.039697199583228655,178.603459254293,7.401173294116783,84.27648067730513,1
1767133192.772,1,left_wrist,-0.0864,0.102,-0.977,1.61,-5.11,-0.28,0.028420992830537006,0.9284758964605447,-0.3647813591099637,-0.06371276876892391,174.27610027450498,5.599639818907255,-43.17808851333839,1
1767133192.772,2,right_wrist,-0.1225,0.0244,-0.9609,1.12,-2.8,-0.35,0.05231778930075226,0.7393994239066837,0.6700563209122018,-0.039697199583228655,178.603459254293,7.401173294116783,84.27648067730513,1
1767133192.829,1,left_wrist,-0.0864,0.102,-0.977,1.61,-5.11,-0.28,0.028420992830537006,0.9284758964605447,-0.3647813591099637,-0.06371276876892391,174.27610027450498,5.599639818907255,-43.17808851333839,1
1767133192.829,2,right_wrist,-0.1225,0.0244,-0.9609,1.12,-2.8,-0.35,0.05231778930075226,0.7393994239066837,0.6700563209122018,-0.039697199583228655,178.603459254293,7.401173294116783,84.27648067730513,1
1767133192.882,1,left_wrist,-0.0864,0.102,-0.977,1.61,-5.11,-0.28,0.028420992830537006,0.9284758964605447,-0.3647813591099637,-0.06371276876892391,174.27610027450498,5.599639818907255,-43.17808851333839,1
1767133192.882,2,right_wrist,-0.1225,0.0244,-0.9609,1.12,-2.8,-0.35,0.05231778930075226,0.7393994239066837,0.6700563209122018,-0.039697199583228655,178.603459254293,7.401173294116783,84.27648067730513,1
1767133192.958,1,left_wrist,-0.0864,0.102,-0.977,1.61,-5.11,-0.28,0.028420992830537006,0.9284758964605447,-0.3647813591099637,-0.06371276876892391,174.27610027450498,5.599639818907255,-43.17808851333839,1
1767133192.958,2,right_wrist,-0.1225,0.0244,-0.9609,1.12,-2.8,-0.35,0.05231778930075226,0.7393994239066837,0.6700563209122018,-0.039697199583228655,178.603459254293,7.401173294116783,84.27648067730513,1
1767133193.009,1,left_wrist,-0.0864,0.102,-0.977,1.61,-5.11,-0.28,0.028420992830537006,0.9284758964605447,-0.3647813591099637,-0.06371276876892391,174.27610027450498,5.599639818907255,-43.17808851333839,1
1767133193.009,2,right_wrist,-0.1225,0.0244,-0.9609,1.12,-2.8,-0.35,0.05231778930075226,0.7393994239066837,0.6700563209122018,-0.039697199583228655,178.603459254293,7.401173294116783,84.27648067730513,1
1767133193.065,1,left_wrist,-0.0864,0.102,-0.977,1.61,-5.11,-0.28,0.028420992830537006,0.9284758964605447,-0.3647813591099637,-0.06371276876892391,174.27610027450498,5.599639818907255,-43.17808851333839,1
1767133193.065,2,right_wrist,-0.1225,0.0244,-0.9609,1.12,-2.8,-0.35,0.05231778930075226,0.7393994239066837,0.6700563209122018,-0.039697199583228655,178.603459254293,7.401173294116783,84.27648067730513,1
1767133193.126,1,left_wrist,-0.0864,0.102,-0.977,1.61,-5.11,-0.28,0.028420992830537006,0.9284758964605447,-0.3647813591099637,-0.06371276876892391,174.27610027450498,5.599639818907255,-43.17808851333839,1
1767133193.126,2,right_wrist,-0.1225,0.0244,-0.9609,1.12,-2.8,-0.35,0.05231778930075226,0.7393994239066837,0.6700563209122018,-0.039697199583228655,178.603459254293,7.401173294116783,84.27648067730513,1
1767133193.179,1,left_wrist,-0.0864,0.102,-0.977,1.61,-5.11,-0.28,0.028420992830537006,0.9284758964605447,-0.3647813591099637,-0.06371276876892391,174.27610027450498,5.599639818907255,-43.17808851333839,1
1767133193.179,2,right_wrist,-0.1225,0.0244,-0.9609,1.12,-2.8,-0.35,0.05231778930075226,0.7393994239066837,0.6700563209122018,-0.039697199583228655,178.603459254293,7.401173294116783,84.27648067730513,1
1767133193.238,1,left_wrist,-0.0864,0.102,-0.977,1.61,-5.11,-0.28,0.028420992830537006,0.9284758964605447,-0.3647813591099637,-0.06371276876892391,174.27610027450498,5.599639818907255,-43.17808851333839,1
1767133193.238,2,right_wrist,-0.1225,0.0244,-0.9609,1.12,-2.8,-0.35,0.05231778930075226,0.7393994239066837,0.6700563209122018,-0.039697199583228655,178.603459254293,7.401173294116783,84.27648067730513,1
1767133193.301,1,left_wrist,-0.0864,0.102,-0.977,1.61,-5.11,-0.28,0.028420992830537006,0.9284758964605447,-0.3647813591099637,-0.06371276876892391,174.27610027450498,5.599639818907255,-43.17808851333839,1
1767133193.301,2,right_wrist,-0.1225,0.0244,-0.9609,1.12,-2.8,-0.35,0.05231778930075226,0.7393994239066837,0.6700563209122018,-0.039697199583228655,178.603459254293,7.401173294116783,84.27648067730513,1
1767133193.359,1,left_wrist,-0.0864,0.102,-0.977,1.61,-5.11,-0.28,0.028420992830537006,0.9284758964605447,-0.3647813591099637,-0.06371276876892391,174.27610027450498,5.599639818907255,-43.17808851333839,1
1767133193.359,2,right_wrist,-0.1225,0.0244,-0.9609,1.12,-2.8,-0.35,0.05231778930075226,0.7393994239066837,0.6700563209122018,-0.039697199583228655,178.603459254293,7.401173294116783,84.27648067730513,1
1767133193.412,1,left_wrist,-0.0864,0.102,-0.977,1.61,-5.11,-0.28,0.028420992830537006,0.9284758964605447,-0.3647813591099637,-0.06371276876892391,174.27610027450498,5.599639818907255,-43.17808851333839,1
1767133193.412,2,right_wrist,-0.1225,0.0244,-0.9609,1.12,-2.8,-0.35,0.05231778930075226,0.7393994239066837,0.6700563209122018,-0.039697199583228655,178.603459254293,7.401173294116783,84.27648067730513,1
1767133193.47,1,left_wrist,-0.0864,0.102,-0.977,1.61,-5.11,-0.28,0.028420992830537006,0.9284758964605447,-0.3647813591099637,-0.06371276876892391,174.27610027450498,5.599639818907255,-43.17808851333839,1
1767133193.47,2,right_wrist,-0.1225,0.0244,-0.9609,1.12,-2.8,-0.35,0.05231778930075226,0.7393994239066837,0.6700563209122018,-0.039697199583228655,178.603459254293,7.401173294116783,84.27648067730513,1
1767133193.532,1,left_wrist,-0.0864,0.102,-0.977,1.61,-5.11,-0.28,0.028420992830537006,0.9284758964605447,-0.3647813591099637,-0.06371276876892391,174.27610027450498,5.599639818907255,-43.17808851333839,1
1767133193.532,2,right_wrist,-0.1225,0.0244,-0.9609,1.12,-2.8,-0.35,0.05231778930075226,0.7393994239066837,0.6700563209122018,-0.039697199583228655,178.603459254293,7.401173294116783,84.27648067730513,1
1767133193.591,1,left_wrist,-0.0864,0.102,-0.977,1.61,-5.11,-0.28,0.028420992830537006,0.9284758964605447,-0.3647813591099637,-0.06371276876892391,174.27610027450498,5.599639818907255,-43.17808851333839,1
1767133193.591,2,right_wrist,-0.1225,0.0244,-0.9609,1.12,-2.8,-0.35,0.05231778930075226,0.7393994239066837,0.6700563209122018,-0.039697199583228655,178.603459254293,7.401173294116783,84.27648067730513,1
1767133193.667,1,left_wrist,-0.0864,0.102,-0.977,1.61,-5.11,-0.28,0.028420992830537006,0.9284758964605447,-0.3647813591099637,-0.06371276876892391,174.27610027450498,5.599639818907255,-43.17808851333839,1
1767133193.667,2,right_wrist,-0.1225,0.0244,-0.9609,1.12,-2.8,-0.35,0.05231778930075226,0.7393994239066837,0.6700563209122018,-0.039697199583228655,178.603459254293,7.401173294116783,84.27648067730513,1
1767133193.727,1,left_wrist,-0.0864,0.102,-0.977,1.61,-5.11,-0.28,0.028420992830537006,0.9284758964605447,-0.3647813591099637,-0.06371276876892391,174.27610027450498,5.599639818907255,-43.17808851333839,1
1767133193.727,2,right_wrist,-0.1225,0.0244,-0.9609,1.12,-2.8,-0.35,0.05231778930075226,0.7393994239066837,0.6700563209122018,-0.039697199583228655,178.603459254293,7.401173294116783,84.27648067730513,1
1767133193.782,1,left_wrist,-0.0864,0.102,-0.977,1.61,-5.11,-0.28,0.028420992830537006,0.9284758964605447,-0.3647813591099637,-0.06371276876892391,174.27610027450498,5.599639818907255,-43.17808851333839,1
1767133193.782,2,right_wrist,-0.1225,0.0244,-0.9609,1.12,-2.8,-0.35,0.05231778930075226,0.7393994239066837,0.6700563209122018,-0.039697199583228655,178.603459254293,7.401173294116783,84.27648067730513,1
1767133193.852,1,left_wrist,-0.0864,0.102,-0.977,1.61,-5.11,-0.28,0.028420992830537006,0.9284758964605447,-0.3647813591099637,-0.06371276876892391,174.27610027450498,5.599639818907255,-43.17808851333839,1
1767133193.852,2,right_wrist,-0.1225,0.0244,-0.9609,1.12,-2.8,-0.35,0.05231778930075226,0.7393994239066837,0.6700563209122018,-0.039697199583228655,178.603459254293,7.401173294116783,84.27648067730513,1
1767133193.908,1,left_wrist,-0.0864,0.102,-0.977,1.61,-5.11,-0.28,0.028420992830537006,0.9284758964605447,-0.3647813591099637,-0.06371276876892391,174.27610027450498,5.599639818907255,-43.17808851333839,1
1767133193.908,2,right_wrist,-0.1225,0.0244,-0.9609,1.12,-2.8,-0.35,0.05231778930075226,0.7393994239066837,0.6700563209122018,-0.039697199583228655,178.603459254293,7.401173294116783,84.27648067730513,1
1767133193.977,1,left_wrist,-0.0864,0.102,-0.977,1.61,-5.11,-0.28,0.028420992830537006,0.9284758964605447,-0.3647813591099637,-0.06371276876892391,174.27610027450498,5.599639818907255,-43.17808851333839,1
1767133193.977,2,right_wrist,-0.1225,0.0244,-0.9609,1.12,-2.8,-0.35,0.05231778930075226,0.7393994239066837,0.6700563209122018,-0.039697199583228655,178.603459254293,7.401173294116783,84.27648067730513,1
1767133194.041,1,left_wrist,-0.0864,0.102,-0.977,1.61,-5.11,-0.28,0.028420992830537006,0.9284758964605447,-0.3647813591099637,-0.06371276876892391,174.27610027450498,5.599639818907255,-43.17808851333839,1
1767133194.041,2,right_wrist,-0.1225,0.0244,-0.9609,1.12,-2.8,-0.35,0.05231778930075226,0.7393994239066837,0.6700563209122018,-0.039697199583228655,178.603459254293,7.401173294116783,84.27648067730513,1
1767133194.101,1,left_wrist,-0.0864,0.102,-0.977,1.61,-5.11,-0.28,0.028420992830537006,0.9284758964605447,-0.3647813591099637,-0.06371276876892391,174.27610027450498,5.599639818907255,-43.17808851333839,1
1767133194.101,2,right_wrist,-0.1225,0.0244,-0.9609,1.12,-2.8,-0.35,0.05231778930075226,0.7393994239066837,0.6700563209122018,-0.039697199583228655,178.603459254293,7.401173294116783,84.27648067730513,1
1767133194.163,1,left_wrist,-0.0864,0.102,-0.977,1.61,-5.11,-0.28,0.028420992830537006,0.9284758964605447,-0.3647813591099637,-0.06371276876892391,174.27610027450498,5.599639818907255,-43.17808851333839,1
1767133194.163,2,right_wrist,-0.1225,0.0244,-0.9609,1.12,-2.8,-0.35,0.05231778930075226,0.7393994239066837,0.6700563209122018,-0.039697199583228655,178.603459254293,7.401173294116783,84.27648067730513,1
1767133194.225,1,left_wrist,-0.0864,0.102,-0.977,1.61,-5.11,-0.28,0.028420992830537006,0.9284758964605447,-0.3647813591099637,-0.06371276876892391,174.27610027450498,5.599639818907255,-43.17808851333839,1
1767133194.225,2,right_wrist,-0.1225,0.0244,-0.9609,1.12,-2.8,-0.35,0.05231778930075226,0.7393994239066837,0.6700563209122018,-0.039697199583228655,178.603459254293,7.401173294116783,84.27648067730513,1
1767133194.277,1,left_wrist,-0.0864,0.102,-0.977,1.61,-5.11,-0.28,0.028420992830537006,0.9284758964605447,-0.3647813591099637,-0.06371276876892391,174.27610027450498,5.599639818907255,-43.17808851333839,1
1767133194.277,2,right_wrist,-0.1225,0.0244,-0.9609,1.12,-2.8,-0.35,0.05231778930075226,0.7393994239066837,0.6700563209122018,-0.039697199583228655,178.603459254293,7.401173294116783,84.27648067730513,1
1767133194.335,1,left_wrist,-0.0864,0.102,-0.977,1.61,-5.11,-0.28,0.028420992830537006,0.9284758964605447,-0.3647813591099637,-0.06371276876892391,174.27610027450498,5.599639818907255,-43.17808851333839,1
1767133194.335,2,right_wrist,-0.1225,0.0244,-0.9609,1.12,-2.8,-0.35,0.05231778930075226,0.7393994239066837,0.6700563209122018,-0.039697199583228655,178.603459254293,7.401173294116783,84.27648067730513,1
1767133194.397,1,left_wrist,-0.0864,0.102,-0.977,1.61,-5.11,-0.28,0.028420992830537006,0.9284758964605447,-0.3647813591099637,-0.06371276876892391,174.27610027450498,5.599639818907255,-43.17808851333839,1
1767133194.397,2,right_wrist,-0.1225,0.0244,-0.9609,1.12,-2.8,-0.35,0.05231778930075226,0.7393994239066837,0.6700563209122018,-0.039697199583228655,178.603459254293,7.401173294116783,84.27648067730513,1
1767133194.458,1,left_wrist,-0.0864,0.102,-0.977,1.61,-5.11,-0.28,0.028420992830537006,0.9284758964605447,-0.3647813591099637,-0.06371276876892391,174.27610027450498,5.599639818907255,-43.17808851333839,1
1767133194.458,2,right_wrist,-0.1225,0.0244,-0.9609,1.12,-2.8,-0.35,0.05231778930075226,0.7393994239066837,0.6700563209122018,-0.039697199583228655,178.603459254293,7.401173294116783,84.27648067730513,1
1767133194.511,1,left_wrist,-0.0864,0.102,-0.977,1.61,-5.11,-0.28,0.028420992830537006,0.9284758964605447,-0.3647813591099637,-0.06371276876892391,174.27610027450498,5.599639818907255,-43.17808851333839,1
1767133194.511,2,right_wrist,-0.1225,0.0244,-0.9609,1.12,-2.8,-0.35,0.05231778930075226,0.7393994239066837,0.6700563209122018,-0.039697199583228655,178.603459254293,7.401173294116783,84.27648067730513,1
1767133194.568,1,left_wrist,-0.0864,0.102,-0.977,1.61,-5.11,-0.28,0.028420992830537006,0.9284758964605447,-0.3647813591099637,-0.06371276876892391,174.27610027450498,5.599639818907255,-43.17808851333839,1
1767133194.568,2,right_wrist,-0.1225,0.0244,-0.9609,1.12,-2.8,-0.35,0.05231778930075226,0.7393994239066837,0.6700563209122018,-0.039697199583228655,178.603459254293,7.401173294116783,84.27648067730513,1
1767133194.64,1,left_wrist,-0.0864,0.102,-0.977,1.61,-5.11,-0.28,0.028420992830537006,0.9284758964605447,-0.3647813591099637,-0.06371276876892391,174.27610027450498,5.599639818907255,-43.17808851333839,1
1767133194.64,2,right_wrist,-0.1225,0.0244,-0.9609,1.12,-2.8,-0.35,0.05231778930075226,0.7393994239066837,0.6700563209122018,-0.039697199583228655,178.603459254293,7.401173294116783,84.27648067730513,1
1767133194.703,1,left_wrist,-0.0864,0.102,-0.977,1.61,-5.11,-0.28,0.028420992830537006,0.9284758964605447,-0.3647813591099637,-0.06371276876892391,174.27610027450498,5.599639818907255,-43.17808851333839,1
1767133194.703,2,right_wrist,-0.1225,0.0244,-0.9609,1.12,-2.8,-0.35,0.05231778930075226,0.7393994239066837,0.6700563209122018,-0.039697199583228655,178.603459254293,7.401173294116783,84.27648067730513,1
1767133194.754,1,left_wrist,-0.0864,0.102,-0.977,1.61,-5.11,-0.28,0.028420992830537006,0.9284758964605447,-0.3647813591099637,-0.06371276876892391,174.27610027450498,5.599639818907255,-43.17808851333839,1
1767133194.754,2,right_wrist,-0.1225,0.0244,-0.9609,1.12,-2.8,-0.35,0.05231778930075226,0.7393994239066837,0.6700563209122018,-0.039697199583228655,178.603459254293,7.401173294116783,84.27648067730513,1
1767133194.826,1,left_wrist,-0.0864,0.102,-0.977,1.61,-5.11,-0.28,0.028420992830537006,0.9284758964605447,-0.3647813591099637,-0.06371276876892391,174.27610027450498,5.599639818907255,-43.17808851333839,1
1767133194.826,2,right_wrist,-0.1225,0.0244,-0.9609,1.12,-2.8,-0.35,0.05231778930075226,0.7393994239066837,0.6700563209122018,-0.039697199583228655,178.603459254293,7.401173294116783,84.27648067730513,1
1767133194.885,1,left_wrist,-0.0864,0.102,-0.977,1.61,-5.11,-0.28,0.028420992830537006,0.9284758964605447,-0.3647813591099637,-0.06371276876892391,174.27610027450498,5.599639818907255,-43.17808851333839,1
1767133194.885,2,right_wrist,-0.1225,0.0244,-0.9609,1.12,-2.8,-0.35,0.05231778930075226,0.7393994239066837,0.6700563209122018,-0.039697199583228655,178.603459254293,7.401173294116783,84.27648067730513,1
1767133194.936,1,left_wrist,-0.0864,0.102,-0.977,1.61,-5.11,-0.28,0.028420992830537006,0.9284758964605447,-0.3647813591099637,-0.06371276876892391,174.27610027450498,5.599639818907255,-43.17808851333839,1
1767133194.936,2,right_wrist,-0.1225,0.0244,-0.9609,1.12,-2.8,-0.35,0.05231778930075226,0.7393994239066837,0.6700563209122018,-0.039697199583228655,178.603459254293,7.401173294116783,84.27648067730513,1
1767133195.006,1,left_wrist,-0.0864,0.102,-0.977,1.61,-5.11,-0.28,0.028420992830537006,0.9284758964605447,-0.3647813591099637,-0.06371276876892391,174.27610027450498,5.599639818907255,-43.17808851333839,1
1767133195.006,2,right_wrist,-0.1225,0.0244,-0.9609,1.12,-2.8,-0.35,0.05231778930075226,0.7393994239066837,0.6700563209122018,-0.039697199583228655,178.603459254293,7.401173294116783,84.27648067730513,1
1767133195.062,1,left_wrist,-0.0864,0.102,-0.977,1.61,-5.11,-0.28,0.028420992830537006,0.9284758964605447,-0.3647813591099637,-0.06371276876892391,174.27610027450498,5.599639818907255,-43.17808851333839,1
1767133195.062,2,right_wrist,-0.1225,0.0244,-0.9609,1.12,-2.8,-0.35,0.05231778930075226,0.7393994239066837,0.6700563209122018,-0.039697199583228655,178.603459254293,7.401173294116783,84.27648067730513,1
1767133195.12,1,left_wrist,-0.0864,0.102,-0.977,1.61,-5.11,-0.28,0.028420992830537006,0.9284758964605447,-0.3647813591099637,-0.06371276876892391,174.27610027450498,5.599639818907255,-43.17808851333839,1
1767133195.12,2,right_wrist,-0.1225,0.0244,-0.9609,1.12,-2.8,-0.35,0.05231778930075226,0.7393994239066837,0.6700563209122018,-0.039697199583228655,178.603459254293,7.401173294116783,84.27648067730513,1
1767133195.177,1,left_wrist,-0.0864,0.102,-0.977,1.61,-5.11,-0.28,0.028420992830537006,0.9284758964605447,-0.3647813591099637,-0.06371276876892391,174.27610027450498,5.599639818907255,-43.17808851333839,1
1767133195.177,2,right_wrist,-0.1225,0.0244,-0.9609,1.12,-2.8,-0.35,0.05231778930075226,0.7393994239066837,0.6700563209122018,-0.039697199583228655,178.603459254293,7.401173294116783,84.27648067730513,1
1767133195.244,1,left_wrist,-0.0864,0.102,-0.977,1.61,-5.11,-0.28,0.028420992830537006,0.9284758964605447,-0.3647813591099637,-0.06371276876892391,174.27610027450498,5.599639818907255,-43.17808851333839,1
1767133195.244,2,right_wrist,-0.1225,0.0244,-0.9609,1.12,-2.8,-0.35,0.05231778930075226,0.7393994239066837,0.6700563209122018,-0.039697199583228655,178.603459254293,7.401173294116783,84.27648067730513,1
1767133195.3,1,left_wrist,-0.0864,0.102,-0.977,1.61,-5.11,-0.28,0.028420992830537006,0.9284758964605447,-0.3647813591099637,-0.06371276876892391,174.27610027450498,5.599639818907255,-43.17808851333839,1
1767133195.3,2,right_wrist,-0.1225,0.0244,-0.9609,1.12,-2.8,-0.35,0.05231778930075226,0.7393994239066837,0.6700563209122018,-0.039697199583228655,178.603459254293,7.401173294116783,84.27648067730513,1
1767133195.355,1,left_wrist,-0.0864,0.102,-0.977,1.61,-5.11,-0.28,0.028420992830537006,0.9284758964605447,-0.3647813591099637,-0.06371276876892391,174.27610027450498,5.599639818907255,-43.17808851333839,1
1767133195.355,2,right_wrist,-0.1225,0.0244,-0.9609,1.12,-2.8,-0.35,0.05231778930075226,0.7393994239066837,0.6700563209122018,-0.039697199583228655,178.603459254293,7.401173294116783,84.27648067730513,1
1767133195.412,1,left_wrist,-0.0864,0.102,-0.977,1.61,-5.11,-0.28,0.028420992830537006,0.9284758964605447,-0.3647813591099637,-0.06371276876892391,174.27610027450498,5.599639818907255,-43.17808851333839,1
1767133195.412,2,right_wrist,-0.1225,0.0244,-0.9609,1.12,-2.8,-0.35,0.05231778930075226,0.7393994239066837,0.6700563209122018,-0.039697199583228655,178.603459254293,7.401173294116783,84.27648067730513,1
1767133195.476,1,left_wrist,-0.0864,0.102,-0.977,1.61,-5.11,-0.28,0.028420992830537006,0.9284758964605447,-0.3647813591099637,-0.06371276876892391,174.27610027450498,5.599639818907255,-43.17808851333839,1
1767133195.476,2,right_wrist,-0.1225,0.0244,-0.9609,1.12,-2.8,-0.35,0.05231778930075226,0.7393994239066837,0.6700563209122018,-0.039697199583228655,178.603459254293,7.401173294116783,84.27648067730513,1
1767133195.529,1,left_wrist,-0.0864,0.102,-0.977,1.61,-5.11,-0.28,0.028420992830537006,0.9284758964605447,-0.3647813591099637,-0.06371276876892391,174.27610027450498,5.599639818907255,-43.17808851333839,1
1767133195.529,2,right_wrist,-0.1225,0.0244,-0.9609,1.12,-2.8,-0.35,0.05231778930075226,0.7393994239066837,0.6700563209122018,-0.039697199583228655,178.603459254293,7.401173294116783,84.27648067730513,1
1767133195.591,1,left_wrist,-0.0864,0.102,-0.977,1.61,-5.11,-0.28,0.028420992830537006,0.9284758964605447,-0.3647813591099637,-0.06371276876892391,174.27610027450498,5.599639818907255,-43.17808851333839,1
1767133195.591,2,right_wrist,-0.1225,0.0244,-0.9609,1.12,-2.8,-0.35,0.05231778930075226,0.7393994239066837,0.6700563209122018,-0.039697199583228655,178.603459254293,7.401173294116783,84.27648067730513,1
1767133195.642,1,left_wrist,-0.0864,0.102,-0.977,1.61,-5.11,-0.28,0.028420992830537006,0.9284758964605447,-0.3647813591099637,-0.06371276876892391,174.27610027450498,5.599639818907255,-43.17808851333839,1
1767133195.642,2,right_wrist,-0.1225,0.0244,-0.9609,1.12,-2.8,-0.35,0.05231778930075226,0.7393994239066837,0.6700563209122018,-0.039697199583228655,178.603459254293,7.401173294116783,84.27648067730513,1
1767133195.694,1,left_wrist,-0.0864,0.102,-0.977,1.61,-5.11,-0.28,0.028420992830537006,0.9284758964605447,-0.3647813591099637,-0.06371276876892391,174.27610027450498,5.599639818907255,-43.17808851333839,1
1767133195.694,2,right_wrist,-0.1225,0.0244,-0.9609,1.12,-2.8,-0.35,0.05231778930075226,0.7393994239066837,0.6700563209122018,-0.039697199583228655,178.603459254293,7.401173294116783,84.27648067730513,1
1767133195.75,1,left_wrist,-0.0864,0.102,-0.977,1.61,-5.11,-0.28,0.028420992830537006,0.9284758964605447,-0.3647813591099637,-0.06371276876892391,174.27610027450498,5.599639818907255,-43.17808851333839,1
1767133195.75,2,right_wrist,-0.1225,0.0244,-0.9609,1.12,-2.8,-0.35,0.05231778930075226,0.7393994239066837,0.6700563209122018,-0.039697199583228655,178.603459254293,7.401173294116783,84.27648067730513,1
1767133195.818,1,left_wrist,-0.0864,0.102,-0.977,1.61,-5.11,-0.28,0.028420992830537006,0.9284758964605447,-0.3647813591099637,-0.06371276876892391,174.27610027450498,5.599639818907255,-43.17808851333839,1
1767133195.818,2,right_wrist,-0.1225,0.0244,-0.9609,1.12,-2.8,-0.35,0.05231778930075226,0.7393994239066837,0.6700563209122018,-0.039697199583228655,178.603459254293,7.401173294116783,84.27648067730513,1
1767133195.871,1,left_wrist,-0.0864,0.102,-0.977,1.61,-5.11,-0.28,0.028420992830537006,0.9284758964605447,-0.3647813591099637,-0.06371276876892391,174.27610027450498,5.599639818907255,-43.17808851333839,1
1767133195.871,2,right_wrist,-0.1225,0.0244,-0.9609,1.12,-2.8,-0.35,0.05231778930075226,0.7393994239066837,0.6700563209122018,-0.039697199583228655,178.603459254293,7.401173294116783,84.27648067730513,1
1767133195.923,1,left_wrist,-0.0864,0.102,-0.977,1.61,-5.11,-0.28,0.028420992830537006,0.9284758964605447,-0.3647813591099637,-0.06371276876892391,174.27610027450498,5.599639818907255,-43.17808851333839,1
1767133195.923,2,right_wrist,-0.1225,0.0244,-0.9609,1.12,-2.8,-0.35,0.05231778930075226,0.7393994239066837,0.6700563209122018,-0.039697199583228655,178.603459254293,7.401173294116783,84.27648067730513,1
1767133195.946,1,left_wrist,-0.0864,0.102,-0.977,1.61,-5.11,-0.28,0.028420992830537006,0.9284758964605447,-0.3647813591099637,-0.06371276876892391,174.27610027450498,5.599639818907255,-43.17808851333839,2
1767133195.946,2,right_wrist,-0.1225,0.0244,-0.9609,1.12,-2.8,-0.35,0.05231778930075226,0.7393994239066837,0.6700563209122018,-0.039697199583228655,178.603459254293,7.401173294116783,84.27648067730513,2
1767133197.868,1,left_wrist,-0.0864,0.102,-0.977,1.61,-5.11,-0.28,0.028420992830537006,0.9284758964605447,-0.3647813591099637,-0.06371276876892391,174.27610027450498,5.599639818907255,-43.17808851333839,3
1767133197.868,2,right_wrist,-0.1225,0.0244,-0.9609,1.12,-2.8,-0.35,0.05231778930075226,0.7393994239066837,0.6700563209122018,-0.039697199583228655,178.603459254293,7.401173294116783,84.27648067730513,3
1767133200.979,1,left_wrist,-0.0864,0.102,-0.977,1.61,-5.11,-0.28,0.028420992830537006,0.9284758964605447,-0.3647813591099637,-0.06371276876892391,174.27610027450498,5.599639818907255,-43.17808851333839,4
1767133200.979,2,right_wrist,-0.1225,0.0244,-0.9609,1.12,-2.8,-0.35,0.05231778930075226,0.7393994239066837,0.6700563209122018,-0.039697199583228655,178.603459254293,7.401173294116783,84.27648067730513,4
1767133203.409,1,left_wrist,-0.0864,0.102,-0.977,1.61,-5.11,-0.28,0.028420992830537006,0.9284758964605447,-0.3647813591099637,-0.06371276876892391,174.27610027450498,5.599639818907255,-43.17808851333839,5
1767133203.409,2,right_wrist,-0.1225,0.0244,-0.9609,1.12,-2.8,-0.35,0.05231778930075226,0.7393994239066837,0.6700563209122018,-0.039697199583228655,178.603459254293,7.401173294116783,84.27648067730513,5
1767133219.179,1,left_wrist,-0.0864,0.102,-0.977,1.61,-5.11,-0.28,0.028420992830537006,0.9284758964605447,-0.3647813591099637,-0.06371276876892391,174.27610027450498,5.599639818907255,-43.17808851333839,6
1767133219.179,2,right_wrist,-0.1225,0.0244,-0.9609,1.12,-2.8,-0.35,0.05231778930075226,0.7393994239066837,0.6700563209122018,-0.039697199583228655,178.603459254293,7.401173294116783,84.27648067730513,6
1767133219.252,1,left_wrist,-0.0864,0.102,-0.977,1.61,-5.11,-0.28,0.028420992830537006,0.9284758964605447,-0.3647813591099637,-0.06371276876892391,174.27610027450498,5.599639818907255,-43.17808851333839,6
1767133219.252,2,right_wrist,-0.1225,0.0244,-0.9609,1.12,-2.8,-0.35,0.05231778930075226,0.7393994239066837,0.6700563209122018,-0.039697199583228655,178.603459254293,7.401173294116783,84.27648067730513,6
1767133219.309,1,left_wrist,-0.0864,0.102,-0.977,1.61,-5.11,-0.28,0.028420992830537006,0.9284758964605447,-0.3647813591099637,-0.06371276876892391,174.27610027450498,5.599639818907255,-43.17808851333839,6
1767133219.309,2,right_wrist,-0.1225,0.0244,-0.9609,1.12,-2.8,-0.35,0.05231778930075226,0.7393994239066837,0.6700563209122018,-0.039697199583228655,178.603459254293,7.401173294116783,84.27648067730513,6
1767133219.361,1,left_wrist,-0.0864,0.102,-0.977,1.61,-5.11,-0.28,0.028420992830537006,0.9284758964605447,-0.3647813591099637,-0.06371276876892391,174.27610027450498,5.599639818907255,-43.17808851333839,6
1767133219.361,2,right_wrist,-0.1225,0.0244,-0.9609,1.12,-2.8,-0.35,0.05231778930075226,0.7393994239066837,0.6700563209122018,-0.039697199583228655,178.603459254293,7.401173294116783,84.27648067730513,6
1767133219.414,1,left_wrist,-0.0864,0.102,-0.977,1.61,-5.11,-0.28,0.028420992830537006,0.9284758964605447,-0.3647813591099637,-0.06371276876892391,174.27610027450498,5.599639818907255,-43.17808851333839,6
1767133219.414,2,right_wrist,-0.1225,0.0244,-0.9609,1.12,-2.8,-0.35,0.05231778930075226,0.7393994239066837,0.6700563209122018,-0.039697199583228655,178.603459254293,7.401173294116783,84.27648067730513,6
1767133219.475,1,left_wrist,-0.0864,0.102,-0.977,1.61,-5.11,-0.28,0.028420992830537006,0.9284758964605447,-0.3647813591099637,-0.06371276876892391,174.27610027450498,5.599639818907255,-43.17808851333839,6
1767133219.475,2,right_wrist,-0.1225,0.0244,-0.9609,1.12,-2.8,-0.35,0.05231778930075226,0.7393994239066837,0.6700563209122018,-0.039697199583228655,178.603459254293,7.401173294116783,84.27648067730513,6
1767133219.542,1,left_wrist,-0.0864,0.102,-0.977,1.61,-5.11,-0.28,0.028420992830537006,0.9284758964605447,-0.3647813591099637,-0.06371276876892391,174.27610027450498,5.599639818907255,-43.17808851333839,6
1767133219.542,2,right_wrist,-0.1225,0.0244,-0.9609,1.12,-2.8,-0.35,0.05231778930075226,0.7393994239066837,0.6700563209122018,-0.039697199583228655,178.603459254293,7.401173294116783,84.27648067730513,6
1767133219.593,1,left_wrist,-0.0864,0.102,-0.977,1.61,-5.11,-0.28,0.028420992830537006,0.9284758964605447,-0.3647813591099637,-0.06371276876892391,174.27610027450498,5.599639818907255,-43.17808851333839,6
1767133219.593,2,right_wrist,-0.1225,0.0244,-0.9609,1.12,-2.8,-0.35,0.05231778930075226,0.7393994239066837,0.6700563209122018,-0.039697199583228655,178.603459254293,7.401173294116783,84.27648067730513,6
1767133219.646,1,left_wrist,-0.0864,0.102,-0.977,1.61,-5.11,-0.28,0.028420992830537006,0.9284758964605447,-0.3647813591099637,-0.06371276876892391,174.27610027450498,5.599639818907255,-43.17808851333839,6
1767133219.646,2,right_wrist,-0.1225,0.0244,-0.9609,1.12,-2.8,-0.35,0.05231778930075226,0.7393994239066837,0.6700563209122018,-0.039697199583228655,178.603459254293,7.401173294116783,84.27648067730513,6
1767133219.709,1,left_wrist,-0.0864,0.102,-0.977,1.61,-5.11,-0.28,0.028420992830537006,0.9284758964605447,-0.3647813591099637,-0.06371276876892391,174.27610027450498,5.599639818907255,-43.17808851333839,6
1767133219.709,2,right_wrist,-0.1225,0.0244,-0.9609,1.12,-2.8,-0.35,0.05231778930075226,0.7393994239066837,0.6700563209122018,-0.039697199583228655,178.603459254293,7.401173294116783,84.27648067730513,6
1767133219.768,1,left_wrist,-0.0864,0.102,-0.977,1.61,-5.11,-0.28,0.028420992830537006,0.9284758964605447,-0.3647813591099637,-0.06371276876892391,174.27610027450498,5.599639818907255,-43.17808851333839,6
1767133219.768,2,right_wrist,-0.1225,0.0244,-0.9609,1.12,-2.8,-0.35,0.05231778930075226,0.7393994239066837,0.6700563209122018,-0.039697199583228655,178.603459254293,7.401173294116783,84.27648067730513,6
1767133219.827,1,left_wrist,-0.0864,0.102,-0.977,1.61,-5.11,-0.28,0.028420992830537006,0.9284758964605447,-0.3647813591099637,-0.06371276876892391,174.27610027450498,5.599639818907255,-43.17808851333839,6
1767133219.827,2,right_wrist,-0.1225,0.0244,-0.9609,1.12,-2.8,-0.35,0.05231778930075226,0.7393994239066837,0.6700563209122018,-0.039697199583228655,178.603459254293,7.401173294116783,84.27648067730513,6
1767133219.886,1,left_wrist,-0.0864,0.102,-0.977,1.61,-5.11,-0.28,0.028420992830537006,0.9284758964605447,-0.3647813591099637,-0.06371276876892391,174.27610027450498,5.599639818907255,-43.17808851333839,6
1767133219.886,2,right_wrist,-0.1225,0.0244,-0.9609,1.12,-2.8,-0.35,0.05231778930075226,0.7393994239066837,0.6700563209122018,-0.039697199583228655,178.603459254293,7.401173294116783,84.27648067730513,6
1767133219.957,1,left_wrist,-0.0864,0.102,-0.977,1.61,-5.11,-0.28,0.028420992830537006,0.9284758964605447,-0.3647813591099637,-0.06371276876892391,174.27610027450498,5.599639818907255,-43.17808851333839,6
1767133219.957,2,right_wrist,-0.1225,0.0244,-0.9609,1.12,-2.8,-0.35,0.05231778930075226,0.7393994239066837,0.6700563209122018,-0.039697199583228655,178.603459254293,7.401173294116783,84.27648067730513,6
1767133220.008,1,left_wrist,-0.0864,0.102,-0.977,1.61,-5.11,-0.28,0.028420992830537006,0.9284758964605447,-0.3647813591099637,-0.06371276876892391,174.27610027450498,5.599639818907255,-43.17808851333839,6
1767133220.008,2,right_wrist,-0.1225,0.0244,-0.9609,1.12,-2.8,-0.35,0.05231778930075226,0.7393994239066837,0.6700563209122018,-0.039697199583228655,178.603459254293,7.401173294116783,84.27648067730513,6
1767133220.083,1,left_wrist,-0.0864,0.102,-0.977,1.61,-5.11,-0.28,0.028420992830537006,0.9284758964605447,-0.3647813591099637,-0.06371276876892391,174.27610027450498,5.599639818907255,-43.17808851333839,6
1767133220.083,2,right_wrist,-0.1225,0.0244,-0.9609,1.12,-2.8,-0.35,0.05231778930075226,0.7393994239066837,0.6700563209122018,-0.039697199583228655,178.603459254293,7.401173294116783,84.27648067730513,6
1767133220.134,1,left_wrist,-0.0864,0.102,-0.977,1.61,-5.11,-0.28,0.028420992830537006,0.9284758964605447,-0.3647813591099637,-0.06371276876892391,174.27610027450498,5.599639818907255,-43.17808851333839,6
1767133220.134,2,right_wrist,-0.1225,0.0244,-0.9609,1.12,-2.8,-0.35,0.05231778930075226,0.7393994239066837,0.6700563209122018,-0.039697199583228655,178.603459254293,7.401173294116783,84.27648067730513,6
1767133220.202,1,left_wrist,-0.0864,0.102,-0.977,1.61,-5.11,-0.28,0.028420992830537006,0.9284758964605447,-0.3647813591099637,-0.06371276876892391,174.27610027450498,5.599639818907255,-43.17808851333839,6
1767133220.202,2,right_wrist,-0.1225,0.0244,-0.9609,1.12,-2.8,-0.35,0.05231778930075226,0.7393994239066837,0.6700563209122018,-0.039697199583228655,178.603459254293,7.401173294116783,84.27648067730513,6
1767133220.268,1,left_wrist,-0.0864,0.102,-0.977,1.61,-5.11,-0.28,0.028420992830537006,0.9284758964605447,-0.3647813591099637,-0.06371276876892391,174.27610027450498,5.599639818907255,-43.17808851333839,6
1767133220.268,2,right_wrist,-0.1225,0.0244,-0.9609,1.12,-2.8,-0.35,0.05231778930075226,0.7393994239066837,0.6700563209122018,-0.039697199583228655,178.603459254293,7.401173294116783,84.27648067730513,6
1767133220.335,1,left_wrist,-0.0864,0.102,-0.977,1.61,-5.11,-0.28,0.028420992830537006,0.9284758964605447,-0.3647813591099637,-0.06371276876892391,174.27610027450498,5.599639818907255,-43.17808851333839,6
1767133220.335,2,right_wrist,-0.1225,0.0244,-0.9609,1.12,-2.8,-0.35,0.05231778930075226,0.7393994239066837,0.6700563209122018,-0.039697199583228655,178.603459254293,7.401173294116783,84.27648067730513,6
1767133220.402,1,left_wrist,-0.0864,0.102,-0.977,1.61,-5.11,-0.28,0.028420992830537006,0.9284758964605447,-0.3647813591099637,-0.06371276876892391,174.27610027450498,5.599639818907255,-43.17808851333839,6
1767133220.402,2,right_wrist,-0.1225,0.0244,-0.9609,1.12,-2.8,-0.35,0.05231778930075226,0.7393994239066837,0.6700563209122018,-0.039697199583228655,178.603459254293,7.401173294116783,84.27648067730513,6
1767133220.472,1,left_wrist,-0.0864,0.102,-0.977,1.61,-5.11,-0.28,0.028420992830537006,0.9284758964605447,-0.3647813591099637,-0.06371276876892391,174.27610027450498,5.599639818907255,-43.17808851333839,6
1767133220.472,2,right_wrist,-0.1225,0.0244,-0.9609,1.12,-2.8,-0.35,0.05231778930075226,0.7393994239066837,0.6700563209122018,-0.039697199583228655,178.603459254293,7.401173294116783,84.27648067730513,6
1767133220.531,1,left_wrist,-0.0864,0.102,-0.977,1.61,-5.11,-0.28,0.028420992830537006,0.9284758964605447,-0.3647813591099637,-0.06371276876892391,174.27610027450498,5.599639818907255,-43.17808851333839,6
1767133220.531,2,right_wrist,-0.1225,0.0244,-0.9609,1.12,-2.8,-0.35,0.05231778930075226,0.7393994239066837,0.6700563209122018,-0.039697199583228655,178.603459254293,7.401173294116783,84.27648067730513,6
1767133220.595,1,left_wrist,-0.0864,0.102,-0.977,1.61,-5.11,-0.28,0.028420992830537006,0.9284758964605447,-0.3647813591099637,-0.06371276876892391,174.27610027450498,5.599639818907255,-43.17808851333839,6
1767133220.595,2,right_wrist,-0.1225,0.0244,-0.9609,1.12,-2.8,-0.35,0.05231778930075226,0.7393994239066837,0.6700563209122018,-0.039697199583228655,178.603459254293,7.401173294116783,84.27648067730513,6
1767133220.646,1,left_wrist,-0.0864,0.102,-0.977,1.61,-5.11,-0.28,0.028420992830537006,0.9284758964605447,-0.3647813591099637,-0.06371276876892391,174.27610027450498,5.599639818907255,-43.17808851333839,6
1767133220.646,2,right_wrist,-0.1225,0.0244,-0.9609,1.12,-2.8,-0.35,0.05231778930075226,0.7393994239066837,0.6700563209122018,-0.039697199583228655,178.603459254293,7.401173294116783,84.27648067730513,6
1767133220.702,1,left_wrist,-0.0864,0.102,-0.977,1.61,-5.11,-0.28,0.028420992830537006,0.9284758964605447,-0.3647813591099637,-0.06371276876892391,174.27610027450498,5.599639818907255,-43.17808851333839,6
1767133220.702,2,right_wrist,-0.1225,0.0244,-0.9609,1.12,-2.8,-0.35,0.05231778930075226,0.7393994239066837,0.6700563209122018,-0.039697199583228655,178.603459254293,7.401173294116783,84.27648067730513,6
1767133220.759,1,left_wrist,-0.0864,0.102,-0.977,1.61,-5.11,-0.28,0.028420992830537006,0.9284758964605447,-0.3647813591099637,-0.06371276876892391,174.27610027450498,5.599639818907255,-43.17808851333839,6
1767133220.759,2,right_wrist,-0.1225,0.0244,-0.9609,1.12,-2.8,-0.35,0.05231778930075226,0.7393994239066837,0.6700563209122018,-0.039697199583228655,178.603459254293,7.401173294116783,84.27648067730513,6
1767133220.81,1,left_wrist,-0.0864,0.102,-0.977,1.61,-5.11,-0.28,0.028420992830537006,0.9284758964605447,-0.3647813591099637,-0.06371276876892391,174.27610027450498,5.599639818907255,-43.17808851333839,6
1767133220.81,2,right_wrist,-0.1225,0.0244,-0.9609,1.12,-2.8,-0.35,0.05231778930075226,0.7393994239066837,0.6700563209122018,-0.039697199583228655,178.603459254293,7.401173294116783,84.27648067730513,6
1767133220.871,1,left_wrist,-0.0864,0.102,-0.977,1.61,-5.11,-0.28,0.028420992830537006,0.9284758964605447,-0.3647813591099637,-0.06371276876892391,174.27610027450498,5.599639818907255,-43.17808851333839,6
1767133220.871,2,right_wrist,-0.1225,0.0244,-0.9609,1.12,-2.8,-0.35,0.05231778930075226,0.7393994239066837,0.6700563209122018,-0.039697199583228655,178.603459254293,7.401173294116783,84.27648067730513,6
1767133220.931,1,left_wrist,-0.0864,0.102,-0.977,1.61,-5.11,-0.28,0.028420992830537006,0.9284758964605447,-0.3647813591099637,-0.06371276876892391,174.27610027450498,5.599639818907255,-43.17808851333839,6
1767133220.931,2,right_wrist,-0.1225,0.0244,-0.9609,1.12,-2.8,-0.35,0.05231778930075226,0.7393994239066837,0.6700563209122018,-0.039697199583228655,178.603459254293,7.401173294116783,84.27648067730513,6
1767133220.985,1,left_wrist,-0.0864,0.102,-0.977,1.61,-5.11,-0.28,0.028420992830537006,0.9284758964605447,-0.3647813591099637,-0.06371276876892391,174.27610027450498,5.599639818907255,-43.17808851333839,6
1767133220.985,2,right_wrist,-0.1225,0.0244,-0.9609,1.12,-2.8,-0.35,0.05231778930075226,0.7393994239066837,0.6700563209122018,-0.039697199583228655,178.603459254293,7.401173294116783,84.27648067730513,6
1767133221.05,1,left_wrist,-0.0864,0.102,-0.977,1.61,-5.11,-0.28,0.028420992830537006,0.9284758964605447,-0.3647813591099637,-0.06371276876892391,174.27610027450498,5.599639818907255,-43.17808851333839,6
1767133221.05,2,right_wrist,-0.1225,0.0244,-0.9609,1.12,-2.8,-0.35,0.05231778930075226,0.7393994239066837,0.6700563209122018,-0.039697199583228655,178.603459254293,7.401173294116783,84.27648067730513,6
1767133221.101,1,left_wrist,-0.0864,0.102,-0.977,1.61,-5.11,-0.28,0.028420992830537006,0.9284758964605447,-0.3647813591099637,-0.06371276876892391,174.27610027450498,5.599639818907255,-43.17808851333839,7
1767133221.101,2,right_wrist,-0.1225,0.0244,-0.9609,1.12,-2.8,-0.35,0.05231778930075226,0.7393994239066837,0.6700563209122018,-0.039697199583228655,178.603459254293,7.401173294116783,84.27648067730513,7
1767133223.442,1,left_wrist,-0.0864,0.102,-0.977,1.61,-5.11,-0.28,0.028420992830537006,0.9284758964605447,-0.3647813591099637,-0.06371276876892391,174.27610027450498,5.599639818907255,-43.17808851333839,8
1767133223.442,2,right_wrist,-0.1225,0.0244,-0.9609,1.12,-2.8,-0.35,0.05231778930075226,0.7393994239066837,0.6700563209122018,-0.039697199583228655,178.603459254293,7.401173294116783,84.27648067730513,8
1767133225.676,1,left_wrist,-0.0864,0.102,-0.977,1.61,-5.11,-0.28,0.028420992830537006,0.9284758964605447,-0.3647813591099637,-0.06371276876892391,174.27610027450498,5.599639818907255,-43.17808851333839,9
1767133225.676,2,right_wrist,-0.1225,0.0244,-0.9609,1.12,-2.8,-0.35,0.05231778930075226,0.7393994239066837,0.6700563209122018,-0.039697199583228655,178.603459254293,7.401173294116783,84.27648067730513,9
1767133229.066,1,left_wrist,-0.0864,0.102,-0.977,1.61,-5.11,-0.28,0.028420992830537006,0.9284758964605447,-0.3647813591099637,-0.06371276876892391,174.27610027450498,5.599639818907255,-43.17808851333839,10
1767133229.066,2,right_wrist,-0.1225,0.0244,-0.9609,1.12,-2.8,-0.35,0.05231778930075226,0.7393994239066837,0.6700563209122018,-0.039697199583228655,178.603459254293,7.401173294116783,84.27648067730513,10
1767133242.876,1,left_wrist,-0.0864,0.102,-0.977,1.61,-5.11,-0.28,0.028420992830537006,0.9284758964605447,-0.3647813591099637,-0.06371276876892391,174.27610027450498,5.599639818907255,-43.17808851333839,11
1767133242.876,2,right_wrist,-0.1225,0.0244,-0.9609,1.12,-2.8,-0.35,0.05231778930075226,0.7393994239066837,0.6700563209122018,-0.039697199583228655,178.603459254293,7.401173294116783,84.27648067730513,11
1767133242.932,1,left_wrist,-0.0864,0.102,-0.977,1.61,-5.11,-0.28,0.028420992830537006,0.9284758964605447,-0.3647813591099637,-0.06371276876892391,174.27610027450498,5.599639818907255,-43.17808851333839,11
1767133242.932,2,right_wrist,-0.1225,0.0244,-0.9609,1.12,-2.8,-0.35,0.05231778930075226,0.7393994239066837,0.6700563209122018,-0.039697199583228655,178.603459254293,7.401173294116783,84.27648067730513,11
1767133242.984,1,left_wrist,-0.0864,0.102,-0.977,1.61,-5.11,-0.28,0.028420992830537006,0.9284758964605447,-0.3647813591099637,-0.06371276876892391,174.27610027450498,5.599639818907255,-43.17808851333839,11
1767133242.984,2,right_wrist,-0.1225,0.0244,-0.9609,1.12,-2.8,-0.35,0.05231778930075226,0.7393994239066837,0.6700563209122018,-0.039697199583228655,178.603459254293,7.401173294116783,84.27648067730513,11
1767133243.044,1,left_wrist,-0.0864,0.102,-0.977,1.61,-5.11,-0.28,0.028420992830537006,0.9284758964605447,-0.3647813591099637,-0.06371276876892391,174.27610027450498,5.599639818907255,-43.17808851333839,11
1767133243.044,2,right_wrist,-0.1225,0.0244,-0.9609,1.12,-2.8,-0.35,0.05231778930075226,0.7393994239066837,0.6700563209122018,-0.039697199583228655,178.603459254293,7.401173294116783,84.27648067730513,11
1767133243.106,1,left_wrist,-0.0864,0.102,-0.977,1.61,-5.11,-0.28,0.028420992830537006,0.9284758964605447,-0.3647813591099637,-0.06371276876892391,174.27610027450498,5.599639818907255,-43.17808851333839,11
1767133243.106,2,right_wrist,-0.1225,0.0244,-0.9609,1.12,-2.8,-0.35,0.05231778930075226,0.7393994239066837,0.6700563209122018,-0.039697199583228655,178.603459254293,7.401173294116783,84.27648067730513,11
1767133243.156,1,left_wrist,-0.0864,0.102,-0.977,1.61,-5.11,-0.28,0.028420992830537006,0.9284758964605447,-0.3647813591099637,-0.06371276876892391,174.27610027450498,5.599639818907255,-43.17808851333839,11
1767133243.156,2,right_wrist,-0.1225,0.0244,-0.9609,1.12,-2.8,-0.35,0.05231778930075226,0.7393994239066837,0.6700563209122018,-0.039697199583228655,178.603459254293,7.401173294116783,84.27648067730513,11
1767133243.209,1,left_wrist,-0.0864,0.102,-0.977,1.61,-5.11,-0.28,0.028420992830537006,0.9284758964605447,-0.3647813591099637,-0.06371276876892391,174.27610027450498,5.599639818907255,-43.17808851333839,11
1767133243.209,2,right_wrist,-0.1225,0.0244,-0.9609,1.12,-2.8,-0.35,0.05231778930075226,0.7393994239066837,0.6700563209122018,-0.039697199583228655,178.603459254293,7.401173294116783,84.27648067730513,11
1767133243.269,1,left_wrist,-0.0864,0.102,-0.977,1.61,-5.11,-0.28,0.028420992830537006,0.9284758964605447,-0.3647813591099637,-0.06371276876892391,174.27610027450498,5.599639818907255,-43.17808851333839,11
1767133243.269,2,right_wrist,-0.1225,0.0244,-0.9609,1.12,-2.8,-0.35,0.05231778930075226,0.7393994239066837,0.6700563209122018,-0.039697199583228655,178.603459254293,7.401173294116783,84.27648067730513,11
1767133243.336,1,left_wrist,-0.0864,0.102,-0.977,1.61,-5.11,-0.28,0.028420992830537006,0.9284758964605447,-0.3647813591099637,-0.06371276876892391,174.27610027450498,5.599639818907255,-43.17808851333839,11
1767133243.336,2,right_wrist,-0.1225,0.0244,-0.9609,1.12,-2.8,-0.35,0.05231778930075226,0.7393994239066837,0.6700563209122018,-0.039697199583228655,178.603459254293,7.401173294116783,84.27648067730513,11
1767133243.392,1,left_wrist,-0.0864,0.102,-0.977,1.61,-5.11,-0.28,0.028420992830537006,0.9284758964605447,-0.3647813591099637,-0.06371276876892391,174.27610027450498,5.599639818907255,-43.17808851333839,11
1767133243.392,2,right_wrist,-0.1225,0.0244,-0.9609,1.12,-2.8,-0.35,0.05231778930075226,0.7393994239066837,0.6700563209122018,-0.039697199583228655,178.603459254293,7.401173294116783,84.27648067730513,11
1767133243.444,1,left_wrist,-0.0864,0.102,-0.977,1.61,-5.11,-0.28,0.028420992830537006,0.9284758964605447,-0.3647813591099637,-0.06371276876892391,174.27610027450498,5.599639818907255,-43.17808851333839,11
1767133243.444,2,right_wrist,-0.1225,0.0244,-0.9609,1.12,-2.8,-0.35,0.05231778930075226,0.7393994239066837,0.6700563209122018,-0.039697199583228655,178.603459254293,7.401173294116783,84.27648067730513,11
1767133243.496,1,left_wrist,-0.0864,0.102,-0.977,1.61,-5.11,-0.28,0.028420992830537006,0.9284758964605447,-0.3647813591099637,-0.06371276876892391,174.27610027450498,5.599639818907255,-43.17808851333839,11
1767133243.496,2,right_wrist,-0.1225,0.0244,-0.9609,1.12,-2.8,-0.35,0.05231778930075226,0.7393994239066837,0.6700563209122018,-0.039697199583228655,178.603459254293,7.401173294116783,84.27648067730513,11
1767133243.551,1,left_wrist,-0.0864,0.102,-0.977,1.61,-5.11,-0.28,0.028420992830537006,0.9284758964605447,-0.3647813591099637,-0.06371276876892391,174.27610027450498,5.599639818907255,-43.17808851333839,11
1767133243.551,2,right_wrist,-0.1225,0.0244,-0.9609,1.12,-2.8,-0.35,0.05231778930075226,0.7393994239066837,0.6700563209122018,-0.039697199583228655,178.603459254293,7.401173294116783,84.27648067730513,11
1767133243.61,1,left_wrist,-0.0864,0.102,-0.977,1.61,-5.11,-0.28,0.028420992830537006,0.9284758964605447,-0.3647813591099637,-0.06371276876892391,174.27610027450498,5.599639818907255,-43.17808851333839,11
1767133243.61,2,right_wrist,-0.1225,0.0244,-0.9609,1.12,-2.8,-0.35,0.05231778930075226,0.7393994239066837,0.6700563209122018,-0.039697199583228655,178.603459254293,7.401173294116783,84.27648067730513,11
1767133243.663,1,left_wrist,-0.0864,0.102,-0.977,1.61,-5.11,-0.28,0.028420992830537006,0.9284758964605447,-0.3647813591099637,-0.06371276876892391,174.27610027450498,5.599639818907255,-43.17808851333839,11
1767133243.663,2,right_wrist,-0.1225,0.0244,-0.9609,1.12,-2.8,-0.35,0.05231778930075226,0.7393994239066837,0.6700563209122018,-0.039697199583228655,178.603459254293,7.401173294116783,84.27648067730513,11
1767133243.719,1,left_wrist,-0.0864,0.102,-0.977,1.61,-5.11,-0.28,0.028420992830537006,0.9284758964605447,-0.3647813591099637,-0.06371276876892391,174.27610027450498,5.599639818907255,-43.17808851333839,11
1767133243.719,2,right_wrist,-0.1225,0.0244,-0.9609,1.12,-2.8,-0.35,0.05231778930075226,0.7393994239066837,0.6700563209122018,-0.039697199583228655,178.603459254293,7.401173294116783,84.27648067730513,11
1767133243.781,1,left_wrist,-0.0864,0.102,-0.977,1.61,-5.11,-0.28,0.028420992830537006,0.9284758964605447,-0.3647813591099637,-0.06371276876892391,174.27610027450498,5.599639818907255,-43.17808851333839,11
1767133243.781,2,right_wrist,-0.1225,0.0244,-0.9609,1.12,-2.8,-0.35,0.05231778930075226,0.7393994239066837,0.6700563209122018,-0.039697199583228655,178.603459254293,7.401173294116783,84.27648067730513,11
1767133243.844,1,left_wrist,-0.0864,0.102,-0.977,1.61,-5.11,-0.28,0.028420992830537006,0.9284758964605447,-0.3647813591099637,-0.06371276876892391,174.27610027450498,5.599639818907255,-43.17808851333839,11
1767133243.844,2,right_wrist,-0.1225,0.0244,-0.9609,1.12,-2.8,-0.35,0.05231778930075226,0.7393994239066837,0.6700563209122018,-0.039697199583228655,178.603459254293,7.401173294116783,84.27648067730513,11
1767133243.896,1,left_wrist,-0.0864,0.102,-0.977,1.61,-5.11,-0.28,0.028420992830537006,0.9284758964605447,-0.3647813591099637,-0.06371276876892391,174.27610027450498,5.599639818907255,-43.17808851333839,11
1767133243.896,2,right_wrist,-0.1225,0.0244,-0.9609,1.12,-2.8,-0.35,0.05231778930075226,0.7393994239066837,0.6700563209122018,-0.039697199583228655,178.603459254293,7.401173294116783,84.27648067730513,11
1767133243.951,1,left_wrist,-0.0864,0.102,-0.977,1.61,-5.11,-0.28,0.028420992830537006,0.9284758964605447,-0.3647813591099637,-0.06371276876892391,174.27610027450498,5.599639818907255,-43.17808851333839,11
1767133243.951,2,right_wrist,-0.1225,0.0244,-0.9609,1.12,-2.8,-0.35,0.05231778930075226,0.7393994239066837,0.6700563209122018,-0.039697199583228655,178.603459254293,7.401173294116783,84.27648067730513,11
1767133244.009,1,left_wrist,-0.0864,0.102,-0.977,1.61,-5.11,-0.28,0.028420992830537006,0.9284758964605447,-0.3647813591099637,-0.06371276876892391,174.27610027450498,5.599639818907255,-43.17808851333839,11
1767133244.009,2,right_wrist,-0.1225,0.0244,-0.9609,1.12,-2.8,-0.35,0.05231778930075226,0.7393994239066837,0.6700563209122018,-0.039697199583228655,178.603459254293,7.401173294116783,84.27648067730513,11
1767133244.066,1,left_wrist,-0.0864,0.102,-0.977,1.61,-5.11,-0.28,0.028420992830537006,0.9284758964605447,-0.3647813591099637,-0.06371276876892391,174.27610027450498,5.599639818907255,-43.17808851333839,11
1767133244.066,2,right_wrist,-0.1225,0.0244,-0.9609,1.12,-2.8,-0.35,0.05231778930075226,0.7393994239066837,0.6700563209122018,-0.039697199583228655,178.603459254293,7.401173294116783,84.27648067730513,11
1767133244.14,1,left_wrist,-0.0864,0.102,-0.977,1.61,-5.11,-0.28,0.028420992830537006,0.9284758964605447,-0.3647813591099637,-0.06371276876892391,174.27610027450498,5.599639818907255,-43.17808851333839,11
1767133244.14,2,right_wrist,-0.1225,0.0244,-0.9609,1.12,-2.8,-0.35,0.05231778930075226,0.7393994239066837,0.6700563209122018,-0.039697199583228655,178.603459254293,7.401173294116783,84.27648067730513,11
1767133244.192,1,left_wrist,-0.0864,0.102,-0.977,1.61,-5.11,-0.28,0.028420992830537006,0.9284758964605447,-0.3647813591099637,-0.06371276876892391,174.27610027450498,5.599639818907255,-43.17808851333839,11
1767133244.192,2,right_wrist,-0.1225,0.0244,-0.9609,1.12,-2.8,-0.35,0.05231778930075226,0.7393994239066837,0.6700563209122018,-0.039697199583228655,178.603459254293,7.401173294116783,84.27648067730513,11
1767133244.252,1,left_wrist,-0.0864,0.102,-0.977,1.61,-5.11,-0.28,0.028420992830537006,0.9284758964605447,-0.3647813591099637,-0.06371276876892391,174.27610027450498,5.599639818907255,-43.17808851333839,11
1767133244.252,2,right_wrist,-0.1225,0.0244,-0.9609,1.12,-2.8,-0.35,0.05231778930075226,0.7393994239066837,0.6700563209122018,-0.039697199583228655,178.603459254293,7.401173294116783,84.27648067730513,11
1767133244.32,1,left_wrist,-0.0864,0.102,-0.977,1.61,-5.11,-0.28,0.028420992830537006,0.9284758964605447,-0.3647813591099637,-0.06371276876892391,174.27610027450498,5.599639818907255,-43.17808851333839,11
1767133244.32,2,right_wrist,-0.1225,0.0244,-0.9609,1.12,-2.8,-0.35,0.05231778930075226,0.7393994239066837,0.6700563209122018,-0.039697199583228655,178.603459254293,7.401173294116783,84.27648067730513,11
1767133244.377,1,left_wrist,-0.0864,0.102,-0.977,1.61,-5.11,-0.28,0.028420992830537006,0.9284758964605447,-0.3647813591099637,-0.06371276876892391,174.27610027450498,5.599639818907255,-43.17808851333839,11
1767133244.377,2,right_wrist,-0.1225,0.0244,-0.9609,1.12,-2.8,-0.35,0.05231778930075226,0.7393994239066837,0.6700563209122018,-0.039697199583228655,178.603459254293,7.401173294116783,84.27648067730513,11
1767133244.445,1,left_wrist,-0.0864,0.102,-0.977,1.61,-5.11,-0.28,0.028420992830537006,0.9284758964605447,-0.3647813591099637,-0.06371276876892391,174.27610027450498,5.599639818907255,-43.17808851333839,11
1767133244.445,2,right_wrist,-0.1225,0.0244,-0.9609,1.12,-2.8,-0.35,0.05231778930075226,0.7393994239066837,0.6700563209122018,-0.039697199583228655,178.603459254293,7.401173294116783,84.27648067730513,11
1767133244.498,1,left_wrist,-0.0864,0.102,-0.977,1.61,-5.11,-0.28,0.028420992830537006,0.9284758964605447,-0.3647813591099637,-0.06371276876892391,174.27610027450498,5.599639818907255,-43.17808851333839,11
1767133244.498,2,right_wrist,-0.1225,0.0244,-0.9609,1.12,-2.8,-0.35,0.05231778930075226,0.7393994239066837,0.6700563209122018,-0.039697199583228655,178.603459254293,7.401173294116783,84.27648067730513,11
1767133244.561,1,left_wrist,-0.0864,0.102,-0.977,1.61,-5.11,-0.28,0.028420992830537006,0.9284758964605447,-0.3647813591099637,-0.06371276876892391,174.27610027450498,5.599639818907255,-43.17808851333839,11
1767133244.561,2,right_wrist,-0.1225,0.0244,-0.9609,1.12,-2.8,-0.35,0.05231778930075226,0.7393994239066837,0.6700563209122018,-0.039697199583228655,178.603459254293,7.401173294116783,84.27648067730513,11
1767133244.618,1,left_wrist,-0.0864,0.102,-0.977,1.61,-5.11,-0.28,0.028420992830537006,0.9284758964605447,-0.3647813591099637,-0.06371276876892391,174.27610027450498,5.599639818907255,-43.17808851333839,11
1767133244.618,2,right_wrist,-0.1225,0.0244,-0.9609,1.12,-2.8,-0.35,0.05231778930075226,0.7393994239066837,0.6700563209122018,-0.039697199583228655,178.603459254293,7.401173294116783,84.27648067730513,11
1767133244.677,1,left_wrist,-0.0864,0.102,-0.977,1.61,-5.11,-0.28,0.028420992830537006,0.9284758964605447,-0.3647813591099637,-0.06371276876892391,174.27610027450498,5.599639818907255,-43.17808851333839,11
1767133244.677,2,right_wrist,-0.1225,0.0244,-0.9609,1.12,-2.8,-0.35,0.05231778930075226,0.7393994239066837,0.6700563209122018,-0.039697199583228655,178.603459254293,7.401173294116783,84.27648067730513,11
1767133244.731,1,left_wrist,-0.0864,0.102,-0.977,1.61,-5.11,-0.28,0.028420992830537006,0.9284758964605447,-0.3647813591099637,-0.06371276876892391,174.27610027450498,5.599639818907255,-43.17808851333839,11
1767133244.731,2,right_wrist,-0.1225,0.0244,-0.9609,1.12,-2.8,-0.35,0.05231778930075226,0.7393994239066837,0.6700563209122018,-0.039697199583228655,178.603459254293,7.401173294116783,84.27648067730513,11
1767133244.788,1,left_wrist,-0.0864,0.102,-0.977,1.61,-5.11,-0.28,0.028420992830537006,0.9284758964605447,-0.3647813591099637,-0.06371276876892391,174.27610027450498,5.599639818907255,-43.17808851333839,11
1767133244.788,2,right_wrist,-0.1225,0.0244,-0.9609,1.12,-2.8,-0.35,0.05231778930075226,0.7393994239066837,0.6700563209122018,-0.039697199583228655,178.603459254293,7.401173294116783,84.27648067730513,11
1767133244.854,1,left_wrist,-0.0864,0.102,-0.977,1.61,-5.11,-0.28,0.028420992830537006,0.9284758964605447,-0.3647813591099637,-0.06371276876892391,174.27610027450498,5.599639818907255,-43.17808851333839,11
1767133244.854,2,right_wrist,-0.1225,0.0244,-0.9609,1.12,-2.8,-0.35,0.05231778930075226,0.7393994239066837,0.6700563209122018,-0.039697199583228655,178.603459254293,7.401173294116783,84.27648067730513,11
1767133244.911,1,left_wrist,-0.0864,0.102,-0.977,1.61,-5.11,-0.28,0.028420992830537006,0.9284758964605447,-0.3647813591099637,-0.06371276876892391,174.27610027450498,5.599639818907255,-43.17808851333839,11
1767133244.911,2,right_wrist,-0.1225,0.0244,-0.9609,1.12,-2.8,-0.35,0.05231778930075226,0.7393994239066837,0.6700563209122018,-0.039697199583228655,178.603459254293,7.401173294116783,84.27648067730513,11
1767133244.979,1,left_wrist,-0.0864,0.102,-0.977,1.61,-5.11,-0.28,0.028420992830537006,0.9284758964605447,-0.3647813591099637,-0.06371276876892391,174.27610027450498,5.599639818907255,-43.17808851333839,11
1767133244.979,2,right_wrist,-0.1225,0.0244,-0.9609,1.12,-2.8,-0.35,0.05231778930075226,0.7393994239066837,0.6700563209122018,-0.039697199583228655,178.603459254293,7.401173294116783,84.27648067730513,11
1767133245.035,1,left_wrist,-0.0864,0.102,-0.977,1.61,-5.11,-0.28,0.028420992830537006,0.9284758964605447,-0.3647813591099637,-0.06371276876892391,174.27610027450498,5.599639818907255,-43.17808851333839,11
1767133245.035,2,right_wrist,-0.1225,0.0244,-0.9609,1.12,-2.8,-0.35,0.05231778930075226,0.7393994239066837,0.6700563209122018,-0.039697199583228655,178.603459254293,7.401173294116783,84.27648067730513,11
1767133245.088,1,left_wrist,-0.0864,0.102,-0.977,1.61,-5.11,-0.28,0.028420992830537006,0.9284758964605447,-0.3647813591099637,-0.06371276876892391,174.27610027450498,5.599639818907255,-43.17808851333839,11
1767133245.088,2,right_wrist,-0.1225,0.0244,-0.9609,1.12,-2.8,-0.35,0.05231778930075226,0.7393994239066837,0.6700563209122018,-0.039697199583228655,178.603459254293,7.401173294116783,84.27648067730513,11
1767133245.14,1,left_wrist,-0.0864,0.102,-0.977,1.61,-5.11,-0.28,0.028420992830537006,0.9284758964605447,-0.3647813591099637,-0.06371276876892391,174.27610027450498,5.599639818907255,-43.17808851333839,11
1767133245.14,2,right_wrist,-0.1225,0.0244,-0.9609,1.12,-2.8,-0.35,0.05231778930075226,0.7393994239066837,0.6700563209122018,-0.039697199583228655,178.603459254293,7.401173294116783,84.27648067730513,11
1767133245.203,1,left_wrist,-0.0864,0.102,-0.977,1.61,-5.11,-0.28,0.028420992830537006,0.9284758964605447,-0.3647813591099637,-0.06371276876892391,174.27610027450498,5.599639818907255,-43.17808851333839,11
1767133245.203,2,right_wrist,-0.1225,0.0244,-0.9609,1.12,-2.8,-0.35,0.05231778930075226,0.7393994239066837,0.6700563209122018,-0.039697199583228655,178.603459254293,7.401173294116783,84.27648067730513,11
1767133245.278,1,left_wrist,-0.0864,0.102,-0.977,1.61,-5.11,-0.28,0.028420992830537006,0.9284758964605447,-0.3647813591099637,-0.06371276876892391,174.27610027450498,5.599639818907255,-43.17808851333839,11
1767133245.278,2,right_wrist,-0.1225,0.0244,-0.9609,1.12,-2.8,-0.35,0.05231778930075226,0.7393994239066837,0.6700563209122018,-0.039697199583228655,178.603459254293,7.401173294116783,84.27648067730513,11
1767133245.336,1,left_wrist,-0.0864,0.102,-0.977,1.61,-5.11,-0.28,0.028420992830537006,0.9284758964605447,-0.3647813591099637,-0.06371276876892391,174.27610027450498,5.599639818907255,-43.17808851333839,11
1767133245.336,2,right_wrist,-0.1225,0.0244,-0.9609,1.12,-2.8,-0.35,0.05231778930075226,0.7393994239066837,0.6700563209122018,-0.039697199583228655,178.603459254293,7.401173294116783,84.27648067730513,11
1767133245.395,1,left_wrist,-0.0864,0.102,-0.977,1.61,-5.11,-0.28,0.028420992830537006,0.9284758964605447,-0.3647813591099637,-0.06371276876892391,174.27610027450498,5.599639818907255,-43.17808851333839,11
1767133245.395,2,right_wrist,-0.1225,0.0244,-0.9609,1.12,-2.8,-0.35,0.05231778930075226,0.7393994239066837,0.6700563209122018,-0.039697199583228655,178.603459254293,7.401173294116783,84.27648067730513,11
1767133245.427,1,left_wrist,-0.0864,0.102,-0.977,1.61,-5.11,-0.28,0.028420992830537006,0.9284758964605447,-0.3647813591099637,-0.06371276876892391,174.27610027450498,5.599639818907255,-43.17808851333839,12
1767133245.427,2,right_wrist,-0.1225,0.0244,-0.9609,1.12,-2.8,-0.35,0.05231778930075226,0.7393994239066837,0.6700563209122018,-0.039697199583228655,178.603459254293,7.401173294116783,84.27648067730513,12
1767133247.768,1,left_wrist,-0.0864,0.102,-0.977,1.61,-5.11,-0.28,0.028420992830537006,0.9284758964605447,-0.3647813591099637,-0.06371276876892391,174.27610027450498,5.599639818907255,-43.17808851333839,13
1767133247.768,2,right_wrist,-0.1225,0.0244,-0.9609,1.12,-2.8,-0.35,0.05231778930075226,0.7393994239066837,0.6700563209122018,-0.039697199583228655,178.603459254293,7.401173294116783,84.27648067730513,13
1767133250.63,1,left_wrist,-0.0864,0.102,-0.977,1.61,-5.11,-0.28,0.028420992830537006,0.9284758964605447,-0.3647813591099637,-0.06371276876892391,174.27610027450498,5.599639818907255,-43.17808851333839,14
1767133250.63,2,right_wrist,-0.1225,0.0244,-0.9609,1.12,-2.8,-0.35,0.05231778930075226,0.7393994239066837,0.6700563209122018,-0.039697199583228655,178.603459254293,7.401173294116783,84.27648067730513,14
1767133253.582,1,left_wrist,-0.0864,0.102,-0.977,1.61,-5.11,-0.28,0.028420992830537006,0.9284758964605447,-0.3647813591099637,-0.06371276876892391,174.27610027450498,5.599639818907255,-43.17808851333839,15
1767133253.582,2,right_wrist,-0.1225,0.0244,-0.9609,1.12,-2.8,-0.35,0.05231778930075226,0.7393994239066837,0.6700563209122018,-0.039697199583228655,178.603459254293,7.401173294116783,84.27648067730513,15
1767133192.406,1,left_wrist,-0.0864,0.102,-0.977,1.61,-5.11,-0.28,0.028420992830537006,0.9284758964605447,-0.3647813591099637,-0.06371276876892391,174.27610027450498,5.599639818907255,-43.17808851333839,0
1767133192.406,2,right_wrist,-0.1225,0.0244,-0.9609,1.12,-2.8,-0.35,0.05231778930075226,0.7393994239066837,0.6700563209122018,-0.039697199583228655,178.603459254293,7.401173294116783,84.27648067730513,0
1767133192.468,1,left_wrist,-0.0864,0.102,-0.977,1.61,-5.11,-0.28,0.028420992830537006,0.9284758964605447,-0.3647813591099637,-0.06371276876892391,174.27610027450498,5.599639818907255,-43.17808851333839,0
1767133192.468,2,right_wrist,-0.1225,0.0244,-0.9609,1.12,-2.8,-0.35,0.05231778930075226,0.7393994239066837,0.6700563209122018,-0.039697199583228655,178.603459254293,7.401173294116783,84.27648067730513,0
1767133192.533,1,left_wrist,-0.0864,0.102,-0.977,1.61,-5.11,-0.28,0.028420992830537006,0.9284758964605447,-0.3647813591099637,-0.06371276876892391,174.27610027450498,5.599639818907255,-43.17808851333839,0
1767133192.533,2,right_wrist,-0.1225,0.0244,-0.9609,1.12,-2.8,-0.35,0.05231778930075226,0.7393994239066837,0.6700563209122018,-0.039697199583228655,178.603459254293,7.401173294116783,84.27648067730513,0
1767133192.586,1,left_wrist,-0.0864,0.102,-0.977,1.61,-5.11,-0.28,0.028420992830537006,0.9284758964605447,-0.3647813591099637,-0.06371276876892391,174.27610027450498,5.599639818907255,-43.17808851333839,0
1767133192.586,2,right_wrist,-0.1225,0.0244,-0.9609,1.12,-2.8,-0.35,0.05231778930075226,0.7393994239066837,0.6700563209122018,-0.039697199583228655,178.603459254293,7.401173294116783,84.27648067730513,0
1767133192.645,1,left_wrist,-0.0864,0.102,-0.977,1.61,-5.11,-0.28,0.028420992830537006,0.9284758964605447,-0.3647813591099637,-0.06371276876892391,174.27610027450498,5.599639818907255,-43.17808851333839,0
1767133192.645,2,right_wrist,-0.1225,0.0244,-0.9609,1.12,-2.8,-0.35,0.05231778930075226,0.7393994239066837,0.6700563209122018,-0.039697199583228655,178.603459254293,7.401173294116783,84.27648067730513,0
1767133192.699,1,left_wrist,-0.0864,0.102,-0.977,1.61,-5.11,-0.28,0.028420992830537006,0.9284758964605447,-0.3647813591099637,-0.06371276876892391,174.27610027450498,5.599639818907255,-43.17808851333839,0
1767133192.699,2,right_wrist,-0.1225,0.0244,-0.9609,1.12,-2.8,-0.35,0.05231778930075226,0.7393994239066837,0.6700563209122018,-0.039697199583228655,178.603459254293,7.401173294116783,84.27648067730513,0
1767133192.772,1,left_wrist,-0.0864,0.102,-0.977,1.61,-5.11,-0.28,0.028420992830537006,0.9284758964605447,-0.3647813591099637,-0.06371276876892391,174.27610027450498,5.599639818907255,-43.17808851333839,0
1767133192.772,2,right_wrist,-0.1225,0.0244,-0.9609,1.12,-2.8,-0.35,0.05231778930075226,0.7393994239066837,0.6700563209122018,-0.039697199583228655,178.603459254293,7.401173294116783,84.27648067730513,0
1767133192.829,1,left_wrist,-0.0864,0.102,-0.977,1.61,-5.11,-0.28,0.028420992830537006,0.9284758964605447,-0.3647813591099637,-0.06371276876892391,174.27610027450498,5.599639818907255,-43.17808851333839,0
1767133192.829,2,right_wrist,-0.1225,0.0244,-0.9609,1.12,-2.8,-0.35,0.05231778930075226,0.7393994239066837,0.6700563209122018,-0.039697199583228655,178.603459254293,7.401173294116783,84.27648067730513,0
1767133192.882,1,left_wrist,-0.0864,0.102,-0.977,1.61,-5.11,-0.28,0.028420992830537006,0.9284758964605447,-0.3647813591099637,-0.06371276876892391,174.27610027450498,5.599639818907255,-43.17808851333839,0
1767133192.882,2,right_wrist,-0.1225,0.0244,-0.9609,1.12,-2.8,-0.35,0.05231778930075226,0.7393994239066837,0.6700563209122018,-0.039697199583228655,178.603459254293,7.401173294116783,84.27648067730513,0
1767133192.958,1,left_wrist,-0.0864,0.102,-0.977,1.61,-5.11,-0.28,0.028420992830537006,0.9284758964605447,-0.3647813591099637,-0.06371276876892391,174.27610027450498,5.599639818907255,-43.17808851333839,0
1767133192.958,2,right_wrist,-0.1225,0.0244,-0.9609,1.12,-2.8,-0.35,0.05231778930075226,0.7393994239066837,0.6700563209122018,-0.039697199583228655,178.603459254293,7.401173294116783,84.27648067730513,0
1767133193.009,1,left_wrist,-0.0864,0.102,-0.977,1.61,-5.11,-0.28,0.028420992830537006,0.9284758964605447,-0.3647813591099637,-0.06371276876892391,174.27610027450498,5.599639818907255,-43.17808851333839,0
1767133193.009,2,right_wrist,-0.1225,0.0244,-0.9609,1.12,-2.8,-0.35,0.05231778930075226,0.7393994239066837,0.6700563209122018,-0.039697199583228655,178.603459254293,7.401173294116783,84.27648067730513,0
1767133193.065,1,left_wrist,-0.0864,0.102,-0.977,1.61,-5.11,-0.28,0.028420992830537006,0.9284758964605447,-0.3647813591099637,-0.06371276876892391,174.27610027450498,5.599639818907255,-43.17808851333839,0
1767133193.065,2,right_wrist,-0.1225,0.0244,-0.9609,1.12,-2.8,-0.35,0.05231778930075226,0.7393994239066837,0.6700563209122018,-0.039697199583228655,178.603459254293,7.401173294116783,84.27648067730513,0
1767133193.126,1,left_wrist,-0.0864,0.102,-0.977,1.61,-5.11,-0.28,0.028420992830537006,0.9284758964605447,-0.3647813591099637,-0.06371276876892391,174.27610027450498,5.599639818907255,-43.17808851333839,0
1767133193.126,2,right_wrist,-0.1225,0.0244,-0.9609,1.12,-2.8,-0.35,0.05231778930075226,0.7393994239066837,0.6700563209122018,-0.039697199583228655,178.603459254293,7.401173294116783,84.27648067730513,0
1767133193.179,1,left_wrist,-0.0864,0.102,-0.977,1.61,-5.11,-0.28,0.028420992830537006,0.9284758964605447,-0.3647813591099637,-0.06371276876892391,174.27610027450498,5.599639818907255,-43.17808851333839,0
1767133193.179,2,right_wrist,-0.1225,0.0244,-0.9609,1.12,-2.8,-0.35,0.05231778930075226,0.7393994239066837,0.6700563209122018,-0.039697199583228655,178.603459254293,7.401173294116783,84.27648067730513,0
1767133193.238,1,left_wrist,-0.0864,0.102,-0.977,1.61,-5.11,-0.28,0.028420992830537006,0.9284758964605447,-0.3647813591099637,-0.06371276876892391,174.27610027450498,5.599639818907255,-43.17808851333839,0
1767133193.238,2,right_wrist,-0.1225,0.0244,-0.9609,1.12,-2.8,-0.35,0.05231778930075226,0.7393994239066837,0.6700563209122018,-0.039697199583228655,178.603459254293,7.401173294116783,84.27648067730513,0
1767133193.301,1,left_wrist,-0.0864,0.102,-0.977,1.61,-5.11,-0.28,0.028420992830537006,0.9284758964605447,-0.3647813591099637,-0.06371276876892391,174.27610027450498,5.599639818907255,-43.17808851333839,0
1767133193.301,2,right_wrist,-0.1225,0.0244,-0.9609,1.12,-2.8,-0.35,0.05231778930075226,0.7393994239066837,0.6700563209122018,-0.039697199583228655,178.603459254293,7.401173294116783,84.27648067730513,0
1767133193.359,1,left_wrist,-0.0864,0.102,-0.977,1.61,-5.11,-0.28,0.028420992830537006,0.9284758964605447,-0.3647813591099637,-0.06371276876892391,174.27610027450498,5.599639818907255,-43.17808851333839,0
1767133193.359,2,right_wrist,-0.1225,0.0244,-0.9609,1.12,-2.8,-0.35,0.05231778930075226,0.7393994239066837,0.6700563209122018,-0.039697199583228655,178.603459254293,7.401173294116783,84.27648067730513,0
1767133193.412,1,left_wrist,-0.0864,0.102,-0.977,1.61,-5.11,-0.28,0.028420992830537006,0.9284758964605447,-0.3647813591099637,-0.06371276876892391,174.27610027450498,5.599639818907255,-43.17808851333839,0
1767133193.412,2,right_wrist,-0.1225,0.0244,-0.9609,1.12,-2.8,-0.35,0.05231778930075226,0.7393994239066837,0.6700563209122018,-0.039697199583228655,178.603459254293,7.401173294116783,84.27648067730513,0
1767133193.47,1,left_wrist,-0.0864,0.102,-0.977,1.61,-5.11,-0.28,0.028420992830537006,0.9284758964605447,-0.3647813591099637,-0.06371276876892391,174.27610027450498,5.599639818907255,-43.17808851333839,0
1767133193.47,2,right_wrist,-0.1225,0.0244,-0.9609,1.12,-2.8,-0.35,0.05231778930075226,0.7393994239066837,0.6700563209122018,-0.039697199583228655,178.603459254293,7.401173294116783,84.27648067730513,0
1767133193.532,1,left_wrist,-0.0864,0.102,-0.977,1.61,-5.11,-0.28,0.028420992830537006,0.9284758964605447,-0.3647813591099637,-0.06371276876892391,174.27610027450498,5.599639818907255,-43.17808851333839,0
1767133193.532,2,right_wrist,-0.1225,0.0244,-0.9609,1.12,-2.8,-0.35,0.05231778930075226,0.7393994239066837,0.6700563209122018,-0.039697199583228655,178.603459254293,7.401173294116783,84.27648067730513,0
1767133193.591,1,left_wrist,-0.0864,0.102,-0.977,1.61,-5.11,-0.28,0.028420992830537006,0.9284758964605447,-0.3647813591099637,-0.06371276876892391,174.27610027450498,5.599639818907255,-43.17808851333839,0
1767133193.591,2,right_wrist,-0.1225,0.0244,-0.9609,1.12,-2.8,-0.35,0.05231778930075226,0.7393994239066837,0.6700563209122018,-0.039697199583228655,178.603459254293,7.401173294116783,84.27648067730513,0
1767133193.667,1,left_wrist,-0.0864,0.102,-0.977,1.61,-5.11,-0.28,0.028420992830537006,0.9284758964605447,-0.3647813591099637,-0.06371276876892391,174.27610027450498,5.599639818907255,-43.17808851333839,0
1767133193.667,2,right_wrist,-0.1225,0.0244,-0.9609,1.12,-2.8,-0.35,0.05231778930075226,0.7393994239066837,0.6700563209122018,-0.039697199583228655,178.603459254293,7.401173294116783,84.27648067730513,0
1767133193.727,1,left_wrist,-0.0864,0.102,-0.977,1.61,-5.11,-0.28,0.028420992830537006,0.9284758964605447,-0.3647813591099637,-0.06371276876892391,174.27610027450498,5.599639818907255,-43.17808851333839,0
1767133193.727,2,right_wrist,-0.1225,0.0244,-0.9609,1.12,-2.8,-0.35,0.05231778930075226,0.7393994239066837,0.6700563209122018,-0.039697199583228655,178.603459254293,7.401173294116783,84.27648067730513,0
1767133193.782,1,left_wrist,-0.0864,0.102,-0.977,1.61,-5.11,-0.28,0.028420992830537006,0.9284758964605447,-0.3647813591099637,-0.06371276876892391,174.27610027450498,5.599639818907255,-43.17808851333839,0
1767133193.782,2,right_wrist,-0.1225,0.0244,-0.9609,1.12,-2.8,-0.35,0.05231778930075226,0.7393994239066837,0.6700563209122018,-0.039697199583228655,178.603459254293,7.401173294116783,84.27648067730513,0
1767133193.852,1,left_wrist,-0.0864,0.102,-0.977,1.61,-5.11,-0.28,0.028420992830537006,0.9284758964605447,-0.3647813591099637,-0.06371276876892391,174.27610027450498,5.599639818907255,-43.17808851333839,0
1767133193.852,2,right_wrist,-0.1225,0.0244,-0.9609,1.12,-2.8,-0.35,0.05231778930075226,0.7393994239066837,0.6700563209122018,-0.039697199583228655,178.603459254293,7.401173294116783,84.27648067730513,0
1767133193.908,1,left_wrist,-0.0864,0.102,-0.977,1.61,-5.11,-0.28,0.028420992830537006,0.9284758964605447,-0.3647813591099637,-0.06371276876892391,174.27610027450498,5.599639818907255,-43.17808851333839,0
1767133193.908,2,right_wrist,-0.1225,0.0244,-0.9609,1.12,-2.8,-0.35,0.05231778930075226,0.7393994239066837,0.6700563209122018,-0.039697199583228655,178.603459254293,7.401173294116783,84.27648067730513,0
1767133193.977,1,left_wrist,-0.0864,0.102,-0.977,1.61,-5.11,-0.28,0.028420992830537006,0.9284758964605447,-0.3647813591099637,-0.06371276876892391,174.27610027450498,5.599639818907255,-43.17808851333839,0
1767133193.977,2,right_wrist,-0.1225,0.0244,-0.9609,1.12,-2.8,-0.35,0.05231778930075226,0.7393994239066837,0.6700563209122018,-0.039697199583228655,178.603459254293,7.401173294116783,84.27648067730513,0
1767133194.041,1,left_wrist,-0.0864,0.102,-0.977,1.61,-5.11,-0.28,0.028420992830537006,0.9284758964605447,-0.3647813591099637,-0.06371276876892391,174.27610027450498,5.599639818907255,-43.17808851333839,0
1767133194.041,2,right_wrist,-0.1225,0.0244,-0.9609,1.12,-2.8,-0.35,0.05231778930075226,0.7393994239066837,0.6700563209122018,-0.039697199583228655,178.603459254293,7.401173294116783,84.27648067730513,0
1767133194.101,1,left_wrist,-0.0864,0.102,-0.977,1.61,-5.11,-0.28,0.028420992830537006,0.9284758964605447,-0.3647813591099637,-0.06371276876892391,174.27610027450498,5.599639818907255,-43.17808851333839,0
1767133194.101,2,right_wrist,-0.1225,0.0244,-0.9609,1.12,-2.8,-0.35,0.05231778930075226,0.7393994239066837,0.6700563209122018,-0.039697199583228655,178.603459254293,7.401173294116783,84.27648067730513,0
1767133194.163,1,left_wrist,-0.0864,0.102,-0.977,1.61,-5.11,-0.28,0.028420992830537006,0.9284758964605447,-0.3647813591099637,-0.06371276876892391,174.27610027450498,5.599639818907255,-43.17808851333839,0
1767133194.163,2,right_wrist,-0.1225,0.0244,-0.9609,1.12,-2.8,-0.35,0.05231778930075226,0.7393994239066837,0.6700563209122018,-0.039697199583228655,178.603459254293,7.401173294116783,84.27648067730513,0
1767133194.225,1,left_wrist,-0.0864,0.102,-0.977,1.61,-5.11,-0.28,0.028420992830537006,0.9284758964605447,-0.3647813591099637,-0.06371276876892391,174.27610027450498,5.599639818907255,-43.17808851333839,0
1767133194.225,2,right_wrist,-0.1225,0.0244,-0.9609,1.12,-2.8,-0.35,0.05231778930075226,0.7393994239066837,0.6700563209122018,-0.039697199583228655,178.603459254293,7.401173294116783,84.27648067730513,0
1767133194.277,1,left_wrist,-0.0864,0.102,-0.977,1.61,-5.11,-0.28,0.028420992830537006,0.9284758964605447,-0.3647813591099637,-0.06371276876892391,174.27610027450498,5.599639818907255,-43.17808851333839,0
1767133194.277,2,right_wrist,-0.1225,0.0244,-0.9609,1.12,-2.8,-0.35,0.05231778930075226,0.7393994239066837,0.6700563209122018,-0.039697199583228655,178.603459254293,7.401173294116783,84.27648067730513,0
1767133194.335,1,left_wrist,-0.0864,0.102,-0.977,1.61,-5.11,-0.28,0.028420992830537006,0.9284758964605447,-0.3647813591099637,-0.06371276876892391,174.27610027450498,5.599639818907255,-43.17808851333839,0
1767133194.335,2,right_wrist,-0.1225,0.0244,-0.9609,1.12,-2.8,-0.35,0.05231778930075226,0.7393994239066837,0.6700563209122018,-0.039697199583228655,178.603459254293,7.401173294116783,84.27648067730513,0
1767133194.397,1,left_wrist,-0.0864,0.102,-0.977,1.61,-5.11,-0.28,0.028420992830537006,0.9284758964605447,-0.3647813591099637,-0.06371276876892391,174.27610027450498,5.599639818907255,-43.17808851333839,0
1767133194.397,2,right_wrist,-0.1225,0.0244,-0.9609,1.12,-2.8,-0.35,0.05231778930075226,0.7393994239066837,0.6700563209122018,-0.039697199583228655,178.603459254293,7.401173294116783,84.27648067730513,0
1767133194.458,1,left_wrist,-0.0864,0.102,-0.977,1.61,-5.11,-0.28,0.028420992830537006,0.9284758964605447,-0.3647813591099637,-0.06371276876892391,174.27610027450498,5.599639818907255,-43.17808851333839,0
1767133194.458,2,right_wrist,-0.1225,0.0244,-0.9609,1.12,-2.8,-0.35,0.05231778930075226,0.7393994239066837,0.6700563209122018,-0.039697199583228655,178.603459254293,7.401173294116783,84.27648067730513,0
1767133194.511,1,left_wrist,-0.0864,0.102,-0.977,1.61,-5.11,-0.28,0.028420992830537006,0.9284758964605447,-0.3647813591099637,-0.06371276876892391,174.27610027450498,5.599639818907255,-43.17808851333839,0
1767133194.511,2,right_wrist,-0.1225,0.0244,-0.9609,1.12,-2.8,-0.35,0.05231778930075226,0.7393994239066837,0.6700563209122018,-0.039697199583228655,178.603459254293,7.401173294116783,84.27648067730513,0
1767133194.568,1,left_wrist,-0.0864,0.102,-0.977,1.61,-5.11,-0.28,0.028420992830537006,0.9284758964605447,-0.3647813591099637,-0.06371276876892391,174.27610027450498,5.599639818907255,-43.17808851333839,0
1767133194.568,2,right_wrist,-0.1225,0.0244,-0.9609,1.12,-2.8,-0.35,0.05231778930075226,0.7393994239066837,0.6700563209122018,-0.039697199583228655,178.603459254293,7.401173294116783,84.27648067730513,0
1767133194.64,1,left_wrist,-0.0864,0.102,-0.977,1.61,-5.11,-0.28,0.028420992830537006,0.9284758964605447,-0.3647813591099637,-0.06371276876892391,174.27610027450498,5.599639818907255,-43.17808851333839,0
1767133194.64,2,right_wrist,-0.1225,0.0244,-0.9609,1.12,-2.8,-0.35,0.05231778930075226,0.7393994239066837,0.6700563209122018,-0.039697199583228655,178.603459254293,7.401173294116783,84.27648067730513,0
1767133194.703,1,left_wrist,-0.0864,0.102,-0.977,1.61,-5.11,-0.28,0.028420992830537006,0.9284758964605447,-0.3647813591099637,-0.06371276876892391,174.27610027450498,5.599639818907255,-43.17808851333839,0
1767133194.703,2,right_wrist,-0.1225,0.0244,-0.9609,1.12,-2.8,-0.35,0.05231778930075226,0.7393994239066837,0.6700563209122018,-0.039697199583228655,178.603459254293,7.401173294116783,84.27648067730513,0
1767133194.754,1,left_wrist,-0.0864,0.102,-0.977,1.61,-5.11,-0.28,0.028420992830537006,0.9284758964605447,-0.3647813591099637,-0.06371276876892391,174.27610027450498,5.599639818907255,-43.17808851333839,0
1767133194.754,2,right_wrist,-0.1225,0.0244,-0.9609,1.12,-2.8,-0.35,0.05231778930075226,0.7393994239066837,0.6700563209122018,-0.039697199583228655,178.603459254293,7.401173294116783,84.27648067730513,0
1767133194.826,1,left_wrist,-0.0864,0.102,-0.977,1.61,-5.11,-0.28,0.028420992830537006,0.9284758964605447,-0.3647813591099637,-0.06371276876892391,174.27610027450498,5.599639818907255,-43.17808851333839,0
1767133194.826,2,right_wrist,-0.1225,0.0244,-0.9609,1.12,-2.8,-0.35,0.05231778930075226,0.7393994239066837,0.6700563209122018,-0.039697199583228655,178.603459254293,7.401173294116783,84.27648067730513,0
1767133194.885,1,left_wrist,-0.0864,0.102,-0.977,1.61,-5.11,-0.28,0.028420992830537006,0.9284758964605447,-0.3647813591099637,-0.06371276876892391,174.27610027450498,5.599639818907255,-43.17808851333839,0
1767133194.885,2,right_wrist,-0.1225,0.0244,-0.9609,1.12,-2.8,-0.35,0.05231778930075226,0.7393994239066837,0.6700563209122018,-0.039697199583228655,178.603459254293,7.401173294116783,84.27648067730513,0
1767133194.936,1,left_wrist,-0.0864,0.102,-0.977,1.61,-5.11,-0.28,0.028420992830537006,0.9284758964605447,-0.3647813591099637,-0.06371276876892391,174.27610027450498,5.599639818907255,-43.17808851333839,0
1767133194.936,2,right_wrist,-0.1225,0.0244,-0.9609,1.12,-2.8,-0.35,0.05231778930075226,0.7393994239066837,0.6700563209122018,-0.039697199583228655,178.603459254293,7.401173294116783,84.27648067730513,0
1767133195.006,1,left_wrist,-0.0864,0.102,-0.977,1.61,-5.11,-0.28,0.028420992830537006,0.9284758964605447,-0.3647813591099637,-0.06371276876892391,174.27610027450498,5.599639818907255,-43.17808851333839,0
1767133195.006,2,right_wrist,-0.1225,0.0244,-0.9609,1.12,-2.8,-0.35,0.05231778930075226,0.7393994239066837,0.6700563209122018,-0.039697199583228655,178.603459254293,7.401173294116783,84.27648067730513,0
1767133195.062,1,left_wrist,-0.0864,0.102,-0.977,1.61,-5.11,-0.28,0.028420992830537006,0.9284758964605447,-0.3647813591099637,-0.06371276876892391,174.27610027450498,5.599639818907255,-43.17808851333839,0
1767133195.062,2,right_wrist,-0.1225,0.0244,-0.9609,1.12,-2.8,-0.35,0.05231778930075226,0.7393994239066837,0.6700563209122018,-0.039697199583228655,178.603459254293,7.401173294116783,84.27648067730513,0
1767133195.12,1,left_wrist,-0.0864,0.102,-0.977,1.61,-5.11,-0.28,0.028420992830537006,0.9284758964605447,-0.3647813591099637,-0.06371276876892391,174.27610027450498,5.599639818907255,-43.17808851333839,0
1767133195.12,2,right_wrist,-0.1225,0.0244,-0.9609,1.12,-2.8,-0.35,0.05231778930075226,0.7393994239066837,0.6700563209122018,-0.039697199583228655,178.603459254293,7.401173294116783,84.27648067730513,0
1767133195.177,1,left_wrist,-0.0864,0.102,-0.977,1.61,-5.11,-0.28,0.028420992830537006,0.9284758964605447,-0.3647813591099637,-0.06371276876892391,174.27610027450498,5.599639818907255,-43.17808851333839,0
1767133195.177,2,right_wrist,-0.1225,0.0244,-0.9609,1.12,-2.8,-0.35,0.05231778930075226,0.7393994239066837,0.6700563209122018,-0.039697199583228655,178.603459254293,7.401173294116783,84.27648067730513,0
1767133195.244,1,left_wrist,-0.0864,0.102,-0.977,1.61,-5.11,-0.28,0.028420992830537006,0.9284758964605447,-0.3647813591099637,-0.06371276876892391,174.27610027450498,5.599639818907255,-43.17808851333839,0
1767133195.244,2,right_wrist,-0.1225,0.0244,-0.9609,1.12,-2.8,-0.35,0.05231778930075226,0.7393994239066837,0.6700563209122018,-0.039697199583228655,178.603459254293,7.401173294116783,84.27648067730513,0
1767133195.3,1,left_wrist,-0.0864,0.102,-0.977,1.61,-5.11,-0.28,0.028420992830537006,0.9284758964605447,-0.3647813591099637,-0.06371276876892391,174.27610027450498,5.599639818907255,-43.17808851333839,0
1767133195.3,2,right_wrist,-0.1225,0.0244,-0.9609,1.12,-2.8,-0.35,0.05231778930075226,0.7393994239066837,0.6700563209122018,-0.039697199583228655,178.603459254293,7.401173294116783,84.27648067730513,0
1767133195.355,1,left_wrist,-0.0864,0.102,-0.977,1.61,-5.11,-0.28,0.028420992830537006,0.9284758964605447,-0.3647813591099637,-0.06371276876892391,174.27610027450498,5.599639818907255,-43.17808851333839,0
1767133195.355,2,right_wrist,-0.1225,0.0244,-0.9609,1.12,-2.8,-0.35,0.05231778930075226,0.7393994239066837,0.6700563209122018,-0.039697199583228655,178.603459254293,7.401173294116783,84.27648067730513,0
1767133195.412,1,left_wrist,-0.0864,0.102,-0.977,1.61,-5.11,-0.28,0.028420992830537006,0.9284758964605447,-0.3647813591099637,-0.06371276876892391,174.27610027450498,5.599639818907255,-43.17808851333839,0
1767133195.412,2,right_wrist,-0.1225,0.0244,-0.9609,1.12,-2.8,-0.35,0.05231778930075226,0.7393994239066837,0.6700563209122018,-0.039697199583228655,178.603459254293,7.401173294116783,84.27648067730513,0
1767133195.476,1,left_wrist,-0.0864,0.102,-0.977,1.61,-5.11,-0.28,0.028420992830537006,0.9284758964605447,-0.3647813591099637,-0.06371276876892391,174.27610027450498,5.599639818907255,-43.17808851333839,0
1767133195.476,2,right_wrist,-0.1225,0.0244,-0.9609,1.12,-2.8,-0.35,0.05231778930075226,0.7393994239066837,0.6700563209122018,-0.039697199583228655,178.603459254293,7.401173294116783,84.27648067730513,0
1767133195.529,1,left_wrist,-0.0864,0.102,-0.977,1.61,-5.11,-0.28,0.028420992830537006,0.9284758964605447,-0.3647813591099637,-0.06371276876892391,174.27610027450498,5.599639818907255,-43.17808851333839,0
1767133195.529,2,right_wrist,-0.1225,0.0244,-0.9609,1.12,-2.8,-0.35,0.05231778930075226,0.7393994239066837,0.6700563209122018,-0.039697199583228655,178.603459254293,7.401173294116783,84.27648067730513,0
1767133195.591,1,left_wrist,-0.0864,0.102,-0.977,1.61,-5.11,-0.28,0.028420992830537006,0.9284758964605447,-0.3647813591099637,-0.06371276876892391,174.27610027450498,5.599639818907255,-43.17808851333839,0
1767133195.591,2,right_wrist,-0.1225,0.0244,-0.9609,1.12,-2.8,-0.35,0.05231778930075226,0.7393994239066837,0.6700563209122018,-0.039697199583228655,178.603459254293,7.401173294116783,84.27648067730513,0
1767133195.642,1,left_wrist,-0.0864,0.102,-0.977,1.61,-5.11,-0.28,0.028420992830537006,0.9284758964605447,-0.3647813591099637,-0.06371276876892391,174.27610027450498,5.599639818907255,-43.17808851333839,0
1767133195.642,2,right_wrist,-0.1225,0.0244,-0.9609,1.12,-2.8,-0.35,0.05231778930075226,0.7393994239066837,0.6700563209122018,-0.039697199583228655,178.603459254293,7.401173294116783,84.27648067730513,0
1767133195.694,1,left_wrist,-0.0864,0.102,-0.977,1.61,-5.11,-0.28,0.028420992830537006,0.9284758964605447,-0.3647813591099637,-0.06371276876892391,174.27610027450498,5.599639818907255,-43.17808851333839,0
1767133195.694,2,right_wrist,-0.1225,0.0244,-0.9609,1.12,-2.8,-0.35,0.05231778930075226,0.7393994239066837,0.6700563209122018,-0.039697199583228655,178.603459254293,7.401173294116783,84.27648067730513,0
1767133195.75,1,left_wrist,-0.0864,0.102,-0.977,1.61,-5.11,-0.28,0.028420992830537006,0.9284758964605447,-0.3647813591099637,-0.06371276876892391,174.27610027450498,5.599639818907255,-43.17808851333839,0
1767133195.75,2,right_wrist,-0.1225,0.0244,-0.9609,1.12,-2.8,-0.35,0.05231778930075226,0.7393994239066837,0.6700563209122018,-0.039697199583228655,178.603459254293,7.401173294116783,84.27648067730513,0
1767133195.818,1,left_wrist,-0.0864,0.102,-0.977,1.61,-5.11,-0.28,0.028420992830537006,0.9284758964605447,-0.3647813591099637,-0.06371276876892391,174.27610027450498,5.599639818907255,-43.17808851333839,0
1767133195.818,2,right_wrist,-0.1225,0.0244,-0.9609,1.12,-2.8,-0.35,0.05231778930075226,0.7393994239066837,0.6700563209122018,-0.039697199583228655,178.603459254293,7.401173294116783,84.27648067730513,0
1767133195.871,1,left_wrist,-0.0864,0.102,-0.977,1.61,-5.11,-0.28,0.028420992830537006,0.9284758964605447,-0.3647813591099637,-0.06371276876892391,174.27610027450498,5.599639818907255,-43.17808851333839,0
1767133195.871,2,right_wrist,-0.1225,0.0244,-0.9609,1.12,-2.8,-0.35,0.05231778930075226,0.7393994239066837,0.6700563209122018,-0.039697199583228655,178.603459254293,7.401173294116783,84.27648067730513,0
1767133195.923,1,left_wrist,-0.0864,0.102,-0.977,1.61,-5.11,-0.28,0.028420992830537006,0.9284758964605447,-0.3647813591099637,-0.06371276876892391,174.27610027450498,5.599639818907255,-43.17808851333839,0
1767133195.923,2,right_wrist,-0.1225,0.0244,-0.9609,1.12,-2.8,-0.35,0.05231778930075226,0.7393994239066837,0.6700563209122018,-0.039697199583228655,178.603459254293,7.401173294116783,84.27648067730513,0
1767133195.946,1,left_wrist,-0.0864,0.102,-0.977,1.61,-5.11,-0.28,0.028420992830537006,0.9284758964605447,-0.3647813591099637,-0.06371276876892391,174.27610027450498,5.599639818907255,-43.17808851333839,0
1767133195.946,2,right_wrist,-0.1225,0.0244,-0.9609,1.12,-2.8,-0.35,0.05231778930075226,0.7393994239066837,0.6700563209122018,-0.039697199583228655,178.603459254293,7.401173294116783,84.27648067730513,0
1767133197.868,1,left_wrist,-0.0864,0.102,-0.977,1.61,-5.11,-0.28,0.028420992830537006,0.9284758964605447,-0.3647813591099637,-0.06371276876892391,174.27610027450498,5.599639818907255,-43.17808851333839,0
1767133197.868,2,right_wrist,-0.1225,0.0244,-0.9609,1.12,-2.8,-0.35,0.05231778930075226,0.7393994239066837,0.6700563209122018,-0.039697199583228655,178.603459254293,7.401173294116783,84.27648067730513,0
1767133200.979,1,left_wrist,-0.0864,0.102,-0.977,1.61,-5.11,-0.28,0.028420992830537006,0.9284758964605447,-0.3647813591099637,-0.06371276876892391,174.27610027450498,5.599639818907255,-43.17808851333839,0
1767133200.979,2,right_wrist,-0.1225,0.0244,-0.9609,1.12,-2.8,-0.35,0.05231778930075226,0.7393994239066837,0.6700563209122018,-0.039697199583228655,178.603459254293,7.401173294116783,84.27648067730513,0
1767133203.409,1,left_wrist,-0.0864,0.102,-0.977,1.61,-5.11,-0.28,0.028420992830537006,0.9284758964605447,-0.3647813591099637,-0.06371276876892391,174.27610027450498,5.599639818907255,-43.17808851333839,0
1767133203.409,2,right_wrist,-0.1225,0.0244,-0.9609,1.12,-2.8,-0.35,0.05231778930075226,0.7393994239066837,0.6700563209122018,-0.039697199583228655,178.603459254293,7.401173294116783,84.27648067730513,0
1767133219.179,1,left_wrist,-0.0864,0.102,-0.977,1.61,-5.11,-0.28,0.028420992830537006,0.9284758964605447,-0.3647813591099637,-0.06371276876892391,174.27610027450498,5.599639818907255,-43.17808851333839,0
1767133219.179,2,right_wrist,-0.1225,0.0244,-0.9609,1.12,-2.8,-0.35,0.05231778930075226,0.7393994239066837,0.6700563209122018,-0.039697199583228655,178.603459254293,7.401173294116783,84.27648067730513,0
1767133219.252,1,left_wrist,-0.0864,0.102,-0.977,1.61,-5.11,-0.28,0.028420992830537006,0.9284758964605447,-0.3647813591099637,-0.06371276876892391,174.27610027450498,5.599639818907255,-43.17808851333839,0
1767133219.252,2,right_wrist,-0.1225,0.0244,-0.9609,1.12,-2.8,-0.35,0.05231778930075226,0.7393994239066837,0.6700563209122018,-0.039697199583228655,178.603459254293,7.401173294116783,84.27648067730513,0
1767133219.309,1,left_wrist,-0.0864,0.102,-0.977,1.61,-5.11,-0.28,0.028420992830537006,0.9284758964605447,-0.3647813591099637,-0.06371276876892391,174.27610027450498,5.599639818907255,-43.17808851333839,0
1767133219.309,2,right_wrist,-0.1225,0.0244,-0.9609,1.12,-2.8,-0.35,0.05231778930075226,0.7393994239066837,0.6700563209122018,-0.039697199583228655,178.603459254293,7.401173294116783,84.27648067730513,0
1767133219.361,1,left_wrist,-0.0864,0.102,-0.977,1.61,-5.11,-0.28,0.028420992830537006,0.9284758964605447,-0.3647813591099637,-0.06371276876892391,174.27610027450498,5.599639818907255,-43.17808851333839,0
1767133219.361,2,right_wrist,-0.1225,0.0244,-0.9609,1.12,-2.8,-0.35,0.05231778930075226,0.7393994239066837,0.6700563209122018,-0.039697199583228655,178.603459254293,7.401173294116783,84.27648067730513,0
1767133219.414,1,left_wrist,-0.0864,0.102,-0.977,1.61,-5.11,-0.28,0.028420992830537006,0.9284758964605447,-0.3647813591099637,-0.06371276876892391,174.27610027450498,5.599639818907255,-43.17808851333839,0
1767133219.414,2,right_wrist,-0.1225,0.0244,-0.9609,1.12,-2.8,-0.35,0.05231778930075226,0.7393994239066837,0.6700563209122018,-0.039697199583228655,178.603459254293,7.401173294116783,84.27648067730513,0
1767133219.475,1,left_wrist,-0.0864,0.102,-0.977,1.61,-5.11,-0.28,0.028420992830537006,0.9284758964605447,-0.3647813591099637,-0.06371276876892391,174.27610027450498,5.599639818907255,-43.17808851333839,0
1767133219.475,2,right_wrist,-0.1225,0.0244,-0.9609,1.12,-2.8,-0.35,0.05231778930075226,0.7393994239066837,0.6700563209122018,-0.039697199583228655,178.603459254293,7.401173294116783,84.27648067730513,0
1767133219.542,1,left_wrist,-0.0864,0.102,-0.977,1.61,-5.11,-0.28,0.028420992830537006,0.9284758964605447,-0.3647813591099637,-0.06371276876892391,174.27610027450498,5.599639818907255,-43.17808851333839,0
1767133219.542,2,right_wrist,-0.1225,0.0244,-0.9609,1.12,-2.8,-0.35,0.05231778930075226,0.7393994239066837,0.6700563209122018,-0.039697199583228655,178.603459254293,7.401173294116783,84.27648067730513,0
1767133219.593,1,left_wrist,-0.0864,0.102,-0.977,1.61,-5.11,-0.28,0.028420992830537006,0.9284758964605447,-0.3647813591099637,-0.06371276876892391,174.27610027450498,5.599639818907255,-43.17808851333839,0
1767133219.593,2,right_wrist,-0.1225,0.0244,-0.9609,1.12,-2.8,-0.35,0.05231778930075226,0.7393994239066837,0.6700563209122018,-0.039697199583228655,178.603459254293,7.401173294116783,84.27648067730513,0
1767133219.646,1,left_wrist,-0.0864,0.102,-0.977,1.61,-5.11,-0.28,0.028420992830537006,0.9284758964605447,-0.3647813591099637,-0.06371276876892391,174.27610027450498,5.599639818907255,-43.17808851333839,0
1767133219.646,2,right_wrist,-0.1225,0.0244,-0.9609,1.12,-2.8,-0.35,0.05231778930075226,0.7393994239066837,0.6700563209122018,-0.039697199583228655,178.603459254293,7.401173294116783,84.27648067730513,0
1767133219.709,1,left_wrist,-0.0864,0.102,-0.977,1.61,-5.11,-0.28,0.028420992830537006,0.9284758964605447,-0.3647813591099637,-0.06371276876892391,174.27610027450498,5.599639818907255,-43.17808851333839,0
1767133219.709,2,right_wrist,-0.1225,0.0244,-0.9609,1.12,-2.8,-0.35,0.05231778930075226,0.7393994239066837,0.6700563209122018,-0.039697199583228655,178.603459254293,7.401173294116783,84.27648067730513,0
1767133219.768,1,left_wrist,-0.0864,0.102,-0.977,1.61,-5.11,-0.28,0.028420992830537006,0.9284758964605447,-0.3647813591099637,-0.06371276876892391,174.27610027450498,5.599639818907255,-43.17808851333839,0
1767133219.768,2,right_wrist,-0.1225,0.0244,-0.9609,1.12,-2.8,-0.35,0.05231778930075226,0.7393994239066837,0.6700563209122018,-0.039697199583228655,178.603459254293,7.401173294116783,84.27648067730513,0
1767133219.827,1,left_wrist,-0.0864,0.102,-0.977,1.61,-5.11,-0.28,0.028420992830537006,0.9284758964605447,-0.3647813591099637,-0.06371276876892391,174.27610027450498,5.599639818907255,-43.17808851333839,0
1767133219.827,2,right_wrist,-0.1225,0.0244,-0.9609,1.12,-2.8,-0.35,0.05231778930075226,0.7393994239066837,0.6700563209122018,-0.039697199583228655,178.603459254293,7.401173294116783,84.27648067730513,0
1767133219.886,1,left_wrist,-0.0864,0.102,-0.977,1.61,-5.11,-0.28,0.028420992830537006,0.9284758964605447,-0.3647813591099637,-0.06371276876892391,174.27610027450498,5.599639818907255,-43.17808851333839,0
1767133219.886,2,right_wrist,-0.1225,0.0244,-0.9609,1.12,-2.8,-0.35,0.05231778930075226,0.7393994239066837,0.6700563209122018,-0.039697199583228655,178.603459254293,7.401173294116783,84.27648067730513,0
1767133219.957,1,left_wrist,-0.0864,0.102,-0.977,1.61,-5.11,-0.28,0.028420992830537006,0.9284758964605447,-0.3647813591099637,-0.06371276876892391,174.27610027450498,5.599639818907255,-43.17808851333839,0
1767133219.957,2,right_wrist,-0.1225,0.0244,-0.9609,1.12,-2.8,-0.35,0.05231778930075226,0.7393994239066837,0.6700563209122018,-0.039697199583228655,178.603459254293,7.401173294116783,84.27648067730513,0
1767133220.008,1,left_wrist,-0.0864,0.102,-0.977,1.61,-5.11,-0.28,0.028420992830537006,0.9284758964605447,-0.3647813591099637,-0.06371276876892391,174.27610027450498,5.599639818907255,-43.17808851333839,0
1767133220.008,2,right_wrist,-0.1225,0.0244,-0.9609,1.12,-2.8,-0.35,0.05231778930075226,0.7393994239066837,0.6700563209122018,-0.039697199583228655,178.603459254293,7.401173294116783,84.27648067730513,0
1767133220.083,1,left_wrist,-0.0864,0.102,-0.977,1.61,-5.11,-0.28,0.028420992830537006,0.9284758964605447,-0.3647813591099637,-0.06371276876892391,174.27610027450498,5.599639818907255,-43.17808851333839,0
1767133220.083,2,right_wrist,-0.1225,0.0244,-0.9609,1.12,-2.8,-0.35,0.05231778930075226,0.7393994239066837,0.6700563209122018,-0.039697199583228655,178.603459254293,7.401173294116783,84.27648067730513,0
1767133220.134,1,left_wrist,-0.0864,0.102,-0.977,1.61,-5.11,-0.28,0.028420992830537006,0.9284758964605447,-0.3647813591099637,-0.06371276876892391,174.27610027450498,5.599639818907255,-43.17808851333839,0
1767133220.134,2,right_wrist,-0.1225,0.0244,-0.9609,1.12,-2.8,-0.35,0.05231778930075226,0.7393994239066837,0.6700563209122018,-0.039697199583228655,178.603459254293,7.401173294116783,84.27648067730513,0
1767133220.202,1,left_wrist,-0.0864,0.102,-0.977,1.61,-5.11,-0.28,0.028420992830537006,0.9284758964605447,-0.3647813591099637,-0.06371276876892391,174.27610027450498,5.599639818907255,-43.17808851333839,0
1767133220.202,2,right_wrist,-0.1225,0.0244,-0.9609,1.12,-2.8,-0.35,0.05231778930075226,0.7393994239066837,0.6700563209122018,-0.039697199583228655,178.603459254293,7.401173294116783,84.27648067730513,0
1767133220.268,1,left_wrist,-0.0864,0.102,-0.977,1.61,-5.11,-0.28,0.028420992830537006,0.9284758964605447,-0.3647813591099637,-0.06371276876892391,174.27610027450498,5.599639818907255,-43.17808851333839,0
1767133220.268,2,right_wrist,-0.1225,0.0244,-0.9609,1.12,-2.8,-0.35,0.05231778930075226,0.7393994239066837,0.6700563209122018,-0.039697199583228655,178.603459254293,7.401173294116783,84.27648067730513,0
1767133220.335,1,left_wrist,-0.0864,0.102,-0.977,1.61,-5.11,-0.28,0.028420992830537006,0.9284758964605447,-0.3647813591099637,-0.06371276876892391,174.27610027450498,5.599639818907255,-43.17808851333839,0
1767133220.335,2,right_wrist,-0.1225,0.0244,-0.9609,1.12,-2.8,-0.35,0.05231778930075226,0.7393994239066837,0.6700563209122018,-0.039697199583228655,178.603459254293,7.401173294116783,84.27648067730513,0
1767133220.402,1,left_wrist,-0.0864,0.102,-0.977,1.61,-5.11,-0.28,0.028420992830537006,0.9284758964605447,-0.3647813591099637,-0.06371276876892391,174.27610027450498,5.599639818907255,-43.17808851333839,0
1767133220.402,2,right_wrist,-0.1225,0.0244,-0.9609,1.12,-2.8,-0.35,0.05231778930075226,0.7393994239066837,0.6700563209122018,-0.039697199583228655,178.603459254293,7.401173294116783,84.27648067730513,0
1767133220.472,1,left_wrist,-0.0864,0.102,-0.977,1.61,-5.11,-0.28,0.028420992830537006,0.9284758964605447,-0.3647813591099637,-0.06371276876892391,174.27610027450498,5.599639818907255,-43.17808851333839,0
1767133220.472,2,right_wrist,-0.1225,0.0244,-0.9609,1.12,-2.8,-0.35,0.05231778930075226,0.7393994239066837,0.6700563209122018,-0.039697199583228655,178.603459254293,7.401173294116783,84.27648067730513,0
1767133220.531,1,left_wrist,-0.0864,0.102,-0.977,1.61,-5.11,-0.28,0.028420992830537006,0.9284758964605447,-0.3647813591099637,-0.06371276876892391,174.27610027450498,5.599639818907255,-43.17808851333839,0
1767133220.531,2,right_wrist,-0.1225,0.0244,-0.9609,1.12,-2.8,-0.35,0.05231778930075226,0.7393994239066837,0.6700563209122018,-0.039697199583228655,178.603459254293,7.401173294116783,84.27648067730513,0
1767133220.595,1,left_wrist,-0.0864,0.102,-0.977,1.61,-5.11,-0.28,0.028420992830537006,0.9284758964605447,-0.3647813591099637,-0.06371276876892391,174.27610027450498,5.599639818907255,-43.17808851333839,0
1767133220.595,2,right_wrist,-0.1225,0.0244,-0.9609,1.12,-2.8,-0.35,0.05231778930075226,0.7393994239066837,0.6700563209122018,-0.039697199583228655,178.603459254293,7.401173294116783,84.27648067730513,0
1767133220.646,1,left_wrist,-0.0864,0.102,-0.977,1.61,-5.11,-0.28,0.028420992830537006,0.9284758964605447,-0.3647813591099637,-0.06371276876892391,174.27610027450498,5.599639818907255,-43.17808851333839,0
1767133220.646,2,right_wrist,-0.1225,0.0244,-0.9609,1.12,-2.8,-0.35,0.05231778930075226,0.7393994239066837,0.6700563209122018,-0.039697199583228655,178.603459254293,7.401173294116783,84.27648067730513,0
1767133220.702,1,left_wrist,-0.0864,0.102,-0.977,1.61,-5.11,-0.28,0.028420992830537006,0.9284758964605447,-0.3647813591099637,-0.06371276876892391,174.27610027450498,5.599639818907255,-43.17808851333839,0
1767133220.702,2,right_wrist,-0.1225,0.0244,-0.9609,1.12,-2.8,-0.35,0.05231778930075226,0.7393994239066837,0.6700563209122018,-0.039697199583228655,178.603459254293,7.401173294116783,84.27648067730513,0
1767133220.759,1,left_wrist,-0.0864,0.102,-0.977,1.61,-5.11,-0.28,0.028420992830537006,0.9284758964605447,-0.3647813591099637,-0.06371276876892391,174.27610027450498,5.599639818907255,-43.17808851333839,0
1767133220.759,2,right_wrist,-0.1225,0.0244,-0.9609,1.12,-2.8,-0.35,0.05231778930075226,0.7393994239066837,0.6700563209122018,-0.039697199583228655,178.603459254293,7.401173294116783,84.27648067730513,0
1767133220.81,1,left_wrist,-0.0864,0.102,-0.977,1.61,-5.11,-0.28,0.028420992830537006,0.9284758964605447,-0.3647813591099637,-0.06371276876892391,174.27610027450498,5.599639818907255,-43.17808851333839,0
1767133220.81,2,right_wrist,-0.1225,0.0244,-0.9609,1.12,-2.8,-0.35,0.05231778930075226,0.7393994239066837,0.6700563209122018,-0.039697199583228655,178.603459254293,7.401173294116783,84.27648067730513,0
1767133220.871,1,left_wrist,-0.0864,0.102,-0.977,1.61,-5.11,-0.28,0.028420992830537006,0.9284758964605447,-0.3647813591099637,-0.06371276876892391,174.27610027450498,5.599639818907255,-43.17808851333839,0
1767133220.871,2,right_wrist,-0.1225,0.0244,-0.9609,1.12,-2.8,-0.35,0.05231778930075226,0.7393994239066837,0.6700563209122018,-0.039697199583228655,178.603459254293,7.401173294116783,84.27648067730513,0
1767133220.931,1,left_wrist,-0.0864,0.102,-0.977,1.61,-5.11,-0.28,0.028420992830537006,0.9284758964605447,-0.3647813591099637,-0.06371276876892391,174.27610027450498,5.599639818907255,-43.17808851333839,0
1767133220.931,2,right_wrist,-0.1225,0.0244,-0.9609,1.12,-2.8,-0.35,0.05231778930075226,0.7393994239066837,0.6700563209122018,-0.039697199583228655,178.603459254293,7.401173294116783,84.27648067730513,0
1767133220.985,1,left_wrist,-0.0864,0.102,-0.977,1.61,-5.11,-0.28,0.028420992830537006,0.9284758964605447,-0.3647813591099637,-0.06371276876892391,174.27610027450498,5.599639818907255,-43.17808851333839,0
1767133220.985,2,right_wrist,-0.1225,0.0244,-0.9609,1.12,-2.8,-0.35,0.05231778930075226,0.7393994239066837,0.6700563209122018,-0.039697199583228655,178.603459254293,7.401173294116783,84.27648067730513,0
1767133221.05,1,left_wrist,-0.0864,0.102,-0.977,1.61,-5.11,-0.28,0.028420992830537006,0.9284758964605447,-0.3647813591099637,-0.06371276876892391,174.27610027450498,5.599639818907255,-43.17808851333839,0
1767133221.05,2,right_wrist,-0.1225,0.0244,-0.9609,1.12,-2.8,-0.35,0.05231778930075226,0.7393994239066837,0.6700563209122018,-0.039697199583228655,178.603459254293,7.401173294116783,84.27648067730513,0
1767133221.101,1,left_wrist,-0.0864,0.102,-0.977,1.61,-5.11,-0.28,0.028420992830537006,0.9284758964605447,-0.3647813591099637,-0.06371276876892391,174.27610027450498,5.599639818907255,-43.17808851333839,0
1767133221.101,2,right_wrist,-0.1225,0.0244,-0.9609,1.12,-2.8,-0.35,0.05231778930075226,0.7393994239066837,0.6700563209122018,-0.039697199583228655,178.603459254293,7.401173294116783,84.27648067730513,0
1767133223.442,1,left_wrist,-0.0864,0.102,-0.977,1.61,-5.11,-0.28,0.028420992830537006,0.9284758964605447,-0.3647813591099637,-0.06371276876892391,174.27610027450498,5.599639818907255,-43.17808851333839,0
1767133223.442,2,right_wrist,-0.1225,0.0244,-0.9609,1.12,-2.8,-0.35,0.05231778930075226,0.7393994239066837,0.6700563209122018,-0.039697199583228655,178.603459254293,7.401173294116783,84.27648067730513,0
1767133225.676,1,left_wrist,-0.0864,0.102,-0.977,1.61,-5.11,-0.28,0.028420992830537006,0.9284758964605447,-0.3647813591099637,-0.06371276876892391,174.27610027450498,5.599639818907255,-43.17808851333839,0
1767133225.676,2,right_wrist,-0.1225,0.0244,-0.9609,1.12,-2.8,-0.35,0.05231778930075226,0.7393994239066837,0.6700563209122018,-0.039697199583228655,178.603459254293,7.401173294116783,84.27648067730513,0
1767133229.066,1,left_wrist,-0.0864,0.102,-0.977,1.61,-5.11,-0.28,0.028420992830537006,0.9284758964605447,-0.3647813591099637,-0.06371276876892391,174.27610027450498,5.599639818907255,-43.17808851333839,0
1767133229.066,2,right_wrist,-0.1225,0.0244,-0.9609,1.12,-2.8,-0.35,0.05231778930075226,0.7393994239066837,0.6700563209122018,-0.039697199583228655,178.603459254293,7.401173294116783,84.27648067730513,0
1767133242.876,1,left_wrist,-0.0864,0.102,-0.977,1.61,-5.11,-0.28,0.028420992830537006,0.9284758964605447,-0.3647813591099637,-0.06371276876892391,174.27610027450498,5.599639818907255,-43.17808851333839,0
1767133242.876,2,right_wrist,-0.1225,0.0244,-0.9609,1.12,-2.8,-0.35,0.05231778930075226,0.7393994239066837,0.6700563209122018,-0.039697199583228655,178.603459254293,7.401173294116783,84.27648067730513,0
1767133242.932,1,left_wrist,-0.0864,0.102,-0.977,1.61,-5.11,-0.28,0.028420992830537006,0.9284758964605447,-0.3647813591099637,-0.06371276876892391,174.27610027450498,5.599639818907255,-43.17808851333839,0
1767133242.932,2,right_wrist,-0.1225,0.0244,-0.9609,1.12,-2.8,-0.35,0.05231778930075226,0.7393994239066837,0.6700563209122018,-0.039697199583228655,178.603459254293,7.401173294116783,84.27648067730513,0
1767133242.984,1,left_wrist,-0.0864,0.102,-0.977,1.61,-5.11,-0.28,0.028420992830537006,0.9284758964605447,-0.3647813591099637,-0.06371276876892391,174.27610027450498,5.599639818907255,-43.17808851333839,0
1767133242.984,2,right_wrist,-0.1225,0.0244,-0.9609,1.12,-2.8,-0.35,0.05231778930075226,0.7393994239066837,0.6700563209122018,-0.039697199583228655,178.603459254293,7.401173294116783,84.27648067730513,0
1767133243.044,1,left_wrist,-0.0864,0.102,-0.977,1.61,-5.11,-0.28,0.028420992830537006,0.9284758964605447,-0.3647813591099637,-0.06371276876892391,174.27610027450498,5.599639818907255,-43.17808851333839,0
1767133243.044,2,right_wrist,-0.1225,0.0244,-0.9609,1.12,-2.8,-0.35,0.05231778930075226,0.7393994239066837,0.6700563209122018,-0.039697199583228655,178.603459254293,7.401173294116783,84.27648067730513,0
1767133243.106,1,left_wrist,-0.0864,0.102,-0.977,1.61,-5.11,-0.28,0.028420992830537006,0.9284758964605447,-0.3647813591099637,-0.06371276876892391,174.27610027450498,5.599639818907255,-43.17808851333839,0
1767133243.106,2,right_wrist,-0.1225,0.0244,-0.9609,1.12,-2.8,-0.35,0.05231778930075226,0.7393994239066837,0.6700563209122018,-0.039697199583228655,178.603459254293,7.401173294116783,84.27648067730513,0
1767133243.156,1,left_wrist,-0.0864,0.102,-0.977,1.61,-5.11,-0.28,0.028420992830537006,0.9284758964605447,-0.3647813591099637,-0.06371276876892391,174.27610027450498,5.599639818907255,-43.17808851333839,0
1767133243.156,2,right_wrist,-0.1225,0.0244,-0.9609,1.12,-2.8,-0.35,0.05231778930075226,0.7393994239066837,0.6700563209122018,-0.039697199583228655,178.603459254293,7.401173294116783,84.27648067730513,0
1767133243.209,1,left_wrist,-0.0864,0.102,-0.977,1.61,-5.11,-0.28,0.028420992830537006,0.9284758964605447,-0.3647813591099637,-0.06371276876892391,174.27610027450498,5.599639818907255,-43.17808851333839,0
1767133243.209,2,right_wrist,-0.1225,0.0244,-0.9609,1.12,-2.8,-0.35,0.05231778930075226,0.7393994239066837,0.6700563209122018,-0.039697199583228655,178.603459254293,7.401173294116783,84.27648067730513,0
1767133243.269,1,left_wrist,-0.0864,0.102,-0.977,1.61,-5.11,-0.28,0.028420992830537006,0.9284758964605447,-0.3647813591099637,-0.06371276876892391,174.27610027450498,5.599639818907255,-43.17808851333839,0
1767133243.269,2,right_wrist,-0.1225,0.0244,-0.9609,1.12,-2.8,-0.35,0.05231778930075226,0.7393994239066837,0.6700563209122018,-0.039697199583228655,178.603459254293,7.401173294116783,84.27648067730513,0
1767133243.336,1,left_wrist,-0.0864,0.102,-0.977,1.61,-5.11,-0.28,0.028420992830537006,0.9284758964605447,-0.3647813591099637,-0.06371276876892391,174.27610027450498,5.599639818907255,-43.17808851333839,0
1767133243.336,2,right_wrist,-0.1225,0.0244,-0.9609,1.12,-2.8,-0.35,0.05231778930075226,0.7393994239066837,0.6700563209122018,-0.039697199583228655,178.603459254293,7.401173294116783,84.27648067730513,0
1767133243.392,1,left_wrist,-0.0864,0.102,-0.977,1.61,-5.11,-0.28,0.028420992830537006,0.9284758964605447,-0.3647813591099637,-0.06371276876892391,174.27610027450498,5.599639818907255,-43.17808851333839,0
1767133243.392,2,right_wrist,-0.1225,0.0244,-0.9609,1.12,-2.8,-0.35,0.05231778930075226,0.7393994239066837,0.6700563209122018,-0.039697199583228655,178.603459254293,7.401173294116783,84.27648067730513,0
1767133243.444,1,left_wrist,-0.0864,0.102,-0.977,1.61,-5.11,-0.28,0.028420992830537006,0.9284758964605447,-0.3647813591099637,-0.06371276876892391,174.27610027450498,5.599639818907255,-43.17808851333839,0
1767133243.444,2,right_wrist,-0.1225,0.0244,-0.9609,1.12,-2.8,-0.35,0.05231778930075226,0.7393994239066837,0.6700563209122018,-0.039697199583228655,178.603459254293,7.401173294116783,84.27648067730513,0
1767133243.496,1,left_wrist,-0.0864,0.102,-0.977,1.61,-5.11,-0.28,0.028420992830537006,0.9284758964605447,-0.3647813591099637,-0.06371276876892391,174.27610027450498,5.599639818907255,-43.17808851333839,0
1767133243.496,2,right_wrist,-0.1225,0.0244,-0.9609,1.12,-2.8,-0.35,0.05231778930075226,0.7393994239066837,0.6700563209122018,-0.039697199583228655,178.603459254293,7.401173294116783,84.27648067730513,0
1767133243.551,1,left_wrist,-0.0864,0.102,-0.977,1.61,-5.11,-0.28,0.028420992830537006,0.9284758964605447,-0.3647813591099637,-0.06371276876892391,174.27610027450498,5.599639818907255,-43.17808851333839,0
1767133243.551,2,right_wrist,-0.1225,0.0244,-0.9609,1.12,-2.8,-0.35,0.05231778930075226,0.7393994239066837,0.6700563209122018,-0.039697199583228655,178.603459254293,7.401173294116783,84.27648067730513,0
1767133243.61,1,left_wrist,-0.0864,0.102,-0.977,1.61,-5.11,-0.28,0.028420992830537006,0.9284758964605447,-0.3647813591099637,-0.06371276876892391,174.27610027450498,5.599639818907255,-43.17808851333839,0
1767133243.61,2,right_wrist,-0.1225,0.0244,-0.9609,1.12,-2.8,-0.35,0.05231778930075226,0.7393994239066837,0.6700563209122018,-0.039697199583228655,178.603459254293,7.401173294116783,84.27648067730513,0
1767133243.663,1,left_wrist,-0.0864,0.102,-0.977,1.61,-5.11,-0.28,0.028420992830537006,0.9284758964605447,-0.3647813591099637,-0.06371276876892391,174.27610027450498,5.599639818907255,-43.17808851333839,0
1767133243.663,2,right_wrist,-0.1225,0.0244,-0.9609,1.12,-2.8,-0.35,0.05231778930075226,0.7393994239066837,0.6700563209122018,-0.039697199583228655,178.603459254293,7.401173294116783,84.27648067730513,0
1767133243.719,1,left_wrist,-0.0864,0.102,-0.977,1.61,-5.11,-0.28,0.028420992830537006,0.9284758964605447,-0.3647813591099637,-0.06371276876892391,174.27610027450498,5.599639818907255,-43.17808851333839,0
1767133243.719,2,right_wrist,-0.1225,0.0244,-0.9609,1.12,-2.8,-0.35,0.05231778930075226,0.7393994239066837,0.6700563209122018,-0.039697199583228655,178.603459254293,7.401173294116783,84.27648067730513,0
1767133243.781,1,left_wrist,-0.0864,0.102,-0.977,1.61,-5.11,-0.28,0.028420992830537006,0.9284758964605447,-0.3647813591099637,-0.06371276876892391,174.27610027450498,5.599639818907255,-43.17808851333839,0
1767133243.781,2,right_wrist,-0.1225,0.0244,-0.9609,1.12,-2.8,-0.35,0.05231778930075226,0.7393994239066837,0.6700563209122018,-0.039697199583228655,178.603459254293,7.401173294116783,84.27648067730513,0
1767133243.844,1,left_wrist,-0.0864,0.102,-0.977,1.61,-5.11,-0.28,0.028420992830537006,0.9284758964605447,-0.3647813591099637,-0.06371276876892391,174.27610027450498,5.599639818907255,-43.17808851333839,0
1767133243.844,2,right_wrist,-0.1225,0.0244,-0.9609,1.12,-2.8,-0.35,0.05231778930075226,0.7393994239066837,0.6700563209122018,-0.039697199583228655,178.603459254293,7.401173294116783,84.27648067730513,0
1767133243.896,1,left_wrist,-0.0864,0.102,-0.977,1.61,-5.11,-0.28,0.028420992830537006,0.9284758964605447,-0.3647813591099637,-0.06371276876892391,174.27610027450498,5.599639818907255,-43.17808851333839,0
1767133243.896,2,right_wrist,-0.1225,0.0244,-0.9609,1.12,-2.8,-0.35,0.05231778930075226,0.7393994239066837,0.6700563209122018,-0.039697199583228655,178.603459254293,7.401173294116783,84.27648067730513,0
1767133243.951,1,left_wrist,-0.0864,0.102,-0.977,1.61,-5.11,-0.28,0.028420992830537006,0.9284758964605447,-0.3647813591099637,-0.06371276876892391,174.27610027450498,5.599639818907255,-43.17808851333839,0
1767133243.951,2,right_wrist,-0.1225,0.0244,-0.9609,1.12,-2.8,-0.35,0.05231778930075226,0.7393994239066837,0.6700563209122018,-0.039697199583228655,178.603459254293,7.401173294116783,84.27648067730513,0
1767133244.009,1,left_wrist,-0.0864,0.102,-0.977,1.61,-5.11,-0.28,0.028420992830537006,0.9284758964605447,-0.3647813591099637,-0.06371276876892391,174.27610027450498,5.599639818907255,-43.17808851333839,0
1767133244.009,2,right_wrist,-0.1225,0.0244,-0.9609,1.12,-2.8,-0.35,0.05231778930075226,0.7393994239066837,0.6700563209122018,-0.039697199583228655,178.603459254293,7.401173294116783,84.27648067730513,0
1767133244.066,1,left_wrist,-0.0864,0.102,-0.977,1.61,-5.11,-0.28,0.028420992830537006,0.9284758964605447,-0.3647813591099637,-0.06371276876892391,174.27610027450498,5.599639818907255,-43.17808851333839,0
1767133244.066,2,right_wrist,-0.1225,0.0244,-0.9609,1.12,-2.8,-0.35,0.05231778930075226,0.7393994239066837,0.6700563209122018,-0.039697199583228655,178.603459254293,7.401173294116783,84.27648067730513,0
1767133244.14,1,left_wrist,-0.0864,0.102,-0.977,1.61,-5.11,-0.28,0.028420992830537006,0.9284758964605447,-0.3647813591099637,-0.06371276876892391,174.27610027450498,5.599639818907255,-43.17808851333839,0
1767133244.14,2,right_wrist,-0.1225,0.0244,-0.9609,1.12,-2.8,-0.35,0.05231778930075226,0.7393994239066837,0.6700563209122018,-0.039697199583228655,178.603459254293,7.401173294116783,84.27648067730513,0
1767133244.192,1,left_wrist,-0.0864,0.102,-0.977,1.61,-5.11,-0.28,0.028420992830537006,0.9284758964605447,-0.3647813591099637,-0.06371276876892391,174.27610027450498,5.599639818907255,-43.17808851333839,0
1767133244.192,2,right_wrist,-0.1225,0.0244,-0.9609,1.12,-2.8,-0.35,0.05231778930075226,0.7393994239066837,0.6700563209122018,-0.039697199583228655,178.603459254293,7.401173294116783,84.27648067730513,0
1767133244.252,1,left_wrist,-0.0864,0.102,-0.977,1.61,-5.11,-0.28,0.028420992830537006,0.9284758964605447,-0.3647813591099637,-0.06371276876892391,174.27610027450498,5.599639818907255,-43.17808851333839,0
1767133244.252,2,right_wrist,-0.1225,0.0244,-0.9609,1.12,-2.8,-0.35,0.05231778930075226,0.7393994239066837,0.6700563209122018,-0.039697199583228655,178.603459254293,7.401173294116783,84.27648067730513,0
1767133244.32,1,left_wrist,-0.0864,0.102,-0.977,1.61,-5.11,-0.28,0.028420992830537006,0.9284758964605447,-0.3647813591099637,-0.06371276876892391,174.27610027450498,5.599639818907255,-43.17808851333839,0
1767133244.32,2,right_wrist,-0.1225,0.0244,-0.9609,1.12,-2.8,-0.35,0.05231778930075226,0.7393994239066837,0.6700563209122018,-0.039697199583228655,178.603459254293,7.401173294116783,84.27648067730513,0
1767133244.377,1,left_wrist,-0.0864,0.102,-0.977,1.61,-5.11,-0.28,0.028420992830537006,0.9284758964605447,-0.3647813591099637,-0.06371276876892391,174.27610027450498,5.599639818907255,-43.17808851333839,0
1767133244.377,2,right_wrist,-0.1225,0.0244,-0.9609,1.12,-2.8,-0.35,0.05231778930075226,0.7393994239066837,0.6700563209122018,-0.039697199583228655,178.603459254293,7.401173294116783,84.27648067730513,0
1767133244.445,1,left_wrist,-0.0864,0.102,-0.977,1.61,-5.11,-0.28,0.028420992830537006,0.9284758964605447,-0.3647813591099637,-0.06371276876892391,174.27610027450498,5.599639818907255,-43.17808851333839,0
1767133244.445,2,right_wrist,-0.1225,0.0244,-0.9609,1.12,-2.8,-0.35,0.05231778930075226,0.7393994239066837,0.6700563209122018,-0.039697199583228655,178.603459254293,7.401173294116783,84.27648067730513,0
1767133244.498,1,left_wrist,-0.0864,0.102,-0.977,1.61,-5.11,-0.28,0.028420992830537006,0.9284758964605447,-0.3647813591099637,-0.06371276876892391,174.27610027450498,5.599639818907255,-43.17808851333839,0
1767133244.498,2,right_wrist,-0.1225,0.0244,-0.9609,1.12,-2.8,-0.35,0.05231778930075226,0.7393994239066837,0.6700563209122018,-0.039697199583228655,178.603459254293,7.401173294116783,84.27648067730513,0
1767133244.561,1,left_wrist,-0.0864,0.102,-0.977,1.61,-5.11,-0.28,0.028420992830537006,0.9284758964605447,-0.3647813591099637,-0.06371276876892391,174.27610027450498,5.599639818907255,-43.17808851333839,0
1767133244.561,2,right_wrist,-0.1225,0.0244,-0.9609,1.12,-2.8,-0.35,0.05231778930075226,0.7393994239066837,0.6700563209122018,-0.039697199583228655,178.603459254293,7.401173294116783,84.27648067730513,0
1767133244.618,1,left_wrist,-0.0864,0.102,-0.977,1.61,-5.11,-0.28,0.028420992830537006,0.9284758964605447,-0.3647813591099637,-0.06371276876892391,174.27610027450498,5.599639818907255,-43.17808851333839,0
1767133244.618,2,right_wrist,-0.1225,0.0244,-0.9609,1.12,-2.8,-0.35,0.05231778930075226,0.7393994239066837,0.6700563209122018,-0.039697199583228655,178.603459254293,7.401173294116783,84.27648067730513,0
1767133244.677,1,left_wrist,-0.0864,0.102,-0.977,1.61,-5.11,-0.28,0.028420992830537006,0.9284758964605447,-0.3647813591099637,-0.06371276876892391,174.27610027450498,5.599639818907255,-43.17808851333839,0
1767133244.677,2,right_wrist,-0.1225,0.0244,-0.9609,1.12,-2.8,-0.35,0.05231778930075226,0.7393994239066837,0.6700563209122018,-0.039697199583228655,178.603459254293,7.401173294116783,84.27648067730513,0
1767133244.731,1,left_wrist,-0.0864,0.102,-0.977,1.61,-5.11,-0.28,0.028420992830537006,0.9284758964605447,-0.3647813591099637,-0.06371276876892391,174.27610027450498,5.599639818907255,-43.17808851333839,0
1767133244.731,2,right_wrist,-0.1225,0.0244,-0.9609,1.12,-2.8,-0.35,0.05231778930075226,0.7393994239066837,0.6700563209122018,-0.039697199583228655,178.603459254293,7.401173294116783,84.27648067730513,0
1767133244.788,1,left_wrist,-0.0864,0.102,-0.977,1.61,-5.11,-0.28,0.028420992830537006,0.9284758964605447,-0.3647813591099637,-0.06371276876892391,174.27610027450498,5.599639818907255,-43.17808851333839,0
1767133244.788,2,right_wrist,-0.1225,0.0244,-0.9609,1.12,-2.8,-0.35,0.05231778930075226,0.7393994239066837,0.6700563209122018,-0.039697199583228655,178.603459254293,7.401173294116783,84.27648067730513,0
1767133244.854,1,left_wrist,-0.0864,0.102,-0.977,1.61,-5.11,-0.28,0.028420992830537006,0.9284758964605447,-0.3647813591099637,-0.06371276876892391,174.27610027450498,5.599639818907255,-43.17808851333839,0
1767133244.854,2,right_wrist,-0.1225,0.0244,-0.9609,1.12,-2.8,-0.35,0.05231778930075226,0.7393994239066837,0.6700563209122018,-0.039697199583228655,178.603459254293,7.401173294116783,84.27648067730513,0
1767133244.911,1,left_wrist,-0.0864,0.102,-0.977,1.61,-5.11,-0.28,0.028420992830537006,0.9284758964605447,-0.3647813591099637,-0.06371276876892391,174.27610027450498,5.599639818907255,-43.17808851333839,0
1767133244.911,2,right_wrist,-0.1225,0.0244,-0.9609,1.12,-2.8,-0.35,0.05231778930075226,0.7393994239066837,0.6700563209122018,-0.039697199583228655,178.603459254293,7.401173294116783,84.27648067730513,0
1767133244.979,1,left_wrist,-0.0864,0.102,-0.977,1.61,-5.11,-0.28,0.028420992830537006,0.9284758964605447,-0.3647813591099637,-0.06371276876892391,174.27610027450498,5.599639818907255,-43.17808851333839,0
1767133244.979,2,right_wrist,-0.1225,0.0244,-0.9609,1.12,-2.8,-0.35,0.05231778930075226,0.7393994239066837,0.6700563209122018,-0.039697199583228655,178.603459254293,7.401173294116783,84.27648067730513,0
1767133245.035,1,left_wrist,-0.0864,0.102,-0.977,1.61,-5.11,-0.28,0.028420992830537006,0.9284758964605447,-0.3647813591099637,-0.06371276876892391,174.27610027450498,5.599639818907255,-43.17808851333839,0
1767133245.035,2,right_wrist,-0.1225,0.0244,-0.9609,1.12,-2.8,-0.35,0.05231778930075226,0.7393994239066837,0.6700563209122018,-0.039697199583228655,178.603459254293,7.401173294116783,84.27648067730513,0
1767133245.088,1,left_wrist,-0.0864,0.102,-0.977,1.61,-5.11,-0.28,0.028420992830537006,0.9284758964605447,-0.3647813591099637,-0.06371276876892391,174.27610027450498,5.599639818907255,-43.17808851333839,0
1767133245.088,2,right_wrist,-0.1225,0.0244,-0.9609,1.12,-2.8,-0.35,0.05231778930075226,0.7393994239066837,0.6700563209122018,-0.039697199583228655,178.603459254293,7.401173294116783,84.27648067730513,0
1767133245.14,1,left_wrist,-0.0864,0.102,-0.977,1.61,-5.11,-0.28,0.028420992830537006,0.9284758964605447,-0.3647813591099637,-0.06371276876892391,174.27610027450498,5.599639818907255,-43.17808851333839,0
1767133245.14,2,right_wrist,-0.1225,0.0244,-0.9609,1.12,-2.8,-0.35,0.05231778930075226,0.7393994239066837,0.6700563209122018,-0.039697199583228655,178.603459254293,7.401173294116783,84.27648067730513,0
1767133245.203,1,left_wrist,-0.0864,0.102,-0.977,1.61,-5.11,-0.28,0.028420992830537006,0.9284758964605447,-0.3647813591099637,-0.06371276876892391,174.27610027450498,5.599639818907255,-43.17808851333839,0
1767133245.203,2,right_wrist,-0.1225,0.0244,-0.9609,1.12,-2.8,-0.35,0.05231778930075226,0.7393994239066837,0.6700563209122018,-0.039697199583228655,178.603459254293,7.401173294116783,84.27648067730513,0
1767133245.278,1,left_wrist,-0.0864,0.102,-0.977,1.61,-5.11,-0.28,0.028420992830537006,0.9284758964605447,-0.3647813591099637,-0.06371276876892391,174.27610027450498,5.599639818907255,-43.17808851333839,0
1767133245.278,2,right_wrist,-0.1225,0.0244,-0.9609,1.12,-2.8,-0.35,0.05231778930075226,0.7393994239066837,0.6700563209122018,-0.039697199583228655,178.603459254293,7.401173294116783,84.27648067730513,0
1767133245.336,1,left_wrist,-0.0864,0.102,-0.977,1.61,-5.11,-0.28,0.028420992830537006,0.9284758964605447,-0.3647813591099637,-0.06371276876892391,174.27610027450498,5.599639818907255,-43.17808851333839,0
1767133245.336,2,right_wrist,-0.1225,0.0244,-0.9609,1.12,-2.8,-0.35,0.05231778930075226,0.7393994239066837,0.6700563209122018,-0.039697199583228655,178.603459254293,7.401173294116783,84.27648067730513,0
1767133245.395,1,left_wrist,-0.0864,0.102,-0.977,1.61,-5.11,-0.28,0.028420992830537006,0.9284758964605447,-0.3647813591099637,-0.06371276876892391,174.27610027450498,5.599639818907255,-43.17808851333839,0
1767133245.395,2,right_wrist,-0.1225,0.0244,-0.9609,1.12,-2.8,-0.35,0.05231778930075226,0.7393994239066837,0.6700563209122018,-0.039697199583228655,178.603459254293,7.401173294116783,84.27648067730513,0
