timestamp,node_id,node_name,ax,ay,az,gx,gy,gz,qw,qx,qy,qz,roll,pitch,yaw,rep_number
1767373174.816732,1,left_wrist,0.4333,0.5427,-0.4963,42.35,-40.18,-72.24,0.35608320551410455,0.9055661420317729,0.08802610927009917,0.21308711186568643,133.85122073200452,-18.85896236845175,19.19796600421341,1
1767373174.816732,2,right_wrist,0.2059,-0.7359,-0.4148,-52.36,-4.76,74.41,-0.3608018302929051,0.6722116244271946,-0.5245524117105876,0.37788667429647216,-117.25196851947504,-7.441895706009337,-80.4744852154374,1
1767373174.8922281,1,left_wrist,0.3728,0.6202,-0.508,20.72,-30.24,-69.37,0.35662795861001373,0.9072866839553265,0.11148404072808887,0.19292143716533816,134.20260157914032,-15.697203011208554,20.67495665403714,1
1767373174.8922281,2,right_wrist,0.1147,-0.896,-0.4231,-16.52,-34.58,61.11,-0.3729315308299289,0.6635148444448193,-0.5576222503441931,0.33125149121972447,-120.16751515097553,-1.356359290970084,-80.86830756704107,1
1767373174.942544,1,left_wrist,0.3118,0.5846,-0.5558,39.55,-29.75,-54.25,0.34628188955968714,0.9124875808421392,0.12978131950939759,0.1749630728989199,135.89845234698018,-13.263010795122328,21.581965877373822,1
1767373174.942544,2,right_wrist,0.0454,-0.833,-0.4968,-55.09,-35.56,53.69,-0.36940913977066314,0.6662732006903312,-0.5739686052313098,0.30029477135738664,-123.15296400512936,1.3696015745091694,-80.7459621155,1
1767373175.009826,1,left_wrist,0.1976,0.4714,-0.6451,44.24,-26.74,-46.9,0.3275920950020778,0.9206957989732967,0.16566423513114106,0.13250670263608053,139.22059806514903,-7.784997142701559,23.298056434893645,1
1767373175.009826,2,right_wrist,-0.059,-1.0555,-0.4875,-30.52,-35.0,49.14,-0.37840441404860137,0.661697876319111,-0.5855141924954541,0.2759332352032089,-124.26735483065939,4.470938959438201,-80.64432767626312,1
1767373175.091033,1,left_wrist,0.0869,0.8052,-0.7393,22.05,-35.91,-47.04,0.3277334449795643,0.920808881870727,0.18128344329743434,0.10880305738367084,139.82256060614623,-4.67757040533884,23.98676387885218,1
1767373175.091033,2,right_wrist,-0.1645,-0.8999,-0.5793,-14.35,-7.28,40.95,-0.3845253538611367,0.6489925241116542,-0.6117627286812747,0.2381077900481058,-126.77981795659382,9.289107560815431,-81.95578970744201,1
1767373175.164592,1,left_wrist,0.0425,0.6515,-0.8384,21.49,-9.03,-35.7,0.31349538816558864,0.9210679780494037,0.21270308002150068,0.09006564916913193,141.9650455106794,-1.8653243873020091,26.649794144759966,1
1767373175.164592,2,right_wrist,-0.2528,-0.8603,-0.6739,-13.65,-10.64,38.85,-0.3889452811989715,0.6406714603596727,-0.6241358978523547,0.22071707937015697,-127.7871771601395,11.694608927505172,-82.75605226353603,1
1767373175.243681,1,left_wrist,0.0181,0.7725,-0.8955,-11.2,-6.16,-36.75,0.32397793801728275,0.9148047904466385,0.2264027284172685,0.08314021661727813,140.91971594026427,-0.31026725255897225,27.91146553174795,1
1767373175.243681,2,right_wrist,-0.3187,-0.9853,-0.7632,-8.33,-12.88,11.69,-0.40180658269166475,0.6326988249910944,-0.631408416306494,0.19891475253952376,-128.20897116618133,14.815177366423717,-82.65983204194082,1
1767373175.311243,1,left_wrist,0.0132,0.8481,-1.0185,10.15,4.83,-16.03,0.32335232507548495,0.9132659228879857,0.23306713613062502,0.08407340849342497,140.96423685111137,-0.16255735507583385,28.690440449749605,1
1767373175.311243,2,right_wrist,-0.345,-1.1453,-0.7613,9.31,-29.96,-8.33,-0.41427745579382963,0.6351536240312087,-0.6213583831158315,0.19714924101475303,-126.8968692874824,15.330675816559847,-81.04667540618561,1
1767373175.391275,1,left_wrist,0.1459,0.976,-1.0336,24.36,-24.36,10.22,0.33277133310826684,0.9121564791294879,0.22535452903536804,0.08030649840884722,139.9633256436134,0.1993248799188794,27.682228502528915,1
1767373175.391275,2,right_wrist,-0.3518,-1.099,-0.6144,-6.02,-25.76,-18.48,-0.43219350941242973,0.6453748212383984,-0.6010090519512343,0.18838319990368524,-125.30633665910045,16.0424144275112,-77.58615503474091,1
1767373175.456071,1,left_wrist,0.1088,0.7496,-0.7481,-7.63,-4.9,35.28,0.3463183050840216,0.9126703502934209,0.19599878866378406,0.09317155199600367,138.0049863074561,-1.9664270637789838,24.995522188370785,1
1767373175.456071,2,right_wrist,-0.2772,-0.916,-0.4724,41.16,-20.65,-28.84,-0.4491997284611761,0.6457657604404555,-0.5838159610554149,0.2009107020795761,-122.3325640730887,15.367988953178727,-75.73553820795317,1
1767373175.537237,1,left_wrist,0.1508,0.5573,-0.652,-23.73,29.26,65.87,0.3485108132215242,0.9135154625048192,0.17142019081118645,0.12101582960313272,137.01881654104255,-5.8322393195649065,23.55374629900375,1
1767373175.537237,2,right_wrist,-0.0166,-0.528,-0.3392,49.84,-2.8,-107.59,-0.4652127952504062,0.6650619602073053,-0.5196478903410242,0.2669001953626923,-115.35541141796882,7.381960335675936,-71.33018539220456,1
1767373175.5913541,1,left_wrist,0.1703,0.3626,-0.5114,-36.12,34.44,101.92,0.3509166263121395,0.9138157396473477,0.1326420230906302,0.15557766247409024,135.9365007207299,-11.025511235391265,20.991063659044922,1
1767373175.5913541,2,right_wrist,-0.0166,-0.528,-0.3392,49.84,-2.8,-107.59,-0.4635858114879555,0.6809583083799126,-0.48162016905763994,0.2990417870337057,-113.05574707548794,2.2508462912725045,-69.05277508184568,1
1767373175.6528928,1,left_wrist,0.2542,0.2528,-0.3504,-16.52,69.02,190.19,0.3401105732197882,0.90026344291872,0.005974760538743539,0.2716888543255764,135.24996438043087,-29.020264562400488,12.923229357261595,1
1767373175.6528928,2,right_wrist,0.3465,-0.4768,-0.2621,48.3,-6.09,-223.37,-0.44495876402890266,0.7169744165102803,-0.4035512825429461,0.35370290745420496,-110.96239818349676,-8.514778793029379,-64.6080839564498,1
1767373175.710266,1,left_wrist,0.6017,0.406,-0.4377,-91.84,79.45,198.38,0.349360286241145,0.8721553403769124,-0.07263375437725725,0.3346890950936428,133.4842488888597,-39.386799289791945,7.969625762361483,1
1767373175.710266,2,right_wrist,0.6578,-0.6949,-0.2679,106.68,-18.2,-228.06,-0.4413007849618142,0.7356487195779875,-0.30769397488719996,0.41158109333820125,-106.75392778033752,-19.510951133101237,-59.96054493739695,1
1767373175.7889102,1,left_wrist,0.9819,0.9477,-0.51,-175.91,127.19,214.69,0.38820091860574757,0.8106824627070116,-0.1590013304345901,0.4084269437402225,126.15298977331923,-51.7815805161238,5.500764797950475,1
1767373175.7889102,2,right_wrist,0.6022,-0.6339,-0.2762,-62.37,10.01,-222.88,-0.3701589567361882,0.7689650823239177,-0.13976308068242177,0.5021367644304746,-107.34812888770165,-41.973141123923455,-52.104453398513556,1
1767373179.393095,1,left_wrist,-0.0547,0.7125,-0.7476,39.55,-19.39,-41.72,0.33997599733630524,0.9164817651048831,0.2107240322571851,0.00853684336832864,140.80735466404494,7.3329206160152705,23.283878175929452,2
1767373179.393095,2,right_wrist,-0.3787,-0.7486,-0.651,-31.64,-3.29,46.48,-0.42820137571883543,0.7009943432837007,-0.5624177532394198,0.09453456171090564,-131.05146727139373,20.433483039719604,-68.10129937926962,2
1767373179.457987,1,left_wrist,-0.1737,0.7203,-0.8101,28.21,-10.64,-43.96,0.3294231056043676,0.9131486678813657,0.23963671505060388,-0.014634638369855348,142.7704640226803,10.638450369210942,25.816558993941076,2
1767373179.457987,2,right_wrist,-0.3792,-0.5588,-0.6686,-34.37,-11.27,46.9,-0.41968876416710577,0.6964976870048599,-0.5777063126229433,0.07076531342663303,-133.74012066148936,22.72682651784861,-69.53454562116131,2
1767373179.510137,1,left_wrist,-0.3084,0.5002,-0.7867,22.33,-30.66,-46.48,0.3217116371269094,0.9109274911142247,0.2551264817312433,-0.040289040555783986,144.3930942890965,13.742285508335529,26.860137534164622,2
1767373179.510137,2,right_wrist,-0.3709,-0.6983,-0.6359,-34.65,0.7,48.79,-0.41155265225886456,0.6908375279895695,-0.5916730956229697,0.05736612463716813,-135.8053938585249,24.06344096090149,-71.26593406455099,2
1767373179.5891268,1,left_wrist,-0.2216,0.588,-0.9701,56.84,-9.73,-30.73,0.2956422983837122,0.9162936115633672,0.2648834897055706,-0.05327650228718199,147.92581075810395,14.729466507141327,27.991757405566034,2
1767373179.5891268,2,right_wrist,-0.5417,-0.8657,-0.7832,-18.34,-19.53,35.21,-0.40878442891374095,0.6753399767955064,-0.6133325824040268,0.025186301457719072,-138.73723117226308,27.867146614875455,-73.81754563440313,2
1767373179.667308,1,left_wrist,-0.4436,0.2225,-1.099,118.72,-52.22,-22.4,0.25283730070009114,0.920768079544362,0.2770173962765832,-0.10733501398435391,154.43739837673604,19.73936230670712,28.967945301383796,2
1767373179.667308,2,right_wrist,-0.5675,-0.6749,-0.8862,7.07,-24.43,42.07,-0.41416827125547273,0.6638923577983007,-0.6225641447597008,0.011201160738446217,-139.3481431885866,30.054259063714273,-74.96191934103551,2
1767373179.737726,1,left_wrist,-0.428,0.4333,-1.0907,20.93,-22.61,-9.59,0.24235397159399802,0.9214183808045817,0.2784433800220491,-0.12133426593495744,156.0430956068162,21.01196890771222,29.122286550779073,2
1767373179.737726,2,right_wrist,-0.7788,-0.6686,-0.8764,16.38,-14.84,20.02,-0.43000815188453323,0.6421319069903537,-0.6346334401180169,4.6638278983060655e-06,-138.77099781683853,33.07860555428606,-76.57933372747631,2
1767373179.789631,1,left_wrist,-0.5183,0.9477,-1.0277,-29.54,-8.19,-13.3,0.2583978425311647,0.9154378647772826,0.2835526733574118,-0.12166327358374812,154.2252081247107,21.671782950873112,29.40499993743962,2
1767373179.789631,2,right_wrist,-0.6456,-0.6002,-0.8994,19.81,1.96,-33.6,-0.43130858444161035,0.6485468466399943,-0.6270811984095047,0.011360603047091944,-137.57322806752066,31.748741223931145,-75.47451806194854,2
1767373179.853877,1,left_wrist,-0.4246,0.6022,-1.1702,-50.26,13.79,15.68,0.2781450019808195,0.9129110901282173,0.2802388208494459,-0.1034161625806724,151.36321561703605,20.164312500837063,28.93318331670557,2
1767373179.853877,2,right_wrist,-0.6608,-0.7071,-0.6544,50.26,-9.17,-52.43,-0.45102129896308896,0.6518251812193568,-0.6088237807565289,0.032207530102858435,-133.30239763696204,30.477344680764467,-72.67868897708298,2
1767373179.911802,1,left_wrist,-0.2279,0.632,-0.731,-48.93,44.66,64.68,0.315225305362547,0.9154589850331257,0.24645432756397323,-0.04275649665487483,145.1166087235773,13.512701700168828,25.871933304828158,2
1767373179.911802,2,right_wrist,-0.4582,-0.7867,-0.5836,57.89,-7.14,-80.78,-0.46912486964585914,0.6619330700080903,-0.5809508189448268,0.06528869333012761,-128.34686359916,27.2996073011497,-69.13709898957237,2
1767373179.9906251,1,left_wrist,-0.0371,0.7266,-0.6061,-65.45,66.08,100.8,0.33826579251124633,0.9161925368007846,0.21473432000116818,0.007527346206832366,141.05880879205935,7.5552139869523955,23.70695207987552,2
1767373179.9906251,2,right_wrist,-0.3723,-0.5617,-0.4885,180.74,-7.84,-139.23,-0.5557505286263906,0.6516232417881572,-0.48464633759815945,0.17789442977696313,-109.58214565964319,17.869175534352202,-60.61930241571032,2
1767373180.044063,1,left_wrist,-0.042,0.345,-0.4348,-62.58,67.48,152.11,0.35372855494635497,0.9188198609582687,0.16175636201263588,0.06694065933816748,137.80108918563025,-0.4914391593604192,20.158615417858947,2
1767373180.044063,2,right_wrist,-0.0224,-0.5295,-0.0371,234.29,-40.88,-202.23,-0.6106949576801886,0.634353249953921,-0.39270638908046535,0.2653852198451779,-96.57016327478343,8.21868286728321,-56.191467169759626,2
1767373180.102915,1,left_wrist,0.4626,0.5183,-0.4363,-178.99,125.79,215.32,0.4164810695641337,0.87905101143896,0.015151414455755758,0.23148060960444744,126.44579751501783,-23.225190341961614,13.815994478229275,2
1767373180.102915,2,right_wrist,0.1957,-1.0541,-0.3704,64.89,-19.81,-237.93,-0.5978424724299541,0.6589486974384382,-0.3111255487397629,0.33402377942955847,-93.56436241265153,-3.9106613442672375,-54.2239044132773,2
1767373180.152978,1,left_wrist,0.4592,0.2425,-0.3855,-82.95,87.08,252.0,0.4158913442985139,0.8508992751425859,-0.0757759213409361,0.3118698815921942,124.82832874631748,-36.424913175666596,9.33033644220702,2
1767373180.152978,2,right_wrist,0.4114,-1.0799,-0.2025,41.09,-44.45,-254.31,-0.5719042573427285,0.6868793453540096,-0.21671396914795035,0.3926287571427373,-92.24889340001474,-16.947653460613626,-51.3256187066042,2
1767373180.209561,1,left_wrist,0.9789,0.4631,-0.3553,-67.13,100.45,269.71,0.4027085914786055,0.8079744900156187,-0.16762152477665598,0.396113668364104,124.93748990424366,-50.81452914361768,4.372290508952396,2
1767373180.209561,2,right_wrist,0.3631,-0.7286,-0.2416,-153.16,16.31,-293.65,-0.4664044315093917,0.744565916649602,-0.15673569168570373,0.45113459741405687,-100.69560159214933,-31.708269808981104,-50.26491686721157,2
1767373181.85744,1,left_wrist,-0.2328,0.5876,-0.7398,22.89,-18.06,-47.53,0.3319843585521867,0.9083163285373279,0.24857575929863263,-0.05438680794338411,143.32909729750403,15.298475147229517,25.513426842925295,3
1767373181.85744,2,right_wrist,-0.3645,-0.7222,-0.6505,-23.94,-0.77,51.8,-0.4420304405109553,0.7077748301863066,-0.5490008589007149,0.04755981857317062,-131.731769970136,24.71007984439614,-64.3894688429448,3
1767373181.907457,1,left_wrist,-0.306,0.6383,-0.7906,54.25,-20.09,-26.95,0.3154646836858917,0.911056896735724,0.25497799584475406,-0.07378066069252243,145.7875027922165,17.176119167232805,25.948505903593666,3
1767373181.907457,2,right_wrist,-0.4372,-0.5187,-0.652,-28.14,-14.07,36.82,-0.43461134224002423,0.7048364175722713,-0.5600184245032817,0.026419119536301938,-134.02843258688884,26.714072234133887,-65.43418228132634,3
1767373181.9999511,1,left_wrist,-0.2908,0.4699,-0.813,43.75,-17.29,-25.76,0.2949471528173103,0.9144176949528819,0.2622524496772755,-0.08983378451500607,148.7061183915021,18.602002331787162,26.752711844340663,3
1767373181.9999511,2,right_wrist,-0.5222,-0.6183,-0.6905,-33.25,3.71,43.47,-0.4191631721854017,0.6934992817193636,-0.5859700618772545,-0.0002606180430819052,-138.14339386218643,29.445510887853022,-68.9152097231492,3
1767373182.0616739,1,left_wrist,-0.366,0.5104,-0.8316,45.99,-11.13,-36.61,0.2701507103251433,0.9128905777271982,0.28138327194922874,-0.12030312163393429,152.7179872376489,21.819200044610646,28.905897389104886,3
1767373182.0616739,2,right_wrist,-0.5427,-0.6066,-0.8067,-37.03,22.12,51.38,-0.3984971928408604,0.6877910111673615,-0.6066016895016186,-0.013338011437778399,-142.04632267481864,30.119534217333726,-72.24921156742032,3
1767373182.139454,1,left_wrist,-0.466,0.4651,-0.8672,22.33,-5.11,-32.48,0.26193640775955784,0.9098748022013986,0.29305372578525896,-0.13280314910559435,154.26794407882068,23.277909132130652,30.31834836188774,3
1767373182.139454,2,right_wrist,-0.5231,-0.6983,-0.7364,1.12,-18.06,32.62,-0.38996560201382835,0.676490808667174,-0.6235716368358876,-0.03801879493931014,-145.2792592438169,32.53275740912069,-74.91416516378511,3
1767373182.194844,1,left_wrist,-0.3933,0.3928,-0.8721,22.12,-3.99,-22.75,0.24841411173907496,0.9103264697864836,0.3008037630236564,-0.1382506551368655,156.23749063481935,23.65035675040163,31.52628473495417,3
1767373182.194844,2,right_wrist,-0.7652,-0.5158,-0.589,-2.31,-31.5,18.97,-0.40037087919811487,0.6695569479278024,-0.6233394221052853,-0.05333495496560996,-145.11950576544544,34.78897044908547,-74.66393620188312,3
1767373182.2606158,1,left_wrist,-0.6988,-0.1693,-1.1029,-14.63,0.0,-10.85,0.26560356010581176,0.9007359270889399,0.3184541730643095,-0.12929222006088875,154.36456207565163,23.70836271117593,33.473710254769756,3
1767373182.2606158,2,right_wrist,-0.771,-0.6378,-0.9067,47.81,-24.85,10.78,-0.4242935065004677,0.6569331429271312,-0.621383361013693,-0.04792269525752306,-141.91537286887439,36.17559305767412,-73.95018594674471,3
1767373182.34353,1,left_wrist,-0.3792,0.7174,-1.1131,68.67,4.69,21.49,0.24127589377040656,0.9119724981828077,0.30514091654229836,-0.13031165218516172,157.00518683531655,22.63924445857239,32.33668135107987,3
1767373182.34353,2,right_wrist,-0.9155,-0.7505,-0.9028,18.13,-11.69,-25.55,-0.4494886542120285,0.6470938059626586,-0.6143735496040656,-0.04212715948555393,-138.1828756380326,37.360522054246694,-72.30867122333336,3
1767373182.41013,1,left_wrist,-0.4382,0.7627,-1.1078,-67.9,40.95,43.47,0.2760162737539892,0.9120778761637409,0.2918616247699702,-0.08213255397365658,151.35940882862727,18.11586951183163,30.828112275989113,3
1767373182.41013,2,right_wrist,-0.8374,-0.5797,-0.6656,49.77,-10.85,-45.43,-0.4687534626185776,0.6471094160321492,-0.600676967207948,-0.026585259665581017,-134.211531757346,36.69434144050967,-69.79324287718272,3
1767373182.4920971,1,left_wrist,-0.2645,0.609,-1.0116,-59.29,34.93,53.76,0.2976688465643279,0.9127953977629298,0.27523250809664723,-0.049445789453770116,147.74253910901777,14.721688070112569,29.280177490405194,3
1767373182.4920971,2,right_wrist,-0.5236,-0.5714,-0.4817,39.69,-2.45,-78.61,-0.5022524241250976,0.6592240253233079,-0.5584001210690374,0.0368170026900899,-125.01696324615011,30.822112048560786,-64.20684715654717,3
1767373182.546747,1,left_wrist,-0.2318,0.6442,-0.8355,-83.09,50.26,60.2,0.3290725281388706,0.9083413479408755,0.25796478519220783,-0.009024214424742211,142.8632619434931,10.72949251002641,28.094955680823883,3
1767373182.546747,2,right_wrist,-0.3884,-0.7793,-0.5851,109.06,-2.66,-97.3,-0.5291773735724354,0.659917841949761,-0.5262141378583799,0.08705418021732864,-118.26569921211988,26.233092878733792,-61.279718810322215,3
1767373182.6079109,1,left_wrist,0.0156,0.2445,-0.4758,-143.08,50.12,146.37,0.3831696032576779,0.903316404190983,0.17264120826008877,0.08599733873395854,133.76919633922506,-1.3215805718101976,22.203845544526907,3
1767373182.6079109,2,right_wrist,-0.2928,-0.4172,-0.2752,23.03,4.27,-169.19,-0.5255324247688297,0.6912655614373798,-0.4789689279691503,0.12867152026513548,-116.00172311098996,18.997992327317103,-57.497706404038986,3
1767373182.66044,1,left_wrist,0.1049,0.3192,-0.427,45.64,23.24,238.42,0.3488233821684996,0.9239659560844727,0.08275267318762612,0.13327098382520106,137.24741114440442,-10.867800759475958,14.500480956373929,3
1767373182.66044,2,right_wrist,0.0351,-0.6456,-0.3963,96.81,5.32,-203.14,-0.5368996990567295,0.7098596238147966,-0.4099933762164888,0.19935761607952981,-110.38473473185527,9.045501882968935,-53.723524855446854,3
1767373182.738301,1,left_wrist,0.4075,0.3001,-0.3514,-128.17,99.47,241.43,0.3788382861604203,0.8996100474173844,-0.008667470070408204,0.21704421320852024,132.3900283187174,-23.39560236715581,9.333975288961625,3
1767373182.738301,2,right_wrist,0.6041,-0.5529,-0.2621,66.29,27.58,-304.5,-0.5020937096142042,0.751369140109418,-0.20814482369125423,0.3741952089853871,-103.33436083691625,-20.68935562684768,-47.39306613373055,3
1767373182.7911758,1,left_wrist,0.5671,0.2001,-0.2318,-149.17,96.04,264.11,0.40780042660655524,0.8556616182455455,-0.11145343176922558,0.29852996443872803,127.76851232851243,-36.997686770751024,3.7869251389997576,3
1767373182.7911758,2,right_wrist,0.8316,-1.0951,-0.1962,34.58,28.21,-329.49,-0.4505503245880642,0.7607281483507272,-0.09647265087252843,0.4571543688450228,-102.8175056995225,-37.488979769276774,-44.760795537706564,3
1767373133.639908,1,left_wrist,-0.0752,0.9028,-0.3196,0.84,8.26,0.0,0.5789500558177163,0.813941885002833,0.041627278077108726,-0.02413732434610242,109.25256599476903,5.01939685493625,2.290667229861775,0
1767373133.639908,2,right_wrist,-0.2674,-0.9638,0.1371,-1.12,-7.84,1.47,-0.3480013249949541,0.1658417530802788,-0.6450131634825944,0.6598102830899137,-83.3374354246418,13.301939686160924,-136.23292882120708,0
1767373133.7165492,1,left_wrist,-0.0673,0.9301,-0.3362,0.49,-4.48,-2.38,0.5750795543543449,0.8170052601171061,0.0375921547960135,-0.019306501557254486,109.80196383519132,4.288810752898716,2.254056647092606,0
1767373133.7165492,2,right_wrist,-0.2533,-0.9745,0.121,1.12,0.77,-2.31,-0.35033170106393857,0.16253579288628847,-0.6444396664386413,0.6599600984763591,-83.1091962345376,13.709605074110463,-136.24285773253803,0
1767373133.7984698,1,left_wrist,-0.0883,0.9174,-0.3294,0.84,-3.22,-1.47,0.5750147956769385,0.8167779184998422,0.04014296227656795,-0.024907010726618977,109.80106131653814,4.98256435291609,2.124559399207361,0
1767373133.7984698,2,right_wrist,-0.245,-0.9755,0.1039,-1.82,0.14,-2.73,-0.3483932240297163,0.16367818744518844,-0.6493079740498738,0.6559197871996894,-83.90005565760055,13.751390949038967,-136.42128599806088,0
1767373133.857409,1,left_wrist,-0.1039,0.9272,-0.3377,-0.56,-1.96,-0.7,0.5737555937903219,0.8170774433686454,0.0440257891189496,-0.035365237521141256,109.94478655399874,6.218039719864355,1.8078990791723846,0
1767373133.857409,2,right_wrist,-0.2357,-0.9716,0.0844,-1.19,-1.19,-2.73,-0.3463961781344219,0.16604506817817408,-0.6516923340318103,0.6540151564541473,-84.36532321766923,13.550097685540681,-136.47376906565384,0
1767373133.9174342,1,left_wrist,-0.081,0.9248,-0.3162,-0.56,-0.7,-0.21,0.576132874653074,0.8156308707825519,0.0417477618422767,-0.03277678678031466,109.61690554757537,5.8297023985720235,1.7473139740621337,0
1767373133.9174342,2,right_wrist,-0.2338,-0.9706,0.0883,-0.63,-2.17,-2.31,-0.3448560614767714,0.16846727641415044,-0.6537865237962823,0.6521167494725931,-84.78894196994422,13.367956365879808,-136.4713941777467,0
1767373133.994693,1,left_wrist,-0.0952,0.9209,-0.3294,-2.17,0.77,1.12,0.5760575280932745,0.8159909269174268,0.03892067259190941,-0.028314532673143312,109.63993530758324,5.2240097289336935,1.777892586188505,0
1767373133.994693,2,right_wrist,-0.2377,-0.9618,0.0976,1.05,-1.33,-2.73,-0.3488946150136776,0.16621749894685248,-0.6502119635628897,0.6541167274256194,-84.14091208949661,13.665884249104536,-136.19671234897143,0
1767373134.060686,1,left_wrist,-0.0712,0.9165,-0.325,0.98,2.17,1.4,0.5766682258267113,0.8160426566211739,0.03381858353664118,-0.01960722581359395,109.57157341466822,4.0717056807475736,1.8718152996084456,0
1767373134.060686,2,right_wrist,-0.2303,-0.9906,0.1113,1.89,-1.68,-1.68,-0.3480051121917811,0.16866658041177152,-0.6467352707007286,0.6574020962639537,-83.71565140652726,13.20117488023086,-136.0472399829151,0
1767373134.146443,1,left_wrist,-0.0586,0.915,-0.324,1.89,0.35,0.91,0.5764991712734403,0.8163786232426289,0.030695725642965778,-0.015245375061250392,109.59945759620781,3.456121015996773,1.8681772784808208,0
1767373134.146443,2,right_wrist,-0.2225,-0.9731,0.1005,2.31,-3.99,0.35,-0.3468127547527183,0.17256533190350415,-0.648101787739861,0.6556723206711267,-84.08981736532567,12.899835032918444,-135.89004513620867,0
1767373134.203915,1,left_wrist,-0.0673,0.9282,-0.3289,3.15,-0.56,0.84,0.5761255978757666,0.8164698010047629,0.03297352487249139,-0.019212136190871233,109.64736708105231,3.977575560252666,1.821345624386766,0
1767373134.203915,2,right_wrist,-0.2386,-0.9887,0.1205,2.73,-0.98,-1.4,-0.3490704338129577,0.1708063590669585,-0.6450935238538724,0.6578976861349461,-83.5547649659236,13.039335275572094,-135.7599173329392,0
1767373134.260986,1,left_wrist,-0.0825,0.9267,-0.3245,0.77,0.0,0.49,0.5778966214524422,0.8149214088803527,0.036017325691180074,-0.025324780598641895,109.38601889620247,4.755507064833417,1.692421890956774,0
1767373134.260986,2,right_wrist,-0.2274,-0.9848,0.1005,3.29,-0.28,-1.61,-0.3474321125825663,0.1719980779489562,-0.6463846435305883,0.6571867930323264,-83.80417899424087,12.889991141525982,-135.84812625170133,0
1767373134.3428118,1,left_wrist,-0.0742,0.9204,-0.324,0.56,-0.28,0.63,0.5776896043612788,0.8153201438297036,0.03283855684042848,-0.02119936940237161,109.42216027297306,4.158139241003887,1.6693335397050302,0
1767373134.3428118,2,right_wrist,-0.2269,-0.9872,0.1137,0.91,-3.01,-0.49,-0.3495456607974384,0.17342685714523898,-0.6431147956716086,0.6588962860926386,-83.3669260689483,12.771026229079322,-135.48963913562548,0
1767373134.4064362,1,left_wrist,-0.0644,0.9287,-0.3235,-0.21,-0.77,-0.56,0.5775677360652434,0.8154940269534597,0.03175048893570877,-0.01941413691212148,109.44217840311889,3.9186674714942464,1.6863155428349246,0
1767373134.4064362,2,right_wrist,-0.2294,-0.9745,0.1142,1.12,-2.87,-0.56,-0.3533407064261838,0.17057395930323965,-0.6429046601858857,0.657820999589655,-83.20449295083898,13.29203857484836,-135.32946892346519,0
1767373134.461358,1,left_wrist,-0.0644,0.9287,-0.3392,0.49,-0.21,-1.12,0.5745036950155137,0.8176747723883704,0.031589111702298826,-0.018857333719488802,109.87362993942183,3.8494162026456515,1.7225614770618294,0
1767373134.461358,2,right_wrist,-0.2284,-0.9789,0.1074,1.33,-2.03,-0.91,-0.35174206510993383,0.1730125552271331,-0.6442511052747235,0.6567226878357977,-83.51542573851403,13.06038813942772,-135.3230443320426,0
1767373134.5388732,1,left_wrist,-0.0717,0.9282,-0.3323,-0.98,-0.21,-1.12,0.5766282963674988,0.8159860817964902,0.0341133081569029,-0.022423299251446437,109.57017442491178,4.354981415820383,1.7133118579239386,0
1767373134.5388732,2,right_wrist,-0.2298,-0.9682,0.1118,2.94,-4.41,1.19,-0.3553181014140145,0.17347552682924838,-0.6426087052189379,0.6562844965224267,-83.2793058802214,13.235992345415436,-134.9158149422956,0
1767373134.609917,1,left_wrist,-0.06,0.9287,-0.3406,-1.61,-1.89,-1.82,0.5757495480912094,0.8168356785471875,0.03068858969277427,-0.0187120973648586,109.69770076874235,3.7789493649250345,1.641771654364876,0
1767373134.609917,2,right_wrist,-0.2338,-0.9614,0.1147,0.42,-2.87,0.14,-0.3593173819627284,0.17053901605574187,-0.642256764660834,0.6552203532168306,-83.09033635431405,13.772467592747983,-134.73683366496633,0
1767373134.68493,1,left_wrist,-0.0752,0.9228,-0.3372,1.12,-1.47,-0.63,0.5733748932194763,0.8183258384849557,0.03281831706372422,-0.022516926045822755,110.02436284064447,4.271733496112607,1.6026900228154666,0
1767373134.68493,2,right_wrist,-0.2284,-0.9784,0.1074,1.12,-1.19,-1.19,-0.35805271844954745,0.17251463027009772,-0.6436629312424514,0.6540145136753739,-83.39034029922948,13.607915016184146,-134.73522039791615,0
1767373134.735376,1,left_wrist,-0.0576,0.9248,-0.3318,2.8,-2.17,-0.49,0.5736239452744594,0.8183424464416498,0.0297239299771443,-0.01969004180730863,109.99197993433098,3.8030554043811167,1.4965559762364995,0
1767373134.735376,2,right_wrist,-0.2303,-0.9711,0.1259,1.61,-2.03,-0.28,-0.35883806771481247,0.17338285284667432,-0.6401277759422548,0.6568181315742362,-82.89347153267227,13.393787505108087,-134.54146992935017,0
1767373134.7895522,1,left_wrist,-0.0683,0.9306,-0.3255,2.31,-1.61,-0.77,0.5757356662759222,0.816813934392183,0.029913433584900794,-0.021180784965255668,109.69200025452994,3.959193419564017,1.4060024883838174,0
1767373134.7895522,2,right_wrist,-0.2303,-0.976,0.1171,1.54,-0.98,-0.14,-0.35671476699785404,0.17592390232108732,-0.6412008073416124,0.6562521468629661,-83.17042429414725,13.094082610932706,-134.57638300502407,0
1767373134.856589,1,left_wrist,-0.0781,0.9218,-0.3362,0.84,-4.06,-1.89,0.573566014463421,0.8179997241530742,0.032351707180659786,-0.029186390330733326,109.97270655305961,4.868008758955245,1.1183203829723223,0
1767373134.856589,2,right_wrist,-0.2298,-0.9784,0.1015,0.56,-1.4,-0.84,-0.3558579805691682,0.17707496261415037,-0.6433366670451396,0.6543145177326284,-83.5441426883184,13.07036662376914,-134.60468359848508,0
1767373134.936227,1,left_wrist,-0.0844,0.9228,-0.3231,-0.35,-1.89,-1.75,0.5766538855954085,0.8157637542539046,0.03256526300778849,-0.030647954556972102,109.53278325560241,5.023294366929424,1.022965584468157,0
1767373134.936227,2,right_wrist,-0.2289,-0.9853,0.1118,-0.91,-3.08,-0.7,-0.3564462451876764,0.1790746285183616,-0.6427240236858429,0.6540521241382047,-83.53856767669573,12.940839169417309,-134.38877268128397,0
1767373134.9912431,1,left_wrist,-0.081,0.9223,-0.3255,0.28,-0.7,-1.54,0.577836046767959,0.8151274584877133,0.030220724663064167,-0.027557889537803693,109.37511855306805,4.580037653379611,1.0013178781042487,0
1767373134.9912431,2,right_wrist,-0.2328,-0.9804,0.1088,-0.56,-3.64,-0.14,-0.35937126561856203,0.17746149610986212,-0.6444194368558178,0.6512167843726027,-83.7164293610479,13.417195902779769,-134.2478832488896,0
1767373135.048408,1,left_wrist,-0.0727,0.9277,-0.3411,0.14,-0.84,-1.4,0.5749996729953236,0.8171721831377426,0.029720417581321778,-0.026864399117765267,109.77579390552496,4.478450514462283,1.0161079697181556,0
1767373135.048408,2,right_wrist,-0.2357,-0.9697,0.1157,0.98,-3.01,-0.21,-0.3620159084981189,0.17672410045709996,-0.6413890808114336,0.6529418973597686,-83.22080780638433,13.509404361247654,-133.9990064029155,0
1767373135.1101491,1,left_wrist,-0.0737,0.9252,-0.3353,0.91,-2.17,-0.98,0.5735725942174187,0.818227208030192,0.02836235603371655,-0.026726241075654078,109.9741058692803,4.374312796851641,0.9053597541793642,0
1767373135.1101491,2,right_wrist,-0.2367,-0.9789,0.1127,1.4,-1.75,-1.12,-0.3610748503833503,0.1781079417785701,-0.6431467258208128,0.6513561257576462,-83.54881547931947,13.439873057562266,-134.0139494224751,0
1767373135.1890628,1,left_wrist,-0.0766,0.9316,-0.3353,2.17,-2.66,-1.12,0.5757163743225825,0.816642760775702,0.028509607060047643,-0.028852381440384448,109.66460816421876,4.585753364460689,0.7669613882697721,0
1767373135.1890628,2,right_wrist,-0.2318,-0.9814,0.101,0.0,-1.96,-0.49,-0.3598172301654833,0.1815232115935994,-0.6424823758015378,0.6517647438402882,-83.60357616161075,13.045902521110646,-133.87200700604333,0
1767373135.239606,1,left_wrist,-0.0815,0.9287,-0.3309,0.35,-1.61,-0.98,0.576881298025316,0.815562834294521,0.03092089746564546,-0.03330359449118623,109.48446351918301,5.163476083132656,0.6910250094201081,0
1767373135.239606,2,right_wrist,-0.223,-0.9721,0.103,1.82,-2.66,-0.56,-0.358338305801165,0.18422336310636353,-0.6434301883591439,0.6508863217102111,-83.87106406851147,12.786247686811151,-133.82695555126668,0
1767373135.2898262,1,left_wrist,-0.0844,0.9243,-0.3323,0.35,-1.54,-0.98,0.5743355510270368,0.8174683523794523,0.029469092660038734,-0.031870680292203475,109.84656138380167,4.9310491621640535,0.6654571623581615,0
1767373135.2898262,2,right_wrist,-0.2367,-0.9843,0.1093,1.4,-2.31,-0.63,-0.36206373868341507,0.1812494295581688,-0.6426269717310256,0.6504529718736304,-83.607924792955,13.270896985047,-133.6742894812613,0
1767373135.34068,1,left_wrist,-0.0844,0.9267,-0.3323,-0.91,-1.26,-0.63,0.5776272408493877,0.8151765333300794,0.02871330272454024,-0.03177320228315532,109.38260577587481,4.874455557935297,0.5811824043543882,0
1767373135.34068,2,right_wrist,-0.2255,-0.9823,0.1078,0.49,-2.66,-0.7,-0.35950930444964585,0.1857172063089553,-0.6419806505066661,0.6512472830422917,-83.71851113358947,12.691435616469477,-133.58005393829052,0
1767373135.393183,1,left_wrist,-0.0766,0.9194,-0.3357,0.42,-1.4,-0.56,0.5748159532281398,0.8172409805730085,0.02754351277839398,-0.03074336498041543,109.78065549953007,4.698612672361584,0.5562618337607481,0
1767373135.393183,2,right_wrist,-0.2298,-0.975,0.1118,1.54,-3.01,-0.14,-0.3634946828022012,0.1830097366773091,-0.6404626277938662,0.6512961494245184,-83.35857524193557,13.133600476138323,-133.37108420582481,0
1767373135.447902,1,left_wrist,-0.0791,0.9272,-0.3255,0.98,-0.42,-0.7,0.577423461766794,0.8154252748263926,0.027084748506319693,-0.030498907749346518,109.41430589328766,4.6470769866030714,0.5144728657644598,0
1767373135.447902,2,right_wrist,-0.2308,-0.9804,0.1078,0.98,-2.38,-0.21,-0.36318593306802893,0.18411485195409838,-0.6423797093886285,0.6492657454981027,-83.6974011653876,13.151555678716246,-133.34569183391366,0
1767373135.507067,1,left_wrist,-0.08,0.9282,-0.3318,0.0,-1.54,-0.63,0.5756100260232219,0.8166976890807807,0.02666844346873306,-0.0310930332166781,109.66571599230038,4.674127800303736,0.446401662023151,0
1767373135.507067,2,right_wrist,-0.2333,-0.9765,0.1078,0.56,-2.1,-0.35,-0.36656346535889295,0.1811871060431873,-0.6430156926121616,0.6475594779804222,-83.65315276424344,13.694994339060937,-133.24205065225323,0
1767373135.565216,1,left_wrist,-0.0913,0.936,-0.3348,-0.56,-2.59,-1.12,0.5755993983494113,0.8163968228151985,0.02930474677118547,-0.03637020942642416,109.64466589516309,5.343160650591285,0.3440836940004578,0
1767373135.565216,2,right_wrist,-0.2372,-0.977,0.1083,1.61,-1.68,-0.98,-0.3638071365782755,0.18532605404546829,-0.6416910831578841,0.6492543221745338,-83.64762728021088,13.076752815085834,-133.18401846749427,0
1767373135.641539,1,left_wrist,-0.0766,0.9716,-0.3274,-1.89,-4.13,-3.15,0.5787211096234096,0.8142560626314289,0.02754863522252636,-0.03619412164410483,109.20221963751885,5.211272987891419,0.17091426016556296,0
1767373135.641539,2,right_wrist,-0.2684,-1.0756,0.1396,-7.7,6.23,1.4,-0.36162021055515015,0.18540896988999833,-0.6434828919678537,0.6486787378564725,-83.92580752997412,12.994123912200026,-133.4174286376211,0
1767373135.708002,1,left_wrist,0.0,1.1453,-0.3884,1.12,-34.02,-33.32,0.576400867647411,0.8145600358732034,0.027854601424365744,-0.05897549417382611,109.34777065605019,7.364953725085584,-1.3062643915694534,0
1767373135.708002,2,right_wrist,-0.243,-1.1912,0.1547,-3.85,21.63,14.07,-0.35826138373181216,0.177578405284256,-0.6465107417108013,0.6497219033985366,-84.04056235813533,13.443507132273622,-134.37832577310562,0
1767373135.788438,1,left_wrist,-0.1122,1.0512,-0.3548,26.53,-27.23,-31.43,0.5681266058433687,0.8191447296403367,0.028913958015552122,-0.07347145477822088,110.3512695986585,8.813639716363182,-2.0942982392822143,0
1767373135.788438,2,right_wrist,-0.2952,-0.9648,0.1318,-6.16,1.12,48.09,-0.37738599319600324,0.1528472951255985,-0.6634803443166315,0.6277032333975494,-85.60629572592187,17.99240336967888,-134.65239771066223,0
1767373135.8416069,1,left_wrist,-0.1606,0.9155,-0.3914,28.7,-14.56,-27.65,0.5540299768056132,0.8273141929605236,0.03471027701167468,-0.08600702062402862,112.18057140752128,10.414655603531473,-2.2065845725810425,0
1767373135.8416069,2,right_wrist,-0.2918,-1.0785,0.0644,-1.61,5.74,55.65,-0.38757776474342953,0.13895299621231874,-0.6686743619865108,0.6191527588100038,-85.89639821955244,20.258752263466334,-134.79196441028773,0
1767373135.892797,1,left_wrist,-0.1649,0.9848,-0.3875,41.09,-1.26,-22.75,0.5401419054865733,0.8359529908969848,0.03853965819706909,-0.08912919664045191,114.08494151786348,10.990685198768636,-1.8593020670453886,0
1767373135.892797,2,right_wrist,-0.3972,-1.1673,0.1552,-22.33,15.12,58.31,-0.39780580118695097,0.12211461842608498,-0.6780127338408203,0.6059185566215619,-86.8370027625106,23.04486303017382,-135.26464103237367,0
1767373135.960119,1,left_wrist,-0.0386,0.8491,-0.5919,106.33,7.0,-13.79,0.4675989321787828,0.8785753707048628,0.04321513651247852,-0.0871149160148971,123.92247174584148,11.156453651752992,-0.32319407046374227,0
1767373135.960119,2,right_wrist,-0.4797,-0.8847,0.0708,-43.19,30.1,65.38,-0.40668179860062564,0.09869035053296572,-0.6975067756820184,0.5816824110082022,-89.51882141477039,26.9050775151199,-136.76969867911612,0
1767373136.0110981,1,left_wrist,-0.0151,0.6754,-0.6373,104.65,0.77,-11.76,0.4240380143707556,0.9003515307507908,0.042561219236936156,-0.0880194640990274,129.57343497779246,11.220894346909853,0.11641128395857098,0
1767373136.0110981,2,right_wrist,-0.5797,-0.8906,0.0834,-50.89,63.14,64.05,-0.4040964242973903,0.0693246444812366,-0.7223914588006098,0.5568220126661125,-93.5450607647606,30.439524565381753,-140.34699121833435,0
1767373136.092243,1,left_wrist,-0.0781,0.5851,-0.6237,88.13,0.91,4.41,0.3863690514408359,0.9176138579948212,0.036715497255792706,-0.08576558730533171,134.33817533117434,10.706077743310239,0.06454778056545704,0
1767373136.092243,2,right_wrist,-0.5714,-0.7193,-0.1235,-53.83,92.47,51.24,-0.37348277494902177,0.009906184367220749,-0.7805881785638578,0.5010933843247386,-105.48856924415196,34.96980285530718,-151.59900426800914,0
1767373136.146813,1,left_wrist,-0.0766,0.5558,-0.65,70.84,5.32,22.33,0.3558913873113079,0.930946818759767,0.025007666718330365,-0.07780718272760527,138.11538033346417,9.3618326412695,-0.5121887595261392,0
1767373136.146813,2,right_wrist,-0.4695,-0.5714,-0.2977,-23.38,90.3,39.76,-0.3500844991745735,-0.020209134753141882,-0.8019261519392006,0.48368055692388895,-110.6474732353949,35.52325665989812,-157.89662961141548,0
1767373136.208069,1,left_wrist,-0.0981,0.5475,-0.5978,68.18,4.34,47.39,0.3338414557259064,0.9408698997145717,-0.007979177101275938,-0.057009183318881766,140.77202495190699,5.8514072492446285,-3.058571935892801,0
1767373136.208069,2,right_wrist,-0.4612,-0.609,-0.3572,-34.02,76.65,26.11,-0.327034999761215,-0.04023224932661798,-0.8220717351026459,0.4643571226875154,-115.70456813871522,35.103604600396984,-163.1185121686201,0
1767373136.286044,1,left_wrist,0.1054,0.5832,-0.7232,53.76,-0.63,78.05,0.31347403761151654,0.9477328587117961,-0.04309315460823383,-0.040980925897434364,143.23890246597446,2.903891345259596,-6.171945578845849,0
1767373136.286044,2,right_wrist,-0.3245,-0.2933,-0.5251,-28.28,14.35,-8.4,-0.3007681019165459,-0.04218095273575718,-0.8558362527094734,0.41869275685641905,-124.12444786757669,33.37649522284915,-167.57617927136744,0
1767373136.342231,1,left_wrist,0.0298,0.4441,-0.5427,88.83,11.76,128.87,0.2807235158399328,0.9547293951461593,-0.09758371163200524,-0.012787060742708842,147.39977088767947,-1.7404390007548245,-11.162988840851746,0
1767373136.342231,2,right_wrist,-0.2508,-0.3738,-0.528,43.33,-19.39,-55.09,-0.2944797767095517,-0.023585124209574124,-0.8482455752419347,0.43955073325793803,-121.02541238018007,31.353454059183925,-165.14991351193552,0
1767373136.4073632,1,left_wrist,0.264,0.3084,-0.6403,1.05,50.47,205.38,0.24774047663624246,0.9335570030852998,-0.24670815721679698,0.07893708500529568,153.90235114304437,-15.64187782411579,-25.959230559358918,0
1767373136.4073632,2,right_wrist,-0.3626,-0.7954,-0.3562,61.74,-38.22,-82.11,-0.2895057774430122,0.008567868087942587,-0.8304451128477233,0.47589275158472105,-115.50320537250832,28.20856760094078,-160.80209150237923,0
1767373136.4608798,1,left_wrist,0.2952,0.2557,-0.6983,6.09,51.38,228.9,0.23907163354638283,0.9027581340998558,-0.33363732034986326,0.1286803940768497,157.92372191516114,-23.070344876436025,-36.006400818514095,0
1767373136.4608798,2,right_wrist,-0.3787,-0.833,-0.4519,57.26,-32.06,-84.63,-0.27970572381184683,0.040601834939109904,-0.81475567989911,0.5062503147046995,-111.32723503379627,24.498805448943514,-157.42276451841656,0
1767373136.5460742,1,left_wrist,0.5431,0.5675,-0.752,-55.44,40.74,219.87,0.25694828243678514,0.8572401109368243,-0.4166138434224226,0.1598432914532373,159.38088064207443,-29.218703305144484,-46.409809050047414,0
1767373136.5460742,2,right_wrist,-0.3953,-0.8486,-0.3187,8.75,-16.59,-69.72,-0.2626286994463267,0.09932880265276992,-0.7985508938112578,0.5324250418452718,-108.10652054823326,18.280811992002956,-152.50993340985175,0
1767373136.604206,1,left_wrist,0.815,0.5129,-0.8086,-74.48,48.79,170.31,0.2959549373415447,0.7513898627731741,-0.5493779038288449,0.2144944474094774,164.075928770771,-40.35488891767177,-66.46014627641343,0
1767373136.604206,2,right_wrist,-0.3953,-0.8486,-0.3187,8.75,-16.59,-69.72,-0.25534851260540553,0.12376219860707263,-0.792508420710355,0.5398244699986555,-107.33340912880486,15.730446038788594,-150.64552231160653,0
1767373136.6602612,1,left_wrist,0.8774,0.9184,-0.7935,0.35,55.58,148.47,0.29793901649821414,0.7092188423424454,-0.5881524798822434,0.24963500660541565,169.52969094124722,-44.793914705556965,-75.01268317356988,0
1767373136.6602612,2,right_wrist,-0.305,-0.8018,-0.2342,-4.27,-5.6,-52.99,-0.2482778456159355,0.1410897450641639,-0.7894443086086216,0.5433502358695489,-107.14415870970998,13.808691529490451,-149.52060142698585,0
1767373136.7447119,1,left_wrist,0.8955,0.5427,-0.7422,8.19,52.43,116.48,0.29932265725044405,0.6741432998290939,-0.6140398827748316,0.2808768066500767,174.94630717895635,-48.27041035120446,-82.39179045777394,0
1767373136.7447119,2,right_wrist,-0.1347,-0.9335,-0.2547,-7.07,-12.6,-44.31,-0.2297310553477861,0.18323212161285474,-0.7812925654232853,0.5506646520636184,-106.95428860846226,9.042985698434986,-146.89923563984985,0
1767373136.8107,1,left_wrist,0.794,0.4382,-0.3723,-21.7,74.83,7.84,0.3391808568373659,0.6354303578532569,-0.6150954516111073,0.32069018083015915,176.2944912614081,-55.569208384606945,-86.18386861643602,0
1767373136.8107,2,right_wrist,-0.0791,-1.0077,-0.3587,12.04,-2.24,-39.9,-0.21821261266162864,0.19868347377782053,-0.7756766492834107,0.5578833826880174,-106.51376321979227,6.709790193683094,-146.2543240629853,0
1767373136.891117,1,left_wrist,0.6974,0.2011,-0.3167,43.12,90.65,-5.88,0.35558258093056944,0.630206981795307,-0.5914589868719468,0.355775849494615,176.8334826272611,-60.34841584785493,-84.52531901056274,0
1767373136.891117,2,right_wrist,-0.183,-1.0599,-0.3558,-13.3,0.49,-21.28,-0.20664876820324954,0.21386328426980689,-0.7745051867902418,0.5583014399734467,-106.98724061713007,4.663335445948291,-145.6749103972853,0
1767373136.9586508,1,left_wrist,0.8189,-0.0327,-0.5402,55.58,81.83,-19.25,0.3811802140313477,0.6274322840570995,-0.537900847035308,0.4143586032805462,174.91619931456313,-68.44077820376584,-77.75448861613327,0
1767373136.9586508,2,right_wrist,-0.1649,-0.9477,-0.3558,-27.51,-4.06,-16.17,-0.2034799181310832,0.22110296460418644,-0.7813125261572618,0.5470467424547611,-108.63857033548102,4.361871501362281,-145.2652956492401,0
1767373137.040853,1,left_wrist,0.9184,-0.0142,-0.5695,72.45,59.57,-6.16,0.3734758882055984,0.6309731927546673,-0.5146863814171125,0.44439455412704937,177.56614627498783,-70.95244096302788,-76.67376380479644,0
1767373137.040853,2,right_wrist,-0.0542,-0.9672,-0.3484,3.57,-12.18,-7.91,-0.2037616828774363,0.23537517347270712,-0.7792808756790238,0.5438759243656422,-109.02485386715557,3.5285207932335347,-143.87090259421132,0
1767373137.1096032,1,left_wrist,1.0746,-0.0927,-0.5017,88.13,25.41,5.39,0.334546230264546,0.6451515622834657,-0.47613434072508676,0.49513066061522787,-172.06724731681544,-73.22520164398166,-78.75439545058993,0
1767373137.1096032,2,right_wrist,-0.0512,-0.9399,-0.3289,0.7,-10.15,-5.32,-0.20224917649181318,0.24218199250836442,-0.7780464138777703,0.5432190451051985,-109.17498353225426,2.957933618582357,-143.31717554317,0
1767373137.1857688,1,left_wrist,1.0365,-0.1659,-0.4055,130.83,0.7,8.19,0.29207892916596206,0.6612348275537244,-0.4520461947779811,0.522601798460366,-163.0655746737036,-72.78315010572035,-81.23896320608242,0
1767373137.1857688,2,right_wrist,-0.0468,-0.9418,-0.3475,-3.57,-4.27,-1.75,-0.20041595705620754,0.24990113758218466,-0.7778893520425952,0.5406209592414316,-109.59778734516617,2.3841518589600277,-142.69818616912642,0
1767373137.2363641,1,left_wrist,0.9692,-0.1654,-0.305,82.95,13.37,-6.16,0.26824192402729746,0.6683101000885561,-0.43207705327742135,0.5428787160543852,-157.47433567056646,-73.22093041660008,-82.5993474070264,0
1767373137.2363641,2,right_wrist,-0.0615,-0.9433,-0.3621,-4.27,-8.68,-1.96,-0.20348561694898581,0.25212553423041195,-0.7800888195625719,0.5352455065457279,-110.1574971465487,2.726909923975723,-142.27421778859332,0
1767373137.295694,1,left_wrist,0.8945,-0.1908,-0.3772,62.37,17.15,-16.17,0.25415996679509834,0.6752192975120636,-0.41279620621787844,0.5559504507401327,-155.3827973253353,-73.86498200224712,-81.50828128444276,0
1767373137.295694,2,right_wrist,-0.0571,-0.9589,-0.3621,-1.05,-12.74,-1.96,-0.20845475421662368,0.2548798339464774,-0.7811137775335442,0.5305131027968868,-110.53258797783046,3.1654588408484763,-141.66175792515145,0
1767373137.3653498,1,left_wrist,0.9862,-0.0161,-0.3533,-12.88,-0.63,-17.08,0.25690819780801744,0.6805293707783576,-0.4010459686887345,0.5568124319782773,-158.64201897330392,-74.56186081305292,-77.36143641253797,0
1767373137.3653498,2,right_wrist,-0.0795,-0.9555,-0.3411,1.33,-15.54,0.56,-0.2175287682112012,0.25577532248043344,-0.778685501601737,0.5300085933320318,-110.14108516025277,3.878835901554157,-140.9229241419257,0
1767373137.447798,1,left_wrist,0.9399,-0.0678,-0.2757,-5.53,-4.13,-16.1,0.2624572736191935,0.6861217853859711,-0.3977176185807938,0.5497033481920675,-163.35526314931673,-74.38553605860535,-72.8667936797871,0
1767373137.447798,2,right_wrist,-0.124,-0.9384,-0.3387,0.91,-13.16,6.09,-0.2356917344836874,0.25339232534265066,-0.7768037407150657,0.5261346635269304,-109.69034876415083,5.712421430225215,-139.84287962986977,0
1767373137.506166,1,left_wrist,0.9887,0.0215,-0.1386,8.26,-2.24,-16.03,0.2708443065297977,0.6939839004141718,-0.3806491018086956,0.5478466654809164,-170.76203832154474,-75.14702997070405,-64.60307394010768,0
1767373137.506166,2,right_wrist,-0.1254,-0.9145,-0.3528,1.19,-9.31,4.83,-0.2416463591034566,0.2524200703452666,-0.7781895941259239,0.5218353196297313,-109.92311665868783,6.468096130410726,-139.51922708209267,0
1767373137.558283,1,left_wrist,0.9355,-0.0376,-0.265,-6.37,12.95,-15.05,0.27751788836791397,0.6946635376301142,-0.3769240449935799,0.5462185052052949,-173.99896457181487,-75.4850984152385,-61.61541787145492,0
1767373137.558283,2,right_wrist,-0.1259,-0.8716,-0.3455,-0.28,4.13,-4.97,-0.23980597918878896,0.25241990152705707,-0.7803268464982376,0.5194875342994221,-110.33065737104751,6.4303949579212105,-139.67187893270204,0
1767373137.6102688,1,left_wrist,1.0394,0.0327,-0.2098,11.48,4.9,-11.9,0.2807911335454713,0.6962051221732685,-0.36750720571784273,0.5489929151887271,-177.00281121205802,-76.12205684744966,-58.00365221555799,0
1767373137.6102688,2,right_wrist,-0.0649,-0.8623,-0.368,-2.73,1.54,-8.82,-0.23394793403771263,0.25732214357994837,-0.7813894362203264,0.5181546367120409,-110.81255334717002,5.678339504390692,-139.62718189261227,0
1767373137.660643,1,left_wrist,0.9326,0.0137,-0.2157,8.89,-10.36,-12.18,0.2828849679371617,0.7016803482708518,-0.3601340423733483,0.5458243813622826,179.09646205269462,-75.86933634216176,-53.633616005180954,0
1767373137.660643,2,right_wrist,-0.08,-0.9179,-0.365,7.42,3.5,-11.06,-0.22774444097408295,0.26174890186704314,-0.7797777904029832,0.521120503886616,-110.75275578909527,4.725075241028408,-139.6257130525003,0
1767373137.735452,1,left_wrist,0.977,0.0229,-0.2508,-5.53,-21.49,-13.02,0.28715811112919765,0.7100428636843594,-0.35781542398579186,0.5341792520320249,174.48785627969852,-74.59657629703526,-49.29003760245148,0
1767373137.735452,2,right_wrist,-0.0532,-0.9565,-0.3587,9.73,-3.01,-3.36,-0.21956918024671734,0.2693331170851052,-0.7745516550506771,0.5285061785686734,-110.21065080594434,3.1785040508437725,-139.43482701882957,0
1767373137.792166,1,left_wrist,1.0458,0.0825,-0.3372,16.52,-26.18,-12.39,0.28199925687925625,0.7224205848901188,-0.35239237658279915,0.5238363585824226,172.54033349175896,-72.86420196720813,-46.49594267773596,0
1767373137.792166,2,right_wrist,-0.0473,-0.9467,-0.3133,7.7,-1.54,-3.08,-0.22068591969493648,0.2698273598393482,-0.7701418872942738,0.5342025778347957,-109.40806615568366,2.959726356029379,-139.28757857843758,0
1767373137.860508,1,left_wrist,1.0087,0.0927,-0.3982,-8.75,-71.68,-42.28,0.2831682999400072,0.7586875384893479,-0.3417985084082578,0.47684663414975514,164.91987818001178,-66.50979128632072,-38.58293405840117,0
1767373137.860508,2,right_wrist,-0.0512,-0.9575,-0.306,6.09,-1.05,-3.78,-0.22187748836775636,0.27014873443050974,-0.7661523379956725,0.5392593406005824,-108.68217942007384,2.787017755232585,-139.15440685821696,0
1767373137.937779,1,left_wrist,0.9692,0.2674,-0.3182,-37.94,-67.13,-66.15,0.30281535300532136,0.7768323591139923,-0.3333160344953759,0.440153119909344,157.57989699123553,-62.339860210019054,-32.77300130975834,0
1767373137.937779,2,right_wrist,-0.0444,-0.9521,-0.3157,3.15,1.89,-8.05,-0.21938090513924002,0.2735683458773465,-0.7622337110947989,0.5440883643902624,-108.17319213600332,2.105998697956518,-138.98819855985172,0
1767373138.0047638,1,left_wrist,0.792,0.224,-0.3255,-2.8,-58.52,-84.49,0.32870245657126784,0.8167098993666132,-0.2964000920291782,0.3702521043366061,148.08859647418947,-53.094974773118295,-23.634833054276516,0
1767373138.0047638,2,right_wrist,-0.0371,-1.1488,-0.3016,-8.75,-1.33,3.71,-0.22046299307152717,0.2729840921078383,-0.7625983233853647,0.5434331157666357,-108.20377358237049,2.2667669138042155,-138.96788891761088,0
1767373138.056433,1,left_wrist,0.8106,0.2816,-0.2738,35.21,-33.95,-79.45,0.32591486093261457,0.8352464194605359,-0.2666768645792583,0.3535906844075573,146.49392999435355,-49.862406984055426,-19.483076092801074,0
1767373138.056433,2,right_wrist,-0.0224,-0.9692,-0.3284,-4.13,2.1,3.99,-0.21651820225519675,0.2742194114706358,-0.7646154921222522,0.5415595365899506,-108.65398837138417,1.9538248928680633,-139.13793916040356,0
1767373138.118389,1,left_wrist,0.8013,0.3416,-0.3021,48.93,-5.04,-67.76,0.31949134014325326,0.8487207318957606,-0.23459167869237277,0.3500930549326663,145.531070129794,-48.08721327910754,-15.143143571499234,0
1767373138.118389,2,right_wrist,-0.0176,-0.9096,-0.3216,0.63,-1.68,2.66,-0.214572193712717,0.2759384508773206,-0.7655813987152158,0.5400943130176342,-108.94525940125045,1.7466105825011855,-139.11148730642498,0
1767373138.187701,1,left_wrist,0.8091,0.3294,-0.4285,79.94,5.39,-57.19,0.29952389441057303,0.8624215991003849,-0.20064981689159914,0.3553224916377045,146.63709000384577,-47.14475589580215,-11.296723049506697,0
1767373138.187701,2,right_wrist,-0.0278,-0.9101,-0.3523,-6.3,4.27,-4.41,-0.20771268008321458,0.2783309077373375,-0.7718807140152002,0.5325293528643678,-110.28178984450055,1.3878433439524411,-139.37588582957204,0
1767373138.265279,1,left_wrist,0.7896,0.2699,-0.4499,51.1,11.55,-42.7,0.27163715885782125,0.8769274911513187,-0.14764491675822575,0.36798424931803947,147.69459128916154,-46.51900852177319,-4.921294904581525,0
1767373138.265279,2,right_wrist,-0.0493,-0.9257,-0.3626,-3.71,1.75,-5.32,-0.20734028251889974,0.2786671178182963,-0.7743420657641872,0.5289130456699644,-110.77168179016444,1.5083857795612123,-139.37368048500053,0
1767373138.342946,1,left_wrist,0.8408,0.1098,-0.4851,10.5,8.82,-31.22,0.27058102090009994,0.8778532946498544,-0.1348502553207882,0.3714497447044134,147.01614852320768,-46.4798800288454,-2.975334087356076,0
1767373138.342946,2,right_wrist,-0.0429,-0.935,-0.3436,0.56,1.75,-5.18,-0.2091185923276891,0.2776134855187437,-0.774427208165659,0.5286422857223618,-110.7184939544557,1.7407875486172075,-139.35416876982435,0
1767373138.393255,1,left_wrist,0.814,0.3138,-0.5695,20.86,-2.8,-15.4,0.26261045988619514,0.8805640382348822,-0.12775908043986925,0.3732563975218604,147.82033567178127,-46.42345125280167,-2.4076686912354437,0
1767373138.393255,2,right_wrist,-0.0517,-0.954,-0.3196,1.89,2.17,-2.1,-0.21051502691040402,0.2760424316119084,-0.7724698854225791,0.5317652447367395,-110.2423428276282,1.8139146646491404,-139.4067972652751,0
1767373138.459579,1,left_wrist,0.7359,0.3323,-0.5783,17.08,9.1,-15.33,0.24839865267987515,0.8834621176627111,-0.10876571456576065,0.3820508020365096,148.67795047506348,-46.81010404273427,-0.19915460551947298,0
1767373138.459579,2,right_wrist,-0.0654,-0.955,-0.3104,1.75,5.11,1.89,-0.21232388830929447,0.2720738980348908,-0.7715927950451198,0.5343584181949246,-109.81534979826131,2.1138463254022373,-139.66804328799873,0
1767373138.543693,1,left_wrist,0.7291,0.3626,-0.6041,18.34,2.94,-14.0,0.24321029240506484,0.8873144456836557,-0.09948974246494581,0.3789770696145198,149.06962200096666,-46.131937801211386,0.6436506509287375,0
1767373138.543693,2,right_wrist,-0.0981,-0.9277,-0.2708,13.02,12.67,0.21,-0.21421678463846816,0.2596762573979741,-0.7681828029424121,0.5445866246856202,-108.38563678096668,2.6527606035743085,-140.73151353407272,0
1767373138.608526,1,left_wrist,0.6627,0.2669,-0.6022,18.48,6.3,-18.55,0.22693996745002407,0.8943268087730367,-0.07489547729589958,0.3782439394943924,150.24120015876775,-45.27894516282105,3.0724702733013673,0
1767373138.608526,2,right_wrist,-0.0859,-0.9804,-0.2752,36.19,14.0,7.42,-0.2180972493809374,0.24847384733884242,-0.7602873167532188,0.5591578784076048,-106.25763700522127,3.081759906371705,-141.49191691972484,0
1767373138.663247,1,left_wrist,0.7564,0.4216,-0.6368,1.82,9.66,-17.5,0.23357076757741668,0.8926004142065366,-0.06491744924183848,0.3801248766860029,148.58500862114101,-45.14750793903149,5.017278981856527,0
1767373138.663247,2,right_wrist,0.0059,-1.0111,-0.2606,16.03,24.85,11.27,-0.21190755429525246,0.23900802996138434,-0.7579546623381631,0.5687486966019561,-105.2814947588962,2.8293626520779385,-142.8362387076506,0
1767373138.737545,1,left_wrist,0.7588,0.285,-0.5573,11.55,12.53,-12.46,0.22900840137716547,0.8910735454346834,-0.0587207865425518,0.38742090541549523,148.63605216616685,-45.83498344144024,5.997385173666715,0
1767373138.737545,2,right_wrist,0.0444,-0.8813,-0.3274,-43.12,46.34,-0.56,-0.17422030799883373,0.22526266237467393,-0.7821258804362083,0.5542410345441335,-108.96636211346026,1.307878371579297,-146.93229087326364,0
1767373138.7887738,1,left_wrist,0.8111,0.2835,-0.51,1.19,9.24,-4.06,0.22824941889401587,0.8883785824806777,-0.05736567408764453,0.3942015682371593,148.3706591838599,-46.60109686316236,6.520877785015539,0
1767373138.7887738,2,right_wrist,0.0834,-0.8706,-0.429,-62.09,50.33,-6.02,-0.1465179838931318,0.22177237811329156,-0.8011142811707032,0.5362512482094705,-112.45365393454385,-0.17739549234603436,-149.17127754339933,0
1767373138.840786,1,left_wrist,0.7091,0.4138,-0.5588,-17.15,13.86,-2.38,0.239781191482415,0.8834878012173066,-0.05603011390564519,0.39851588631722423,146.25569389881875,-46.97346577712889,7.758102177803999,0
1767373138.840786,2,right_wrist,0.0449,-0.8608,-0.4621,-45.01,40.81,-7.42,-0.12413070192159267,0.21897699771040036,-0.8148457709987648,0.5221752701915522,-115.08718221145347,-1.5124399208823756,-150.87802459893288,0
1767373138.896169,1,left_wrist,0.631,0.4285,-0.4656,-31.15,-6.02,-1.68,0.2559337975469404,0.8803353775886333,-0.05949631167900405,0.39492746566385434,144.07454884079525,-46.534728948194804,8.139467967153108,0
1767373138.896169,2,right_wrist,0.0381,-0.8569,-0.4714,-25.69,40.04,-9.94,-0.10384370913103233,0.215653966187121,-0.8234950105328034,0.5143596198859818,-116.73615236497554,-2.91290192350166,-152.44475479319368,0
1767373138.965473,1,left_wrist,0.8218,0.4446,-0.5568,-29.26,-15.33,1.68,0.28199113434704387,0.8752469792023356,-0.07341997926734094,0.3860482252144634,141.17198304259543,-45.82236219637835,7.354185467156842,0
1767373138.965473,2,right_wrist,0.0961,-0.8833,-0.5578,-4.48,31.78,-3.08,-0.08932653273952496,0.21115711191318348,-0.8271723624815617,0.5130490496861774,-117.30277889601523,-3.9502943132184227,-153.7662292548385,0
1767373139.046446,1,left_wrist,0.7257,0.3816,-0.5046,-20.51,-10.5,3.01,0.286767057400629,0.87335106270411,-0.08134405136457365,0.3852346315831221,140.87314640502552,-46.01682346255402,6.520571747068316,0
1767373139.046446,2,right_wrist,0.1254,-0.8384,-0.468,-1.4,0.91,0.49,-0.0784017853886923,0.21236026838814476,-0.8318652803990916,0.5067113889824476,-118.41838939306807,-4.862873096776231,-154.2574706286921,0
1767373139.109129,1,left_wrist,0.734,0.385,-0.5622,-5.46,-1.61,-0.56,0.2857536470118594,0.8741012627768276,-0.0904671666926532,0.38224014360344316,141.67442802914613,-46.04918270228294,4.984128568967045,0
1767373139.109129,2,right_wrist,0.0834,-0.9233,-0.387,33.6,-3.5,3.71,-0.08426899941194121,0.21002883582299867,-0.8227203270258633,0.5214574645734805,-116.32079220932228,-4.610556255768978,-154.22217460726068,0
1767373139.189315,1,left_wrist,0.6959,0.4202,-0.5397,-6.37,3.5,-1.26,0.28750082305539926,0.8745941964736227,-0.09016900811178384,0.379865526487023,141.49944877608348,-45.7501440610287,4.990474457943508,0
1767373139.189315,2,right_wrist,0.0732,-0.8677,-0.4255,-4.9,7.35,-7.49,-0.08152290664151993,0.21033805052141583,-0.8204578043828883,0.5253198182276949,-115.87755614952611,-5.003539472300909,-154.37710347686937,0
1767373139.242947,1,left_wrist,0.7086,0.4778,-0.5407,0.14,7.7,-2.59,0.2921652169659651,0.8729430912319799,-0.08594499783106507,0.38108175345115114,140.4744348879689,-45.687934660549466,5.96762730947939,0
1767373139.242947,2,right_wrist,0.12,-0.9277,-0.4602,10.08,2.45,-4.76,-0.07636382213749918,0.213712569083946,-0.8178041235142516,0.5288590739007686,-115.54148472199549,-5.805187110820133,-154.3711560259278,0
1767373139.308856,1,left_wrist,0.7149,0.4368,-0.5124,0.98,-0.56,-5.46,0.2961805694484685,0.8698854068687694,-0.08211606158218314,0.3857893228540259,139.3793033268146,-46.04022945262336,7.088781379433657,0
1767373139.308856,2,right_wrist,0.1244,-0.9048,-0.4514,1.54,-7.0,0.07,-0.07568586169313588,0.21746057536550842,-0.8180745974819427,0.5270071170830875,-115.81678336334221,-6.048667482767454,-154.02299220273153,0
1767373139.386133,1,left_wrist,0.7208,0.4529,-0.5226,-1.89,-2.87,-5.6,0.29995347463473115,0.8684850248804717,-0.08036990445749052,0.3863966266291824,138.65074306702823,-46.002807018455485,7.627758083313353,0
1767373139.386133,2,right_wrist,0.0859,-0.8926,-0.3972,8.75,-6.58,-2.52,-0.08399638161162779,0.21962344267687398,-0.8104866024041074,0.5364900918249638,-114.34888200981706,-5.710132424453186,-153.36181441581735,0
1767373139.4388218,1,left_wrist,0.7052,0.4509,-0.4968,-4.2,-5.04,-7.21,0.3047989077645112,0.8671923601600853,-0.07869987612274933,0.38585148153636234,137.82233920098733,-45.822981629807515,8.143806083900236,0
1767373139.4388218,2,right_wrist,0.0966,-0.9174,-0.4158,1.89,-4.76,-2.8,-0.08910420103951447,0.21924390358737997,-0.8107553958020418,0.5354140830000198,-114.36003399775886,-5.180240373452761,-153.07839573066525,0
1767373139.5109582,1,left_wrist,0.6988,0.4563,-0.5144,-1.68,-2.52,-8.96,0.30442412321780926,0.8685103609524382,-0.07563081790647305,0.3837912003995554,137.84985755710701,-45.45509985023222,8.385611797238584,0
1767373139.5109582,2,right_wrist,0.0849,-0.8896,-0.4202,-5.81,-5.74,-1.68,-0.0903600731258974,0.22147838381051968,-0.8137374283292979,0.5297299127153227,-115.09196224823614,-5.024902015251625,-152.7455235904877,0
1767373139.564422,1,left_wrist,0.7149,0.448,-0.5134,0.07,-3.29,-8.89,0.30237941448867045,0.8691342418781322,-0.07512511901846622,0.38409448808968155,138.1319897549309,-45.48704273508815,8.340721682461137,0
1767373139.564422,2,right_wrist,0.0805,-0.876,-0.4275,-5.46,-4.06,-5.74,-0.09029351345809022,0.22462983316859936,-0.8162956103048291,0.5244520913058764,-115.80379292817173,-5.060222417191872,-152.40340232208186,0
1767373139.639661,1,left_wrist,0.7042,0.4407,-0.5051,0.56,-4.06,-7.7,0.30038631623628576,0.869559834877925,-0.07499453474174664,0.38472012469318406,138.40588695763375,-45.57186297908661,8.271337711820088,0
1767373139.639661,2,right_wrist,0.1108,-0.8867,-0.4275,4.41,-2.03,-7.56,-0.08189525062929413,0.23535382399322144,-0.8117699058774043,0.5281395321010568,-115.57036333847954,-6.640489710679817,-151.85038712519238,0
1767373139.708632,1,left_wrist,0.693,0.4787,-0.5212,-3.71,-8.19,-2.17,0.3036472938119709,0.8709795919432055,-0.07440564961766585,0.3790206731618832,138.18801704135873,-44.86386439398706,8.156909698543028,0
1767373139.708632,2,right_wrist,0.1035,-0.8955,-0.4343,7.63,-0.35,-3.29,-0.0852577166148151,0.23449128218927306,-0.8113374950101467,0.5286553031281523,-115.41005213381817,-6.2913675635146475,-151.73835559676223,0
1767373139.760401,1,left_wrist,0.6593,0.5061,-0.5192,-5.67,-10.92,-1.54,0.30896001895831826,0.8723734247649474,-0.07379553174895065,0.3715676707452386,137.74363651238872,-43.938930736173184,8.050531542150749,0
1767373139.760401,2,right_wrist,0.1166,-0.8872,-0.4099,2.73,-0.77,-2.45,-0.08363846832606218,0.23621192097581198,-0.8083898808336861,0.5326484164725225,-114.92590630883913,-6.685006160900478,-151.6909910472911,0
1767373139.8470101,1,left_wrist,0.6583,0.4939,-0.5344,-4.27,-10.43,-1.75,0.3122130062180553,0.8746762614757619,-0.07326573846884041,0.3634509704563801,137.65509756332932,-42.965112025526786,7.757975246443347,0
1767373139.8470101,2,right_wrist,0.141,-0.9033,-0.4182,9.17,-3.43,-2.8,-0.07778122331979763,0.24378050775382404,-0.8030096217187006,0.5382347933433448,-114.35721789661633,-7.903448427132385,-151.3274724162644,0
1767373139.905167,1,left_wrist,0.6603,0.4865,-0.5558,-1.26,-7.07,-2.38,0.3106268680959272,0.8803429717646403,-0.07326718437299458,0.35091184160066574,138.53488738239562,-41.55686595922747,6.831105381864663,0
1767373139.905167,2,right_wrist,0.1357,-0.9072,-0.4255,3.36,-4.06,-2.52,-0.07908577623414272,0.24572347170578476,-0.8038277096860691,0.5359350973682802,-114.64063626911474,-7.830386369606785,-151.03178614568466,0
1767373139.965152,1,left_wrist,0.6515,0.4875,-0.5534,-0.14,-5.67,-1.89,0.30949244546691923,0.8830131766852172,-0.07285275440186706,0.34524575620164905,138.95767619888798,-40.90508234296167,6.46059732884453,0
1767373139.965152,2,right_wrist,0.122,-0.8818,-0.4143,0.21,-4.62,-1.47,-0.08276207370187642,0.2460508699317609,-0.8054229425534506,0.5328257615496176,-114.96181927061515,-7.405312156323369,-150.75001300881968,0
1767373140.038659,1,left_wrist,0.6578,0.4865,-0.5588,0.84,-3.71,-1.19,0.308463858517909,0.8823399601504449,-0.07431666493821938,0.34756765675536466,139.06649476647738,-41.23840684230862,6.3583953605469485,0
1767373140.038659,2,right_wrist,0.12,-0.8906,-0.4026,0.56,-3.92,-1.54,-0.08939890581585362,0.24564260210874175,-0.8016193727161995,0.5376559577966762,-114.13341124342378,-6.9391193609895545,-150.4244480019505,0
1767373140.106814,1,left_wrist,0.6578,0.4763,-0.5441,2.1,0.14,-0.91,0.30845101117942286,0.879867753960074,-0.07534161058540705,0.3535736853302902,138.82635527537664,-41.964849005919966,6.605965100075358,0
1767373140.106814,2,right_wrist,0.12,-0.9048,-0.4031,1.05,-3.78,-0.49,-0.09218127317744433,0.2454784000500688,-0.799474389516167,0.540447655644833,-113.68081874801656,-6.7734204046210476,-150.29035707353444,0
1767373140.161984,1,left_wrist,0.6554,0.4865,-0.5475,1.61,0.56,-1.4,0.3120670822255798,0.8791184511361912,-0.07251208054167307,0.3528553290495063,138.1884299055369,-41.733019231697796,7.1384912752433305,0
1767373140.161984,2,right_wrist,0.1205,-0.8989,-0.4085,-0.63,-4.06,0.63,-0.09227045969729761,0.24738578095821967,-0.8012325000323529,0.5369477800855933,-114.15433157714595,-6.765515323943784,-150.0667610875784,0
1767373140.238028,1,left_wrist,0.6554,0.486,-0.5441,0.91,0.28,-1.33,0.3105124765344437,0.8780369053117262,-0.0736596508451394,0.35666153516243615,138.2850825909192,-42.22691114924415,7.148220846199889,0
1767373140.238028,2,right_wrist,0.1196,-0.8857,-0.4099,1.61,-3.64,0.49,-0.09122218029918122,0.2515928481697899,-0.8034562272798162,0.5318248239942933,-114.88349039683101,-6.95100718691942,-149.66678368616974,0
1767373140.2963588,1,left_wrist,0.651,0.4821,-0.5456,1.05,0.42,-1.54,0.3096347926388143,0.8798951771683937,-0.07205800847523904,0.35315494587772883,138.52309296915874,-41.76692348886708,7.076904688045961,0
1767373140.2963588,2,right_wrist,0.1122,-0.9043,-0.4158,1.19,-2.8,0.56,-0.09650332531409564,0.24938703499151554,-0.8031428957314966,0.5324046431216477,-114.6466113714501,-6.346313138450111,-149.57247648756723,0
1767373140.357501,1,left_wrist,0.6622,0.4865,-0.5431,-0.56,0.07,0.14,0.30942540981366956,0.8782142477256807,-0.07218359559578542,0.35747052938686197,138.34487362876914,-42.263585382511316,7.331248864684159,0
1767373140.357501,2,right_wrist,0.101,-0.896,-0.4089,0.63,-2.73,0.21,-0.10172545125290462,0.24726750055433375,-0.8032111969040103,0.5323180336086996,-114.49730963254964,-5.72971844235669,-149.4656446033275,0
1767373140.4117389,1,left_wrist,0.6647,0.4763,-0.5422,0.7,-0.07,0.77,0.3058375718135609,0.8779811776424093,-0.07472068426056637,0.36059568871031417,138.84980305371747,-42.7575294832318,6.990579813666132,0
1767373140.4117389,2,right_wrist,0.0986,-0.8989,-0.4041,1.82,-2.59,0.35,-0.10380900529937674,0.24687935798212762,-0.8008494682314043,0.5356439136726595,-113.99042959327456,-5.63599293981533,-149.3963164278468,0
1767373140.49141,1,left_wrist,0.6686,0.4782,-0.5378,1.26,-0.14,0.49,0.3081712659242124,0.8764338470470038,-0.07403915482999852,0.36250846357170347,138.36226940084268,-42.92675419649793,7.348019062592073,0
1767373140.49141,2,right_wrist,0.1161,-0.9013,-0.4031,1.47,-2.31,0.56,-0.09777461560334488,0.25255497697769114,-0.7990016923779585,0.5368914263839331,-114.02113408333116,-6.600454877356089,-149.20514048903325,0
1767373140.5560489,1,left_wrist,0.67,0.4778,-0.547,1.05,-1.26,-0.07,0.30795931454926717,0.8776231120141562,-0.07353957042416003,0.3599036890930174,138.50607847021328,-42.610743480806796,7.227450564364842,0
1767373140.5560489,2,right_wrist,0.1166,-0.9023,-0.4085,0.42,-2.24,0.35,-0.09698787113796548,0.2542515090375924,-0.8004495405633435,0.5340693363376753,-114.42697691282703,-6.67907859248201,-149.0615665524342,0
1767373140.638994,1,left_wrist,0.6608,0.489,-0.5456,0.0,-1.75,0.07,0.31058620888698985,0.8785239498064124,-0.07155017205644178,0.3558264314865339,138.22305466712535,-42.03998620786285,7.373462597139782,0
1767373140.638994,2,right_wrist,0.1083,-0.8857,-0.4177,0.7,-2.45,-0.21,-0.10072821212754339,0.25447191080960846,-0.803075351496764,0.5293088452962451,-114.94961466358706,-6.177202200869885,-148.77751859564356,0
1767373140.694248,1,left_wrist,0.6608,0.489,-0.5456,0.0,-1.75,0.07,0.3139220306101717,0.877214204514663,-0.07070977328821597,0.35629808595728146,137.65400508941968,-42.02803855104433,7.70911825671045,0
1767373140.694248,2,right_wrist,0.1132,-0.896,-0.4085,1.12,-2.73,-0.77,-0.10005784418339041,0.2560926914351706,-0.8005501414988605,0.5324701232529553,-114.55503474079573,-6.460647490411199,-148.67530678312158,0
1767373140.7446022,1,left_wrist,0.6608,0.4792,-0.5441,0.63,-1.4,-0.63,0.30974348827648535,0.8784562952296775,-0.07255459249492073,0.35652396826799854,138.36054229258602,-42.16964910212022,7.238794791657842,0
1767373140.7446022,2,right_wrist,0.1093,-0.9052,-0.4046,0.91,-1.96,-0.84,-0.10242664439740526,0.2554514998473156,-0.7985748104058845,0.5352864522182957,-114.10611470633057,-6.308904143207981,-148.61383589423528,0
1767373140.807053,1,left_wrist,0.6666,0.4792,-0.5441,0.35,-1.33,-1.12,0.3065472544616237,0.8785376817811995,-0.07488018077236677,0.3585990532615136,138.84856422851135,-42.531402395125944,6.88083714109237,0
1767373140.807053,2,right_wrist,0.1161,-0.9048,-0.4085,0.21,-2.8,-0.63,-0.09948523927340482,0.2588323351615298,-0.7986442339725754,0.5341122512954567,-114.36293671476776,-6.752712836461921,-148.44391799585867,0
1767373140.863028,1,left_wrist,0.6627,0.4753,-0.5388,0.35,-1.19,-1.05,0.3086997887830956,0.8769889163398349,-0.07445618822943673,0.3606260626420349,138.396867291718,-42.72648709915646,7.1988958313481675,0
1767373140.863028,2,right_wrist,0.1078,-0.9004,-0.4046,0.35,-3.01,-0.49,-0.10453964790280444,0.2570442941044155,-0.7985227999106479,0.5341919420092179,-114.19246391625559,-6.180868589117686,-148.31470673940774,0
1767373140.942267,1,left_wrist,0.6632,0.486,-0.5417,0.14,-1.68,-1.05,0.31165715302657343,0.8778087693954765,-0.07195623854899182,0.3565724092995009,138.03984392390709,-42.133175642634235,7.432399387732791,0
1767373140.942267,2,right_wrist,0.1108,-0.8896,-0.4104,1.05,-2.45,-0.56,-0.10094948735553295,0.2619328868877346,-0.8001214601999498,0.5301000025436828,-114.86315919833716,-6.670394998388393,-148.0101511395288,0
1767373141.004309,1,left_wrist,0.6564,0.4826,-0.5412,0.84,-1.12,-1.05,0.3113265877387584,0.8783585425428305,-0.07134816653128645,0.3556282689011091,138.11146525800154,-42.00252982628399,7.429899816530816,0
1767373141.004309,2,right_wrist,0.1059,-0.8989,-0.4075,0.98,-2.31,-0.98,-0.10490897400042325,0.2605512709748561,-0.798875017062703,0.5318889446873583,-114.4986829912455,-6.289396700300498,-147.92072244546702,0
1767373141.0634072,1,left_wrist,0.6656,0.4787,-0.5456,0.91,-1.33,-1.12,0.30756775270070735,0.8787200952657922,-0.07331592687364204,0.3576001210030168,138.67237433388357,-42.34242975378031,7.081744990085513,0
1767373141.0634072,2,right_wrist,0.1127,-0.8896,-0.4104,0.42,-2.17,-0.77,-0.10241952014531054,0.26343335115857436,-0.7994999643655015,0.5300121870015154,-114.83486592453501,-6.631136573292513,-147.76688711123273,0
1767373141.1483362,1,left_wrist,0.6651,0.4782,-0.5407,0.0,-1.54,-1.05,0.3082356582298498,0.877273697491033,-0.07399629527856454,0.360425008803593,138.45766004573431,-42.687502619674646,7.21837804177778,0
1767373141.1483362,2,right_wrist,0.1127,-0.9018,-0.4143,0.0,-2.17,-0.49,-0.1038744875610518,0.2646087409471095,-0.7990620166598891,0.52980392465491,-114.82137450735243,-6.5677032832245965,-147.5567210192188,0
1767373141.210685,1,left_wrist,0.6622,0.4856,-0.5544,0.35,-1.33,-0.63,0.3077465263695864,0.8804241279076527,-0.07202009980262776,0.3534947463964949,138.79129094079354,-41.81891050456816,6.994828758014334,0
1767373141.210685,2,right_wrist,0.1166,-0.8979,-0.4094,1.12,-2.38,-0.56,-0.10386808731238638,0.2655817900983366,-0.7965480757529095,0.5330937030396875,-114.38805448938696,-6.758695527857176,-147.48122131079813,0
1767373141.270598,1,left_wrist,0.6583,0.4797,-0.5329,-1.75,-1.4,-1.12,0.31007116261601514,0.8786385767824824,-0.07236579476444244,0.3558276510499386,138.33727684878738,-42.07979267741553,7.236818506880774,0
1767373141.270598,2,right_wrist,0.1137,-0.8974,-0.4168,-0.21,-2.8,-0.35,-0.10513121782782033,0.26636580690345585,-0.7984754614069707,0.5295598374892451,-114.82038462039343,-6.558861181857482,-147.29895854821388,0
1767373141.340587,1,left_wrist,0.6637,0.4778,-0.5383,-1.82,-0.98,-1.26,0.30976458152927006,0.8772864382547343,-0.07402443406951624,0.3590749120239483,138.29339571187307,-42.5227886756006,7.216020609781045,0
1767373141.340587,2,right_wrist,0.1093,-0.9038,-0.4114,0.98,-2.24,-0.77,-0.11043983910485736,0.2655528522224694,-0.7980708042726556,0.5294976071547454,-114.65630632033151,-6.023800585054293,-147.05607525196353,0
1767373141.4105742,1,left_wrist,0.6564,0.4919,-0.5397,-0.49,-0.98,-2.03,0.31826301090779957,0.8768105120916321,-0.06853279507766777,0.35385765184937606,137.0259223515311,-41.617541512615176,8.078481947858759,0
1767373141.4105742,2,right_wrist,0.1132,-0.8969,-0.4055,0.84,-2.8,-0.84,-0.10870822602695052,0.26791962131742264,-0.7957265304991932,0.5321850117834201,-114.36363325121776,-6.439935923795571,-146.93913930849098,0
1767373141.466114,1,left_wrist,0.6622,0.4738,-0.5295,-0.14,-1.19,-1.89,0.31551784151346807,0.8766777675288056,-0.07034356315755518,0.35628130280677184,137.39567700681124,-41.99587428297091,7.848720277214082,0
1767373141.466114,2,right_wrist,0.1088,-0.9062,-0.407,0.42,-2.59,-1.12,-0.1125838757487879,0.26670623729095294,-0.7945099632082989,0.5338038706062658,-114.0192074081891,-6.075542898162465,-146.8337853732555,0
1767373141.552879,1,left_wrist,0.6642,0.4914,-0.5392,-0.84,-1.54,-1.33,0.3129855137884268,0.876435063246482,-0.07251573779777898,0.35866853199350135,137.75389767261737,-42.383686644709776,7.577667391699092,0
1767373141.552879,2,right_wrist,0.1098,-0.8994,-0.4089,0.84,-2.03,-0.63,-0.11038035458948431,0.2708368215327345,-0.7950778465349423,0.531333051270203,-114.43234936708606,-6.447177199423052,-146.5329248496697,0
1767373141.610019,1,left_wrist,0.6647,0.4909,-0.5456,0.49,-1.19,-0.77,0.311181502715922,0.8774302343135897,-0.07268627384899691,0.35776942557156594,138.0836463523097,-42.304660189924064,7.388595061010587,0
1767373141.610019,2,right_wrist,0.1142,-0.8906,-0.4036,1.12,-1.96,-1.05,-0.10737885305505665,0.27373326034042916,-0.7930598709657617,0.5334753276054562,-114.2553174913647,-6.992773871357475,-146.43696518539716,0
1767373141.6962612,1,left_wrist,0.6515,0.487,-0.5422,-0.21,-1.33,-0.7,0.31223284768558685,0.8790030961366525,-0.07100840732312697,0.35330158773739,138.0759482093325,-41.7167571407846,7.373130674042348,0
1767373141.6962612,2,right_wrist,0.1196,-0.8979,-0.4104,-0.14,-2.03,-1.05,-0.10592789332353407,0.277130679029947,-0.7942976583324715,0.5301595025310695,-114.7547340727687,-7.213695148247681,-146.15318074053025,0
1767373141.7535172,1,left_wrist,0.6412,0.5012,-0.5524,0.35,-1.75,-2.1,0.3142237614541535,0.879233031884702,-0.06929521623542531,0.35129884199542033,137.80098767361798,-41.39874989318901,7.577708343520192,0
1767373141.7535172,2,right_wrist,0.1152,-0.9048,-0.408,1.75,-3.01,-0.77,-0.11038611807035194,0.2757239408003056,-0.7929745010279028,0.5319611396770034,-114.36579350767133,-6.792967455193399,-146.03764716311838,0
1767373141.808724,1,left_wrist,0.6549,0.4968,-0.5622,-0.63,-1.61,-4.69,0.3124720193842283,0.8812962055193879,-0.068253573691662,0.34787883654713503,138.19003618230943,-40.982103496952504,7.390197201494367,0
1767373141.808724,2,right_wrist,0.1098,-0.8891,-0.4241,-2.1,-2.52,-2.03,-0.11087272275343564,0.27715175449815194,-0.7951455605237909,0.527861423014736,-114.89740450530904,-6.67720127135804,-145.83263030637283,0
1767373141.861449,1,left_wrist,0.6202,0.489,-0.5519,-3.64,-1.96,-9.45,0.3151769373141074,0.8829482394993928,-0.06425563385858392,0.3419606966709095,137.90605250769693,-40.11852992877568,7.671759618757062,0
1767373141.861449,2,right_wrist,0.1191,-0.8974,-0.4006,-3.99,-3.5,-4.97,-0.11042117208511167,0.2796481261461876,-0.7932896885945605,0.5294294667543744,-114.71411323961411,-6.944968293601372,-145.61519968132467,0
1767373141.914869,1,left_wrist,0.6495,0.4636,-0.5436,-5.53,-4.62,-14.35,0.31643616286420284,0.88285746660173,-0.06245533643230726,0.34136517023340585,137.67454119055006,-39.96203172059488,7.931328073503822,0
1767373141.914869,2,right_wrist,0.1132,-0.9028,-0.4016,-1.26,-5.88,-9.03,-0.11254022985688006,0.2825181876041731,-0.7908632604955993,0.5310870677533804,-114.4347235266994,-7.011909155883459,-145.2029002089536,0
1767373141.997441,1,left_wrist,0.6647,0.486,-0.4939,-1.89,-6.79,-16.03,0.3200147718830699,0.882392771696578,-0.05836783614309597,0.3399510816841597,137.04947641129738,-39.590624083445526,8.55018321925473,0
1767373141.997441,2,right_wrist,0.1503,-0.9111,-0.3787,-2.1,-10.71,-15.82,-0.11107036094871392,0.29625702707109824,-0.783232031229166,0.5352034511158834,-113.99317606057227,-8.228881414261961,-143.91172436283242,0
1767373142.05926,1,left_wrist,0.6388,0.5383,-0.529,-0.56,-16.59,-17.71,0.3278171213052293,0.8839016969668069,-0.05026510639474215,0.3297379931968364,136.0928217697164,-38.014979163431015,9.300675052197366,0
1767373142.05926,2,right_wrist,0.1596,-0.956,-0.388,-12.25,-11.06,-16.59,-0.10930278636272285,0.3048553569860986,-0.7813747533589114,0.533450660345944,-114.32477702695975,-8.88418659855263,-143.11369411126495,0
1767373142.1371279,1,left_wrist,0.6154,0.5314,-0.528,-2.1,-21.98,-18.34,0.3321250458868577,0.8853996747804671,-0.04721735327294925,0.32176216580448574,135.73932709266202,-36.95161401690883,9.370729986603465,0
1767373142.1371279,2,right_wrist,0.1923,-0.9209,-0.4543,-26.6,-10.36,-22.54,-0.0946061834796549,0.3290981544517272,-0.7883047059052543,0.5111944497268252,-117.88758564259322,-10.795799532589486,-141.19475942435992,0
1767373142.19086,1,left_wrist,0.6471,0.5397,-0.588,1.89,-25.27,-15.4,0.32989354745637467,0.8894028369467903,-0.046971917514041464,0.31293206921423644,136.45569306175494,-35.989487462381305,8.737664142175761,0
1767373142.19086,2,right_wrist,0.2089,-0.9311,-0.4797,-45.78,-11.27,-20.09,-0.08611409906585163,0.3407278737233237,-0.7929773061610395,0.4976704430882354,-120.01235179642084,-11.68712986875556,-140.25688986612394,0
1767373142.257618,1,left_wrist,0.792,0.4563,-0.7764,7.98,-47.88,-4.62,0.31710457838386646,0.9025548514612848,-0.05368134751223317,0.28628262154898493,139.53374570773096,-33.423062809294514,5.821950129617454,0
1767373142.257618,2,right_wrist,0.2318,-0.8804,-0.6037,-40.04,-15.26,-17.57,-0.08022208076591177,0.35270342660396337,-0.7998038146742372,0.4790392141066834,-122.69518767323076,-12.098542636812509,-139.0342221263294,0
1767373142.3116999,1,left_wrist,0.6891,0.5505,-0.5954,13.3,-68.67,13.58,0.3087364348722639,0.9109468499343419,-0.06801545786675085,0.26501235418040403,141.79670569886312,-31.65626374102508,2.674624836013555,0
1767373142.3116999,2,right_wrist,0.1654,-1.0843,-0.6393,-41.79,-12.25,1.05,-0.08239523291885509,0.354005305764214,-0.8084052285858979,0.4630035156216582,-124.64889097178927,-11.221002980343567,-138.60094292910745,0
1767373142.393065,1,left_wrist,0.7476,0.2172,-0.8184,44.59,-87.29,61.32,0.27687921853551967,0.9245456654254905,-0.10079051702112853,0.24164950354741194,147.59648924823676,-30.175186473262812,-3.4853528773042814,0
1767373142.393065,2,right_wrist,0.1142,-0.7042,-0.5441,-82.88,-10.15,35.91,-0.08219194522971418,0.33623706486052374,-0.8505454363565047,0.39593128323796123,-132.71954624427408,-7.263781634008817,-140.04329821716112,0
1767373142.455937,1,left_wrist,0.57,0.0059,-0.5763,-54.53,-60.62,151.62,0.2668044529869881,0.9094453940747985,-0.23260080133124666,0.21822311124743451,153.28026109395228,-31.40216378326553,-21.054042699342297,0
1767373142.455937,2,right_wrist,0.0761,-0.5553,-0.6012,-68.95,-1.61,33.74,-0.07877113057057165,0.3264185190649402,-0.8683934146489948,0.36488208615160084,-136.47296006436667,-5.819787390220778,-141.1238728018742,0
1767373142.509981,1,left_wrist,0.6437,0.3426,-0.6754,-42.63,-39.55,181.72,0.2619861574133129,0.8852998709348912,-0.3131773786720981,0.22254734627612396,156.97968792106823,-33.927163571209114,-31.853862163680066,0
1767373142.509981,2,right_wrist,0.0551,-0.6383,-0.651,-29.12,-3.43,42.42,-0.08718741481248907,0.30996389137041785,-0.8788737240290359,0.3519967584455245,-137.60831175053067,-3.724505591970639,-142.59099412254517,0
1767373142.560871,1,left_wrist,0.5573,0.2762,-0.4548,-19.04,-27.3,198.31,0.24749385506356558,0.8539581930127589,-0.39333405688579515,0.23407374048773757,162.74201947602057,-36.47513677998933,-43.73639930760052,0
1767373142.560871,2,right_wrist,0.001,-0.5139,-0.6568,-57.82,21.0,30.66,-0.07758445880141604,0.29657914362289445,-0.893756522236025,0.3274457852545485,-140.77927236872998,-3.1840725011795024,-144.4194634068548,0
1767373142.638964,1,left_wrist,0.71,0.4329,-0.6163,13.79,-2.94,198.17,0.2243158595254825,0.8178813398137393,-0.4635177848806717,0.2567173002529086,170.4639576976067,-38.89369102335712,-55.7092910439166,0
1767373142.638964,2,right_wrist,0.1088,-0.4221,-0.8096,-48.44,38.01,21.56,-0.041277643917339644,0.2710169874654911,-0.9162520711891343,0.29210972366455856,-145.97306008802568,-4.743315503551228,-148.49690728240358,0
1767373142.6896708,1,left_wrist,0.7906,0.6281,-0.6149,9.24,29.61,166.74,0.21140673645157482,0.7795139819938545,-0.516565539694913,0.2842977081488387,177.25786946101329,-41.42498829843267,-66.0259777465274,0
1767373142.6896708,2,right_wrist,0.1454,-0.3592,-0.8652,-24.43,34.58,16.8,-0.02408340221285417,0.2612534845389396,-0.9227398071800773,0.2823435049711427,-147.5542446772045,-5.916617211245444,-150.1062931747417,0
1767373142.7580569,1,left_wrist,0.6764,0.4104,-0.6388,10.5,55.09,78.75,0.20935611797378414,0.7231412867578988,-0.567855183061819,0.3328320692525068,-173.78611463284756,-45.98328658779833,-78.9210715060304,0
1767373142.7580569,2,right_wrist,0.1728,-0.3899,-0.8096,-16.24,27.09,3.85,-0.008180593939504786,0.2577182528517944,-0.9259555264691589,0.2758998786354176,-148.7101312820302,-7.29968394042429,-150.9402107806294,0
1767373142.8160388,1,left_wrist,0.8203,0.2689,-0.7637,-70.91,40.67,4.13,0.24478811886418994,0.7103965916287573,-0.573843513351812,0.32575923877800383,-177.764240588027,-48.05413012552711,-78.85789668328171,0
1767373142.8160388,2,right_wrist,0.2499,-0.4055,-0.9496,-2.17,13.3,0.98,0.0010600866486244161,0.2569621192456207,-0.9268802771964477,0.2736097535420345,-149.2100621489432,-8.197157574620006,-151.27036805017067,0
1767373142.886631,1,left_wrist,0.7627,0.4221,-0.7037,-74.13,15.4,-14.42,0.27686462381410043,0.704701248939941,-0.5764191003994766,0.30738111607159907,176.87986243811267,-48.799036106027685,-77.1481451551032,0
1767373142.886631,2,right_wrist,0.2391,-0.4485,-0.7871,23.59,3.99,-4.69,0.008412959741510044,0.2610479202629971,-0.9203244161323846,0.29118065613178534,-147.3716589162098,-9.64304838401533,-151.15678657323912,0
1767373142.9478242,1,left_wrist,0.6656,-0.0771,-0.733,-5.6,17.01,-20.93,0.28147139174954766,0.7072423010542117,-0.570563263122806,0.3082851699332481,175.93091096210946,-49.22315816620056,-75.9246815553743,0
1767373142.9478242,2,right_wrist,0.2167,-0.4807,-0.7798,16.31,2.03,-7.56,0.013104066251289409,0.2652721642500236,-0.9169394138295837,0.2977936763728368,-146.74778840711014,-10.48767524488328,-150.86920691782998,0
1767373143.004299,1,left_wrist,0.8276,-0.0107,-0.6295,-8.26,17.15,6.16,0.2915094153483751,0.6977368535956672,-0.571416865328049,0.31885468463915256,176.12992409399905,-51.08695195667488,-76.78196069951014,0
1767373143.004299,2,right_wrist,0.2006,-0.5895,-0.7842,21.0,-2.31,-12.46,0.011632652625355747,0.27034055880008795,-0.9114546514645383,0.30988882197364115,-145.33096896381068,-10.880212494494709,-150.36416710253627,0
1767373143.060582,1,left_wrist,0.8633,-0.0717,-0.754,3.08,6.93,11.27,0.28656819446504395,0.6937251388442578,-0.5755339732988823,0.32463016994013555,177.80749471513744,-51.28509070475717,-78.3075446912049,0
1767373143.060582,2,right_wrist,0.1986,-0.5929,-0.8062,-5.11,-4.76,-9.24,0.011517976947832919,0.2741949923827201,-0.9098233334129616,0.31129719615922663,-145.19982570875112,-11.050312853553255,-149.93004826137454,0
1767373143.1392052,1,left_wrist,0.8057,-0.0786,-0.6564,29.54,-0.07,12.39,0.2721416033266093,0.692993418655195,-0.576808745485552,0.33614095342696837,-179.03035177378558,-51.24540204355069,-80.00924531116773,0
1767373143.1392052,2,right_wrist,0.1318,-0.5949,-0.8203,-0.21,-0.42,-5.46,0.00491822942487611,0.2803474925628017,-0.9078981421273012,0.3116120311458927,-145.05367304027175,-10.582423315335308,-149.0196766748959,0
1767373143.199175,1,left_wrist,0.8115,-0.1069,-0.6354,11.62,0.42,19.95,0.2627367490945154,0.6876374630157989,-0.5824607212403933,0.344766048712112,-176.30693328293162,-51.280335794233565,-82.30536117269946,0
1767373143.199175,2,right_wrist,0.1405,-0.5173,-0.7959,1.47,5.04,-3.08,0.004681327976030767,0.2804757634320226,-0.9086691862957865,0.30924382155858543,-145.32829763469863,-10.485014399654803,-148.97377187776848,0
1767373143.255048,1,left_wrist,0.8169,-0.0239,-0.6144,-29.61,-4.48,32.76,0.26701288543398904,0.6675187050472832,-0.6049942016023062,0.3422059518065134,-174.71999309321455,-51.255104387625,-86.90836467544048,0
1767373143.255048,2,right_wrist,0.224,-0.5436,-0.8052,2.24,1.19,1.05,0.009487995147485896,0.2813716181349909,-0.9080114015646378,0.3102503587182459,-145.3444017487847,-11.059116028464684,-149.0261323599259,0
1767373143.305428,1,left_wrist,0.773,0.0317,-0.5841,-31.08,-6.86,26.74,0.2742039425838999,0.6587301284865517,-0.6162842622675875,0.33328744917388037,-175.48508204174473,-50.99291331203875,-88.34062185288386,0
1767373143.305428,2,right_wrist,0.2333,-0.5544,-0.7486,5.39,-0.63,1.4,0.01142525158546637,0.28153704478185226,-0.9061839377795411,0.31533637112149776,-144.79406616582185,-11.435489977935367,-149.1206817164424,0
1767373143.3592489,1,left_wrist,0.7442,0.0459,-0.5583,-40.46,-7.07,22.54,0.2845901482798857,0.6495795284619595,-0.6275115441210382,0.321378508460042,-176.95324112378484,-50.77684535720968,-89.46628545717553,0
1767373143.3592489,2,right_wrist,0.2333,-0.5544,-0.7486,5.39,-0.63,1.4,0.01366940556880731,0.28183831266968834,-0.9043647437922224,0.3201635879492329,-144.28126578077513,-11.84079659784175,-149.20892790178792,0
1767373143.4100978,1,left_wrist,0.7447,0.0537,-0.5578,-39.55,1.89,18.97,0.29761034194915786,0.6397866461475135,-0.6362104609597455,0.31198939267483106,-178.52569662799078,-51.068603015077166,-90.38316010862005,0
1767373143.4100978,2,right_wrist,0.2103,-0.5558,-0.8032,2.94,0.98,2.59,0.01549072878448753,0.28180227490879534,-0.9051780117063692,0.31780541578339605,-144.6075098927024,-11.955990998509314,-149.24217904364264,0
1767373143.4930618,1,left_wrist,0.7584,0.0249,-0.6227,-35.91,3.29,19.46,0.30837158409800663,0.6309486168151454,-0.6448031168742171,0.30172793959001476,179.99789913805864,-51.11682975413373,-91.24339601196502,0
1767373143.4930618,2,right_wrist,0.2499,-0.5846,-0.7779,2.17,-0.77,1.61,0.021241122203794684,0.2828516731389126,-0.9032196606695038,0.32208382497434995,-144.2536865713523,-12.742789884507978,-149.3475881185621,0
1767373143.555968,1,left_wrist,0.7915,0.1972,-0.7413,-32.41,-14.14,-1.75,0.32480722843069637,0.622929214634267,-0.6584055738457961,0.2701139726913306,175.64494202249918,-49.83885325722991,-91.14778014408698,0
1767373143.555968,2,right_wrist,0.2464,-0.5553,-0.7847,0.42,0.07,4.13,0.025361782411263186,0.2827387620891018,-0.9031332806183402,0.3221270709592731,-144.3485519083018,-13.17733694498255,-149.48718068422625,0
1767373143.609984,1,left_wrist,0.7676,0.2582,-0.8764,12.53,-24.29,-15.54,0.3162899399298512,0.6339443070738621,-0.6558932815682019,0.2605365475734784,174.90195788168407,-48.17939206238261,-89.66923121486195,0
1767373143.609984,2,right_wrist,0.2079,-0.571,-0.7969,3.29,3.22,8.05,0.020587888119351538,0.2778673292800975,-0.904547562177244,0.3227376549780578,-144.10218543710488,-12.50952708740059,-149.91393385510287,0
1767373143.690614,1,left_wrist,0.7374,0.2157,-0.7588,-3.22,-17.78,-38.22,0.3176013486717775,0.6481714540685365,-0.6472673666536237,0.2450471495811174,172.0672293778969,-46.78681773761942,-86.48383131203364,0
1767373143.690614,2,right_wrist,0.2103,-0.5129,-0.7149,1.61,-4.13,-2.45,0.024499121718023396,0.2781763360578087,-0.9039554084242508,0.3238554286607598,-144.06639594623454,-12.97171776701357,-150.01295520110293,0
1767373143.755311,1,left_wrist,0.6627,-0.1444,-0.4436,-41.79,8.82,-12.04,0.3273527119584733,0.6546212749068708,-0.6397326883808206,0.234634344949293,169.24051476103205,-46.55457667948675,-84.04211936179095,0
1767373143.755311,2,right_wrist,0.2625,-0.5773,-0.771,-3.64,-7.49,-7.21,0.0266469811569704,0.28290422971510676,-0.9024298501724679,0.32384487138477164,-144.17630118966048,-13.375282822755963,-149.5292706805391,0
1767373143.842591,1,left_wrist,0.7096,-0.162,-0.4631,-84.63,24.71,4.34,0.35683807515325927,0.636714541343223,-0.6463908990115019,0.22235104370816042,165.51890651396337,-48.11291423210168,-84.37197793941996,0
1767373143.842591,2,right_wrist,0.1923,-0.5568,-0.7745,11.34,-14.84,-3.08,0.013178468169158276,0.291882009669759,-0.9000168441676386,0.32342062491805,-143.99152100594657,-12.270248224807961,-148.06502159648528,0
1767373143.897975,1,left_wrist,0.8174,0.242,-0.6661,-71.68,15.12,19.32,0.3827133301985921,0.618510213493359,-0.6541060031044449,0.2076558677124989,161.995829882758,-49.2482216521951,-84.89823360470474,0
1767373143.897975,2,right_wrist,0.1254,-0.6173,-0.7593,5.11,-4.27,1.33,0.0062934389413516105,0.2904148197718904,-0.8995281886200581,0.3262953615377777,-143.45151706900913,-11.586333901279525,-148.05209705052187,0
1767373143.9528031,1,left_wrist,0.812,0.1454,-0.632,28.63,-5.39,2.94,0.37147371433336046,0.620198716209949,-0.6548475521576337,0.22030777427059464,164.6382311558983,-49.445380042967514,-86.00666207758621,0
1767373143.9528031,2,right_wrist,0.1366,-0.5734,-0.7959,-0.7,1.26,5.04,0.002015642865932993,0.28712639746936547,-0.901369802961456,0.3241710156218889,-143.55611723334357,-10.940516898900762,-148.27350492795725,0
1767373144.005096,1,left_wrist,0.751,0.0161,-0.6505,-15.33,-7.77,2.87,0.3698092945487986,0.616558853589805,-0.6602030252233341,0.21732057245300795,165.02400588297405,-49.137363553870856,-87.03799015260084,0
1767373144.005096,2,right_wrist,0.2059,-0.5783,-0.7832,2.94,-3.01,4.48,0.004360123831618013,0.28714802567811776,-0.9006669944011069,0.3260766257581318,-143.3924555302021,-11.251649494214938,-148.36629579195687,0
1767373144.063509,1,left_wrist,0.6993,-0.0903,-0.6251,-21.35,-2.24,14.35,0.3702905723266307,0.6080218260212567,-0.6682276045518333,0.2160236552850449,165.66790815601576,-49.25052442001654,-88.80517338342662,0
1767373144.063509,2,right_wrist,0.2152,-0.5758,-0.7452,5.04,-7.28,2.66,0.0033819542829925525,0.28775396193984476,-0.8989495450942536,0.33026646082819944,-142.87438520676835,-11.311991722069438,-148.30995403331895,0
1767373144.139943,1,left_wrist,0.7627,0.1225,-0.5958,-23.45,3.99,21.63,0.3758608997014687,0.5955324372567952,-0.675748038300955,0.2177941435920515,166.1649100611344,-50.1193273382178,-90.72734327223678,0
1767373144.139943,2,right_wrist,0.1654,-0.5876,-0.7842,0.63,-1.4,2.66,-0.00796182396544508,0.2848531660061396,-0.9000419577937281,0.32972679203585387,-142.60665261417333,-9.992280368306469,-148.26517375773327,0
1767373144.191478,1,left_wrist,0.7896,0.2791,-0.5998,-10.01,1.33,15.12,0.38070166139945405,0.5902014569950704,-0.6785902959644045,0.2150434732595559,165.6919203461968,-50.40050389359923,-91.20970202208677,0
1767373144.191478,2,right_wrist,0.182,-0.5856,-0.7813,2.45,-2.94,2.73,-0.005865782057580013,0.2857320336445712,-0.9003649326462693,0.32812464950239517,-142.86155932274744,-10.192083763812796,-148.21813913601255,0
1767373144.257309,1,left_wrist,0.7413,0.2601,-0.6246,6.86,-8.68,-10.29,0.3778034579346901,0.5994105687272339,-0.6737406289660783,0.20986920248354293,164.80645104060804,-49.524068471424336,-89.64190682013611,0
1767373144.257309,2,right_wrist,0.1825,-0.5978,-0.7457,4.34,-2.73,3.08,-0.007392112786840526,0.28468019216776763,-0.8987346980367377,0.3334343824513056,-142.18022743170343,-10.16929211513509,-148.33989151499551,0
1767373144.3091168,1,left_wrist,0.7315,0.5065,-0.794,-22.19,-19.53,-43.4,0.3826313281681036,0.6120267490666725,-0.6664810638372038,0.18659988391642146,160.99152995505628,-47.598807822308935,-86.43182452088452,0
1767373144.3091168,2,right_wrist,0.1981,-0.6163,-0.7876,7.28,-2.45,4.55,-0.0058386671274475305,0.28441168693511704,-0.8971374186719183,0.33796501937269047,-141.68004814125158,-10.472654581663399,-148.4682454951818,0
1767373144.39466,1,left_wrist,0.6593,0.7691,-1.0092,13.37,-24.71,-86.66,0.37879362044365955,0.6428730065740373,-0.6450491092156303,0.16474628138372188,157.3790142687902,-44.46736160989944,-80.84542314119703,0
1767373144.39466,2,right_wrist,0.1493,-0.6608,-0.7969,16.59,0.63,22.12,-0.02298626274603581,0.26778907991264317,-0.8963196606996001,0.35266372970276383,-139.33354830942352,-8.492092452921225,-149.88327345933388,0
1767373144.457171,1,left_wrist,0.5285,0.7549,-0.9882,63.14,-74.06,-154.0,0.33464970131509963,0.7436519516585366,-0.5711375052845762,0.09377260933489602,152.75040198266137,-31.44839228854233,-67.24197899143967,0
1767373144.457171,2,right_wrist,0.1488,-0.6549,-0.7281,12.95,0.28,34.09,-0.030112227435361304,0.253709422858961,-0.8967948976789902,0.3612252676770876,-138.0268633818088,-7.428191912400223,-151.2596826834356,0
1767373144.508332,1,left_wrist,0.4865,0.5919,-0.917,76.86,-74.97,-150.92,0.29659534701245377,0.7940683547664987,-0.5269559652484488,0.06167705228092116,153.5583314463623,-24.238570603902435,-61.36174545599309,0
1767373144.508332,2,right_wrist,0.1308,-0.5968,-0.7164,1.61,4.27,25.41,-0.030762824402146866,0.24405692377068014,-0.9005687642977885,0.35842121500484475,-138.29060049146952,-6.865687048142541,-152.2919521446252,0
1767373144.585427,1,left_wrist,0.405,0.4836,-0.7764,95.62,-70.35,-130.06,0.2536190627882135,0.8356066280661416,-0.4856227636535997,0.040118144820032765,156.08995331002018,-18.262582331073062,-56.42862756501055,0
1767373144.585427,2,right_wrist,0.0381,-0.4753,-0.8506,-0.42,-8.75,3.08,-0.03631900988692167,0.23838002648811207,-0.9064387759275362,0.3467342469202466,-139.5246174357714,-5.708485724732344,-152.6374615279975,0
1767373144.641681,1,left_wrist,0.3362,0.1562,-0.8208,43.96,-78.12,-104.16,0.21907932033797228,0.8625000621781322,-0.45599742020673184,0.012815884978233019,157.93933907887762,-12.821042268684076,-53.220873745810856,0
1767373144.641681,2,right_wrist,0.0732,-0.4738,-0.7788,4.48,-8.12,0.28,-0.03958982413952319,0.23981763648187798,-0.9071488397289377,0.3435129249901519,-139.83321644174268,-5.332373977007857,-152.33447727886485,0
1767373144.7049558,1,left_wrist,0.059,0.0722,-0.793,-52.99,-78.19,-28.84,0.2065680658810739,0.874883543623599,-0.43340300234887913,-0.06379856432353444,155.31069846878654,-3.865917929675967,-51.85975687322311,0
1767373144.7049558,2,right_wrist,0.0127,-0.4919,-0.608,0.49,10.92,-1.47,-0.039183228905759086,0.23738038073873305,-0.9081145296383066,0.34269991314946396,-139.92972963869826,-5.25190644390281,-152.61778752803087,0
1767373144.7614279,1,left_wrist,0.2245,-0.0132,-0.9409,-34.16,-86.94,7.35,0.19996443197481306,0.8679489980493192,-0.44368144483891486,-0.09912385301140306,154.2094269011242,-0.3078011908448627,-54.08029283330382,0
1767373144.7614279,2,right_wrist,0.0727,-0.4909,-0.6983,16.03,33.53,-5.25,-0.026198427617024202,0.23458384135669216,-0.9070884667039979,0.3485320320104365,-139.53596274048934,-6.660809779102946,-153.45793381679712,0
1767373144.8376372,1,left_wrist,0.2484,0.3494,-0.7818,-95.55,-78.47,27.16,0.22355422436196795,0.8493542916096806,-0.45707082193810733,-0.14038183581560587,149.44414038383576,1.954600815753249,-57.10682806606084,0
1767373144.8376372,2,right_wrist,0.3084,-1.4469,-0.7906,107.52,56.7,-7.14,0.006472294945953958,0.2204874553537207,-0.8775804547897317,0.4256711604053314,-130.58269399091313,-11.482593363198813,-157.09079038493388,0
1767373144.898276,1,left_wrist,0.3479,0.2899,-0.9677,-64.4,-76.65,43.68,0.23428094895715443,0.8290040355401955,-0.4776296520955942,-0.17243741314705122,146.3421685414807,3.560563519059684,-60.97395819541837,0
1767373144.898276,2,right_wrist,0.3748,-0.3353,-0.6715,89.25,37.59,-3.15,0.016125190149998532,0.2166590111377845,-0.8609222022887197,0.46001283975750534,-126.27891867503732,-13.126215447256556,-158.4182690995715,0
1767373144.9590158,1,left_wrist,0.2904,0.3128,-0.7696,-93.45,-62.79,32.48,0.28007217653728356,0.7788124971557433,-0.5078415948245105,-0.23897193301683245,137.0314131556598,5.034987751521386,-68.19728513285612,0
1767373144.9590158,2,right_wrist,0.1601,-0.5773,-0.2547,64.4,66.78,-45.36,0.04423356528897412,0.22003085942029046,-0.8406348301414722,0.4929126646350372,-122.22771222500981,-16.93463598531113,-160.05510447453605,0
1767373145.011765,1,left_wrist,0.2011,0.8301,-0.6573,-99.19,-69.37,16.24,0.303374934083329,0.7533519883338512,-0.5116532371436628,-0.2804200348829939,131.51619534419177,6.434335644992302,-71.2660475871797,0
1767373145.011765,2,right_wrist,0.3767,-1.3005,-0.9819,32.55,35.49,-53.41,0.06351217380703733,0.23198649385349426,-0.8295256505167479,0.5040195091289956,-120.95463253863744,-19.82944417789102,-160.0574068574983,0
1767373145.087428,1,left_wrist,0.0756,0.6837,-0.5666,-131.25,-68.46,7.49,0.334720409623545,0.7231615434221947,-0.5076573707461021,-0.32754178882064816,124.50353677445433,7.694131575012408,-74.18967354815928,0
1767373145.087428,2,right_wrist,0.1937,-0.4153,-0.3836,99.82,15.54,-35.98,0.06984956541344267,0.25731935438520676,-0.7784488019558217,0.568265123691292,-112.08472360047249,-23.653208380391447,-159.4701404420453,0
1767373145.138437,1,left_wrist,0.0527,0.7296,-0.5022,-74.76,-45.08,6.3,0.3517545776516507,0.7027533275282003,-0.5072212597220744,-0.3537415319623958,120.48365813659439,8.068173657380918,-76.25870856375782,0
1767373145.138437,2,right_wrist,0.6466,-0.7408,-0.3211,47.81,30.59,0.42,0.07871537304494133,0.2534987295502653,-0.7643325589979414,0.5876546804190841,-109.08078304829479,-24.725342474804602,-161.04811849158207,0
1767373145.1942122,1,left_wrist,-0.0171,1.0858,-0.1674,-85.68,-25.06,-6.86,0.37384613156403257,0.6849552784705772,-0.4948549261216079,-0.38235315939989306,115.67363225090769,8.846651898029958,-77.26323227371678,0
1767373145.1942122,2,right_wrist,0.3758,-0.8179,-0.4416,-12.46,44.24,7.42,0.09207947620311127,0.23967447061336522,-0.7688855884599644,0.5855702093318427,-109.14332062449375,-24.979225661960065,-163.28380474503655,0
1767373145.2572532,1,left_wrist,-0.0142,0.5729,-0.3348,-106.54,0.91,-17.99,0.399812335085485,0.6685076398782019,-0.47953498655314714,-0.40409631130392804,110.98629547235048,9.02323213087444,-77.5152354726354,0
1767373145.2572532,2,right_wrist,0.6007,-0.6773,-0.3357,34.16,16.45,9.1,0.09538028376230356,0.23671702619968385,-0.7602060768649985,0.5974565855977559,-107.24142079721824,-25.332691185360027,-164.21061320977742,0
1767373145.3089018,1,left_wrist,-0.0698,0.9033,-0.1801,-52.85,0.0,-10.78,0.41609992472036034,0.6592310279555271,-0.46661534834494983,-0.41778633428743267,107.9830321914395,9.35309227222413,-77.38772796318436,0
1767373145.3089018,2,right_wrist,0.6178,-0.8111,-0.2625,-2.03,16.73,-8.96,0.10737451567497841,0.23798374874932288,-0.7579506536760016,0.5977836191356409,-107.05075594228613,-26.5702494242737,-164.9401608753166,0
1767373145.3954182,1,left_wrist,0.0693,0.7291,-0.202,-14.56,0.35,-4.9,0.42252021570329595,0.6557238601187637,-0.46457877518211965,-0.4191293931988901,107.17432849776833,9.037358823730957,-77.30730503110877,0
1767373145.3954182,2,right_wrist,0.5919,-0.8086,-0.3089,2.52,-5.74,-11.69,0.11087807325060284,0.254838838583975,-0.7555216194217556,0.5932539943462096,-107.9138739259019,-28.02844685783533,-163.30965539635082,0
1767373145.4474728,1,left_wrist,-0.1054,0.8706,-0.1903,-47.74,5.39,-9.1,0.438382609656194,0.6473436934752362,-0.4517909670770026,-0.42971124273922734,104.45160521981094,9.220079300226667,-76.97488210390509,0
1767373145.4474728,2,right_wrist,0.4641,-0.852,-0.2977,19.53,-21.77,-3.36,0.1006431242640099,0.2622112453180915,-0.7533696156484079,0.5946010818901061,-107.91954792175746,-27.61093265933895,-161.89293507684604,0
1767373145.511861,1,left_wrist,-0.0625,1.1058,-0.4641,-14.98,11.2,-14.42,0.4411991017716865,0.6531343237927706,-0.437474075927809,-0.43286873364881284,103.8763688816521,10.335775400347273,-75.7305798815737,0
1767373145.511861,2,right_wrist,0.387,-0.8486,-0.364,0.14,-14.28,3.99,0.09259562733153687,0.2638897671688834,-0.7567343335754757,0.5908818739568107,-108.60347267424915,-26.8718137382306,-161.03060518840863,0
1767373145.586333,1,left_wrist,-0.2245,1.0931,-0.0542,31.99,-11.62,-13.44,0.4289682132266247,0.6579916182803864,-0.4405782760541194,-0.43465398305214625,105.01348226071086,11.186849845989281,-76.20408099282378,0
1767373145.586333,2,right_wrist,0.6217,-0.7193,-0.3953,0.21,-2.17,7.7,0.08665053168292798,0.26388093827817155,-0.7590107664708292,0.5888643240627351,-108.96435670427375,-26.251841368772507,-160.55769071837236,0
1767373145.6501372,1,left_wrist,-0.1259,0.7144,-0.2123,-29.4,-3.85,-8.96,0.434865253463335,0.6540154461095287,-0.435607938698704,-0.43977463697113056,103.86572314210271,11.325192713195744,-76.2120846998443,0
1767373145.6501372,2,right_wrist,0.568,-0.711,-0.5056,-9.87,-2.24,-2.38,0.08937241383491308,0.26702402245196183,-0.7627166070041823,0.5822148404832385,-110.01180256172384,-26.56817409406618,-160.18016733147408,0
1767373145.710711,1,left_wrist,-0.2054,1.0497,-0.2908,17.71,6.93,-10.64,0.4293467536812905,0.6616520109927534,-0.4328844773672102,-0.43645046764449685,104.82236170402224,11.878768131682289,-75.54681319351408,0
1767373145.710711,2,right_wrist,0.5012,-0.8862,-0.3187,1.47,5.32,-9.66,0.09726029851348769,0.27120421212455215,-0.7592891605921482,0.5834969410941578,-109.80766187802975,-27.65787992360893,-160.31610735206021,0
1767373145.790263,1,left_wrist,-0.2264,0.9843,-0.1918,-5.53,-0.42,-10.08,0.4305206337647228,0.6608374756710955,-0.42747999796568015,-0.4418219845036433,104.16168397259243,12.466404911813262,-75.52232516525413,0
1767373145.790263,2,right_wrist,0.3377,-0.7881,-0.4158,-3.71,4.76,-1.96,0.10451854408829475,0.27419334661294364,-0.7609502550700195,0.5786610337008442,-110.53768439889913,-28.450336924772248,-160.30353102123445,0
1767373145.8416471,1,left_wrist,-0.1791,0.8423,-0.2313,5.88,-0.63,-8.4,0.4265298197737991,0.6643240792775595,-0.4285190499849798,-0.4394510829839011,104.83805604506091,12.610587013826567,-75.36846132565606,0
1767373145.8416471,2,right_wrist,0.4919,-0.6583,-0.3294,-18.27,7.07,-3.01,0.11251053368815019,0.27518678729670565,-0.7654162236797104,0.5707465430770621,-111.70775344067965,-29.10152197901943,-160.41872762418242,0
1767373145.905998,1,left_wrist,-0.2557,0.9682,-0.2386,12.67,5.74,-2.87,0.41587685461411444,0.6743123831089357,-0.43330412104739424,-0.42964728611451003,106.97709586254635,12.652105434456598,-74.83171275923812,0
1767373145.905998,2,right_wrist,0.6193,-0.855,-0.3967,-11.41,2.24,-1.47,0.11828975112971245,0.2773436459210552,-0.7680047645977113,0.5650280686834074,-112.57241548421595,-29.6768771224712,-160.33855683773132,0
1767373145.993768,1,left_wrist,-0.2176,0.8477,-0.2303,3.99,7.98,-4.83,0.41592137672420787,0.6764803153808482,-0.42907937244887256,-0.4304354579085572,106.91539710204219,13.028497970452424,-74.4466977091983,0
1767373145.993768,2,right_wrist,0.5524,-0.7203,-0.3001,-9.1,-8.12,3.22,0.12087238533082682,0.2835351201985905,-0.7688155313082309,0.5602859813502828,-113.38723142676793,-30.2370447259192,-159.64403278227687,0
1767373146.059092,1,left_wrist,-0.3089,0.8262,-0.2704,-8.68,0.28,-7.84,0.4219868896044248,0.6751222885860324,-0.4145101621998709,-0.4408154782779044,105.26393939743078,14.20387799040253,-73.9683143576219,0
1767373146.059092,2,right_wrist,0.5505,-0.8145,-0.4587,-13.3,6.93,6.79,0.12341360328432552,0.2801778798192584,-0.7742457145101521,0.553907042514381,-114.29163974404945,-30.098620603703615,-159.91326467085102,0
1767373146.142875,1,left_wrist,-0.327,0.8267,-0.2328,-8.61,-8.54,-4.27,0.41929022840676544,0.6742268758530735,-0.41055501153610025,-0.4483953687791605,104.77781543573766,15.091246793650036,-74.33055612594372,0
1767373146.142875,2,right_wrist,0.4612,-0.69,-0.4133,-2.8,-2.45,-6.51,0.12582593408518347,0.28712656610261617,-0.773031163306109,0.5514970443323473,-114.76644634661372,-30.746036970743354,-159.20452499803025,0
1767373146.203702,1,left_wrist,-0.3035,0.9721,-0.3577,-8.19,-7.84,-1.68,0.4227666644114474,0.6659924341938367,-0.4065553323336717,-0.46090691772856335,103.0659861286413,15.674082965673096,-75.28563801611106,0
1767373146.203702,2,right_wrist,0.3753,-0.8135,-0.4114,2.17,-8.89,-2.17,0.11925132576513085,0.28824951586682596,-0.7746648460825147,0.5500779164352559,-115.06201766986503,-30.124392096782984,-158.61403288134764,0
1767373146.256356,1,left_wrist,-0.3074,0.8438,-0.2704,-5.88,-12.04,5.74,0.42026410999678615,0.6640242416735477,-0.4087763748704798,-0.46406008195731296,102.97725369218601,15.825365736601793,-75.85585483626407,0
1767373146.256356,2,right_wrist,0.5422,-0.7549,-0.4509,0.42,-1.12,-1.61,0.12032354017906123,0.29087268506789327,-0.775801222671664,0.546852621518196,-115.59725321197539,-30.31962199218858,-158.26095570325393,0
1767373146.344484,1,left_wrist,-0.2801,0.9775,-0.1767,-6.37,-11.13,4.55,0.4230580160048766,0.6577664711826008,-0.40983990144606025,-0.4694639918723161,102.06749748293089,15.713260016618426,-76.58884211640031,0
1767373146.344484,2,right_wrist,0.529,-0.6334,-0.3626,-5.04,4.2,-3.85,0.12415672111095284,0.2955331109174011,-0.7764691590155072,0.5425319659266276,-116.32147321960757,-30.895913358934777,-157.79993118820704,0
1767373146.40594,1,left_wrist,-0.2455,0.8774,-0.2059,6.72,-9.1,4.62,0.41953746754896043,0.6538096091012402,-0.41846215147843663,-0.47054302263398423,102.28129992076957,15.3176397138332,-77.60910625259648,0
1767373146.40594,2,right_wrist,0.4934,-0.7989,-0.4651,10.43,4.9,-0.63,0.12264705694578161,0.2950146780792569,-0.77583378410561,0.5440643147466117,-116.08695688803833,-30.751886208998496,-157.8290523657327,0
1767373146.491616,1,left_wrist,-0.243,0.9936,-0.1859,-5.18,-9.31,-0.49,0.4224735257125742,0.6484907234064393,-0.41978807069451074,-0.4740821420707181,101.56193026630031,15.080567919792747,-78.16394063290265,0
1767373146.491616,2,right_wrist,0.5241,-0.7993,-0.2894,1.19,-7.07,-5.18,0.12527800500990832,0.30035208618726345,-0.7706433507658386,0.5479077218876339,-115.57896698338016,-31.48126792676375,-157.551586402818,0
1767373146.551693,1,left_wrist,-0.2777,0.8711,-0.2274,7.63,-8.05,2.38,0.41626726961462757,0.6503244256630435,-0.4232554989919719,-0.47397730347208894,102.2189975933739,15.313672414588456,-78.49325052125239,0
1767373146.551693,2,right_wrist,0.4368,-0.6744,-0.405,19.81,-0.98,-8.68,0.12309489642786973,0.30490608835662314,-0.7669347702847334,0.5510816472037315,-115.19233133148022,-31.65934478579268,-157.04156610066312,0
1767373146.611989,1,left_wrist,-0.1547,0.8804,-0.2103,4.83,-7.77,-1.4,0.4105681458253557,0.6503362166289203,-0.43208839206169686,-0.47095246513830746,103.11717599311093,14.93668161626457,-79.08184365826109,0
1767373146.611989,2,right_wrist,0.5397,-0.7847,-0.3665,2.73,1.4,-2.38,0.1269122267190735,0.30665359394755143,-0.7637353498507363,0.5536832807811972,-114.78998678927108,-32.23767948130696,-157.19347097279876,0
1767373146.69602,1,left_wrist,-0.2533,1.1517,-0.2196,18.41,-9.73,-10.22,0.4046981571591781,0.6510494416590404,-0.43562934566345857,-0.471785013861445,103.6201720484561,15.171786381138636,-79.53573123043134,0
1767373146.69602,2,right_wrist,0.5187,-0.7725,-0.3743,-1.82,8.19,-1.26,0.13166528081909573,0.30473635861469783,-0.7613896786028428,0.5568534482986909,-114.20810785771609,-32.675753186967434,-157.84658408387608,0
1767373146.7569761,1,left_wrist,-0.2342,0.9111,-0.1469,10.57,-0.84,0.63,0.4002309874289143,0.6537140942129136,-0.4400948332935266,-0.4677494814934691,104.51427210811391,15.026731834246469,-79.55731597660323,0
1767373146.7569761,2,right_wrist,0.4909,-0.7593,-0.3192,-2.8,0.84,0.07,0.1290143406770737,0.3016300821868083,-0.7621492977539528,0.558124575119924,-113.97392929369764,-32.23212902407444,-158.081459659684,0
1767373146.8085299,1,left_wrist,-0.2669,0.998,-0.223,-13.37,-1.82,-3.78,0.40529403601167496,0.6495755897130078,-0.4358757786748515,-0.4730756844173638,103.41065804906955,15.146093226053308,-79.71011793648243,0
1767373146.8085299,2,right_wrist,0.5436,-0.7603,-0.3323,0.14,-3.22,-1.26,0.13175375442899143,0.3044312560385609,-0.7600905550814805,0.5587708891992996,-113.89774539926316,-32.71796960856458,-157.97221018372315,0
1767373146.891527,1,left_wrist,-0.2352,0.8345,-0.2181,7.21,-10.43,-4.27,0.3982433038700891,0.6515284991798125,-0.43892875545263305,-0.4735551006123147,104.0728035555489,15.513678015272724,-80.06926967415879,0
1767373146.891527,2,right_wrist,0.4997,-0.6671,-0.4275,-11.34,-4.62,-4.48,0.13209394481397427,0.31382615466119007,-0.7612354707788971,0.5518921021559235,-115.17273158112029,-33.19605066506968,-156.62582451504207,0
1767373146.9568021,1,left_wrist,-0.2704,0.9462,-0.2679,31.57,10.43,-18.13,0.3847156449236956,0.6667895468975091,-0.43641367199958336,-0.4657560301176996,106.37047883236312,16.57870500260778,-78.85672618500168,0
1767373146.9568021,2,right_wrist,0.6027,-0.7681,-0.3475,-12.74,6.93,1.75,0.13925239136432657,0.3123645180635578,-0.7621040282761977,0.5497587011038845,-115.41059783316807,-33.75893157639601,-157.13836955443253,0
1767373147.0391948,1,left_wrist,-0.2967,0.8667,-0.3016,42.21,8.89,-13.3,0.3684083952177189,0.6803581572766549,-0.43956324038946937,-0.45625890660734386,109.08407506505775,17.275186554273073,-78.08027098983797,0
1767373147.0391948,2,right_wrist,0.5144,-0.7471,-0.3167,-9.8,1.19,3.71,0.13849708757347798,0.3027046148113645,-0.7662450536575375,0.5495971166690427,-115.23987864903667,-33.02306345177598,-158.1791850806399,0
1767373147.096328,1,left_wrist,-0.2987,0.8769,-0.2889,8.89,6.44,-10.43,0.3652273593544514,0.6841380582916619,-0.4350935382166552,-0.45744694356613735,109.31698119067798,17.94462033779329,-77.68740393134445,0
1767373147.096328,2,right_wrist,0.5475,-0.7632,-0.3694,-6.65,-0.49,-1.89,0.1386860947952055,0.30364737435874234,-0.7695841006146795,0.5443388202549878,-116.08376343496128,-32.95876636610508,-157.84808075164102,0
1767373147.1549592,1,left_wrist,-0.3055,0.9262,-0.2396,-2.24,0.49,-5.67,0.3661965658063134,0.6833181841955225,-0.4310204874831933,-0.46173333614668405,108.77334582109596,18.38164992996455,-77.7070208737207,0
1767373147.1549592,2,right_wrist,0.5919,-0.7681,-0.367,-2.73,-7.56,-6.51,0.14169340963624055,0.30910409283071666,-0.7678563140660759,0.542931228066517,-116.39292914849919,-33.58991191283624,-157.34706897317398,0
1767373147.207519,1,left_wrist,-0.304,0.832,-0.4153,13.51,2.24,-3.85,0.3597103822375234,0.6885863228174207,-0.4332225400413862,-0.4569196294091636,109.95836531768298,18.517115301325568,-77.3854089182149,0
1767373147.207519,2,right_wrist,0.5036,-0.734,-0.407,6.09,-8.19,-6.86,0.13726225738396833,0.3132334873825227,-0.7681951131476022,0.5412209560024287,-116.7926770221228,-33.36327039510894,-156.52730158145127,0
1767373147.257515,1,left_wrist,-0.3279,0.8872,-0.2445,10.92,1.54,1.4,0.3584324472145223,0.6887714468979032,-0.43423481706560324,-0.45668391516450363,110.10578921279838,18.530775406509413,-77.46645246530103,0
1767373147.257515,2,right_wrist,0.5617,-0.7096,-0.3284,2.59,-4.41,-5.25,0.13938988371375902,0.3168941761174774,-0.7649760935153576,0.5431023087881995,-116.5608687385317,-33.8811338194423,-156.3202274225651,0
1767373147.339238,1,left_wrist,-0.3084,0.896,-0.265,-2.87,2.31,1.96,0.36232417638369907,0.6864600918752074,-0.43310858599236196,-0.45816010979814986,109.55291583026299,18.370825613386128,-77.52452302745421,0
1767373147.339238,2,right_wrist,0.5329,-0.795,-0.4299,0.28,-6.93,-3.64,0.1360500397124557,0.3237096611980062,-0.768635268866467,0.5346982938030429,-118.05825224258844,-33.732739451749545,-154.94883585517522,0
1767373147.390084,1,left_wrist,-0.3172,0.9116,-0.324,8.05,5.81,-0.84,0.3635139981235961,0.6879277075080151,-0.4361987722954586,-0.4520438844392208,110.0822364832398,17.74723314852991,-77.21426303187108,0
1767373147.390084,2,right_wrist,0.548,-0.6554,-0.3748,-0.35,-0.91,-3.57,0.1401819042416409,0.32776441547066176,-0.7678844662773624,0.5322339411614908,-118.51466371207421,-34.34548683911772,-154.59994634340063,0
1767373147.440316,1,left_wrist,-0.3401,0.9374,-0.3431,5.95,3.78,11.69,0.3618403990873643,0.6887041084267221,-0.4377113038737088,-0.45074049195255167,110.38359197920654,17.70344805903268,-77.23533946597136,0
1767373147.440316,2,right_wrist,0.5031,-0.7574,-0.4563,-2.59,-1.89,-3.78,0.13757176105489727,0.32831100409898056,-0.7702351629709743,0.5291726456184694,-119.01898915868968,-34.01373470603711,-154.24679677862187,0
1767373147.5096152,1,left_wrist,-0.246,0.7959,-0.3411,-0.07,8.89,12.32,0.36744612289877865,0.6881902085853983,-0.44806815592701094,-0.43659192756853565,111.24560233410827,15.761568135586723,-76.95405781191153,0
1767373147.5096152,2,right_wrist,0.5505,-0.6939,-0.366,-9.66,-1.4,-6.16,0.14217492894937586,0.33036117120032793,-0.7695481323730131,0.5276774186021183,-119.27851966960417,-34.57393062196606,-154.19646885700564,0
1767373147.58955,1,left_wrist,-0.2552,1.037,-0.3235,2.38,8.47,17.22,0.37485333526859016,0.6845302769823555,-0.4525675746243603,-0.4313767116234924,110.99552624879207,14.553737163988666,-76.97201989710206,0
1767373147.58955,2,right_wrist,0.5378,-0.71,-0.3982,-12.6,-5.11,-9.45,0.14684683006264523,0.3364801286416205,-0.7709471424508046,0.5204398477027004,-120.54111648273748,-35.215799302975455,-153.387918023961,0
1767373147.6398132,1,left_wrist,-0.1698,0.8511,-0.3479,-31.99,9.24,17.36,0.39118894452858644,0.6769682606076367,-0.4528256225901599,-0.428525541052474,109.59344725248746,13.056726072981665,-76.78898374835163,0
1767373147.6398132,2,right_wrist,0.5256,-0.6637,-0.4275,-4.06,-2.73,-7.77,0.14635586211044221,0.33954221327240286,-0.7729693816539349,0.5155670490416557,-121.3817801572871,-35.1956835799982,-152.7634274809363,0
1767373147.695572,1,left_wrist,-0.1357,0.7935,-0.3026,21.84,14.21,19.53,0.392792378007092,0.6788210542887883,-0.4628733536979018,-0.41311545900661806,110.92310700276822,11.375414637433842,-76.42135749086752,0
1767373147.695572,2,right_wrist,0.5827,-0.6705,-0.4548,-8.4,-4.9,-5.95,0.14830215399508048,0.34390750457609237,-0.7754298139673925,0.5083726025536384,-122.60888333339726,-35.42678214692058,-151.9988369581778,0
1767373147.756612,1,left_wrist,0.1049,0.6808,-0.4324,-40.18,2.31,-5.39,0.4107905886965383,0.6749776099755173,-0.4703131408596624,-0.39301637091196273,110.93511409863954,8.288296762607176,-75.4448216785969,0
1767373147.756612,2,right_wrist,0.6407,-0.5812,-0.4089,-8.4,-15.96,-9.38,0.15033808617086264,0.3523617874081662,-0.775624217991973,0.5016440003482001,-123.88738895814076,-35.92544759287413,-150.74253787349184,0
1767373147.845115,1,left_wrist,0.2743,1.0092,-0.4865,-53.27,24.71,-32.48,0.42777455280505516,0.6751327987847596,-0.4496925026938116,-0.39872457787107685,108.65406188366232,8.838512665355923,-73.6844827136833,0
1767373147.845115,2,right_wrist,0.5768,-0.6324,-0.4953,2.8,-17.29,-17.71,0.15417308916076758,0.37061561293782297,-0.7767629723159695,0.4852978578813305,-126.96720835364172,-36.81475746389768,-147.8412039811249,0
1767373147.908627,1,left_wrist,0.4607,0.8447,-0.1552,106.47,70.63,-47.04,0.3989526630636115,0.7339495986397971,-0.4162412471372035,-0.3590236530823542,115.6049863699565,11.23826413138126,-66.20746475214305,0
1767373147.908627,2,right_wrist,0.4968,-0.7657,-0.408,-9.45,-13.37,-13.79,0.1512493888284429,0.3752121523937244,-0.777439295726684,0.48158862583650036,-127.66431095707928,-36.624652537746435,-146.94691777502612,0
1767373147.960654,1,left_wrist,0.2201,0.5993,-0.3587,159.25,87.5,2.24,0.36482105137341264,0.7718086268737391,-0.42785317043125937,-0.2969153221206192,124.30127064721539,8.403527087449216,-62.449388595966795,0
1767373147.960654,2,right_wrist,0.6002,-0.6944,-0.469,-11.06,-19.39,-2.17,0.14539587200033174,0.3773472543105311,-0.7799051202724159,0.47772072745740807,-128.2698934318579,-35.967282124383196,-146.24823701441844,0
1767373148.0399349,1,left_wrist,0.0161,0.49,-0.1444,97.16,109.76,56.28,0.36220760551692927,0.7875490600195738,-0.4411225337555948,-0.23234250317370353,129.07405337172142,2.659844215231642,-59.774928919439965,0
1767373148.0399349,2,right_wrist,0.57,-0.6178,-0.4626,-36.05,-6.16,-4.9,0.1491601481875051,0.37811841756355175,-0.787598796511901,0.4631045759058339,-130.4933179582973,-35.81524406532402,-145.65809198553538,0
1767373148.1068978,1,left_wrist,0.2855,0.7881,-0.9882,-17.15,175.84,155.61,0.4453002852943733,0.7547300574008816,-0.4766284738330126,-0.07011058624790326,128.772485986439,-18.581692558084278,-55.57771336711892,0
1767373148.1068978,2,right_wrist,0.5666,-0.6183,-0.5012,-36.47,6.09,-4.9,0.15667939521709737,0.37423800304090915,-0.7929726743409717,0.45452373089079107,-131.69736411509794,-36.06375183712302,-146.08020352202723,0
1767373148.157502,1,left_wrist,0.4119,1.0321,-0.9716,-19.39,134.61,151.34,0.4788075279673231,0.7227478751092701,-0.49837536846107866,-0.0009231999458690676,128.00139354994977,-28.41909050943735,-55.096371693952435,0
1767373148.157502,2,right_wrist,0.7047,-0.6407,-0.4836,-46.34,-3.85,3.5,0.16472946436865096,0.3706650316117438,-0.801033067412088,0.4402472746326359,-133.7404429894665,-36.176599014286246,-146.22187569636637,0
1767373148.208988,1,left_wrist,0.3616,0.8355,-1.1048,100.8,64.68,144.97,0.4560508413515077,0.7120409834225087,-0.5292766756588487,0.06986750770427165,134.93905629876838,-35.60903662730542,-58.07140882752865,0
1767373148.208988,2,right_wrist,0.6651,-0.5797,-0.608,-82.88,11.69,5.04,0.18471698673593276,0.36270305091084787,-0.8158226626031292,0.4108034990774801,-137.9343344742585,-36.826363303643014,-146.65121009973458,0
1767373148.2943192,1,left_wrist,0.5363,0.7232,-1.0136,66.71,45.08,96.18,0.4389150310058826,0.7027130814191498,-0.5477901106254328,0.11607719612604699,140.20068181060006,-40.0910814012119,-60.82736957572565,0
1767373148.2943192,2,right_wrist,0.5656,-0.4714,-0.6344,-91.35,21.0,4.76,0.2142336589075911,0.3395744147608049,-0.8440606586508422,0.3554641483312054,-145.25975678781006,-37.08976245770656,-148.15014284323166,0
1767373148.3573592,1,left_wrist,0.3489,0.6573,-0.9043,98.42,24.08,54.88,0.40295878255717715,0.6970516145468548,-0.5670304351022231,0.17383829234505366,149.32921609411687,-44.37313921369899,-65.49202915082732,0
1767373148.3573592,2,right_wrist,0.7125,-0.3011,-0.8516,-66.64,-8.05,-2.31,0.22286697635341757,0.33716428436253465,-0.8548934418077472,0.32528104672035413,-149.50017816203973,-36.89864660359471,-147.34590397142887,0
1767373148.438252,1,left_wrist,0.3919,0.5002,-0.6495,6.16,24.71,25.97,0.4046242389539694,0.6918423055751061,-0.5693346765480345,0.18300676366568477,149.86826279753615,-45.55777540640827,-66.00534754702554,0
1767373148.438252,2,right_wrist,0.4924,-0.1503,-0.7457,-61.04,-26.39,-12.04,0.2085495755519146,0.3427823447927647,-0.8754315309436655,0.26949392064594047,-156.8119619304054,-33.35996516795601,-144.2690102834802,0
1767373148.4919,1,left_wrist,0.448,0.5456,-0.8979,42.49,16.66,14.35,0.3929923498889151,0.6964569312072219,-0.5671419600538176,0.1971160902831674,152.17023429380032,-46.08178526127565,-66.28311995766715,0
1767373148.4919,2,right_wrist,0.5856,-0.3445,-0.7652,-7.49,-36.89,-25.2,0.20134572382874857,0.355742592684241,-0.8743844130516314,0.2614555515924752,-158.1297879572887,-32.55635399168074,-142.18027678829694,0
1767373148.55859,1,left_wrist,0.5905,0.1435,-0.7559,40.95,-17.29,5.46,0.3601986813041108,0.7085468856545114,-0.5670098836177732,0.21614350023961276,157.7046721092485,-45.624191820079275,-67.86049156296107,0
1767373148.55859,2,right_wrist,0.6266,-0.2889,-0.7584,-7.0,-31.5,-19.25,0.19674382506006458,0.3666358459914052,-0.8735209136797774,0.25264844566897354,-159.5055749528262,-31.936539436299473,-140.38474139787817,0
1767373148.6198132,1,left_wrist,0.5441,0.1093,-0.669,14.21,3.99,6.72,0.35209427055933834,0.709412089211528,-0.5688309861650002,0.22180040914835084,159.28272390297596,-45.66451489343836,-68.64625994025027,0
1767373148.6198132,2,right_wrist,0.5563,-0.1557,-0.7193,-24.71,-29.47,-14.0,0.19484254013071514,0.37443919398258685,-0.8756530043086137,0.23465611138510806,-161.96344324971184,-31.128407187384877,-138.75815149024208,0
1767373148.70017,1,left_wrist,0.6534,0.042,-0.6964,-13.09,7.42,8.4,0.3531338208256937,0.7043955133344157,-0.5735544094315199,0.22396161457949026,159.69695874164546,-46.103877247839186,-69.59386609655313,0
1767373148.70017,2,right_wrist,0.4797,-0.0615,-0.7891,-6.3,-19.74,-27.86,0.19155732729001257,0.3998466875771673,-0.8721280104492171,0.2069327189812296,-166.1232642122214,-29.974052071997516,-134.47153355231248,0
1767373148.761216,1,left_wrist,0.7037,-0.0371,-0.7125,-24.71,-25.06,-17.22,0.35345640374185805,0.7059773086913599,-0.5748720423124758,0.21491101701462476,159.03949479227893,-45.221004992686794,-69.50053884223777,0
1767373148.761216,2,right_wrist,0.446,-0.1684,-0.7954,10.08,-20.23,-36.47,0.18424665588450603,0.41729171357077105,-0.8671511261184803,0.19992428579839278,-167.24141353667122,-29.10377086855203,-131.92903016902946,0
1767373148.840717,1,left_wrist,0.7998,0.4202,-0.5363,-54.6,27.3,-7.42,0.38128169420560437,0.6960596646147746,-0.5716664169970399,0.20814110751564144,154.81203535825975,-46.52620629519685,-67.81919933372572,0
1767373148.840717,2,right_wrist,0.4831,-0.2313,-0.8847,8.89,-15.33,-32.62,0.16457076669391385,0.44773744365183327,-0.8538823844091064,0.20816464132440446,-166.38282334314798,-27.869180406495925,-128.05265430389673,0
1767373148.9086668,1,left_wrist,0.8355,0.366,-0.6246,-3.85,8.54,-2.17,0.38703203981564854,0.6955896412019709,-0.5648941981358729,0.217383983129118,154.20543024380993,-47.70453833444273,-66.5985838148565,0
1767373148.9086668,2,right_wrist,0.4646,-0.1991,-0.8023,17.01,-21.56,-22.26,0.1587176949500868,0.4589648081642164,-0.8482810975920032,0.21113781670894852,-166.12668948281458,-27.58629834499332,-126.59012341896685,0
1767373148.985568,1,left_wrist,0.7857,0.1664,-0.5793,12.6,2.8,1.4,0.38215128890139966,0.69548784295311,-0.5651012302331526,0.22564940124982963,155.474598254738,-48.226238397324416,-67.07618870687958,0
1767373148.985568,2,right_wrist,0.3587,-0.2303,-0.8481,-11.34,4.83,-5.81,0.15400703862702078,0.46292156215719577,-0.8490859068130686,0.20257981684932477,-166.9711747522818,-26.68515669257084,-125.9043061977897,0
1767373149.043612,1,left_wrist,0.7388,0.1576,-0.6202,-1.54,-1.68,-1.26,0.37890950065001844,0.6949960149756689,-0.5672107183143253,0.22733264287039984,156.20229223706468,-48.23075077739427,-67.6613446000055,0
1767373149.043612,2,right_wrist,0.4372,-0.1527,-0.9599,-30.17,7.35,-2.45,0.1623677629624802,0.4621020656058495,-0.8512781135253857,0.18821254991638448,-168.99863721136833,-26.76852016267567,-125.63615097327194,0
1767373149.0980349,1,left_wrist,0.7081,0.1313,-0.5949,3.01,-2.59,-1.82,0.37417049915800854,0.6954075955251752,-0.568821006165243,0.2298855728202656,157.14870569133993,-48.19350406740269,-68.23420373812323,0
1767373149.0980349,2,right_wrist,0.5285,-0.1479,-0.8735,-4.55,3.15,2.52,0.16863123175986933,0.4607954163609989,-0.8508023846791696,0.18805954950515383,-169.31563650855128,-27.403735406432777,-125.7320199259178,0
1767373149.159325,1,left_wrist,0.7974,0.2562,-0.6237,-11.2,-6.79,3.08,0.3740019987078774,0.6916925510989552,-0.5730286289649329,0.230915807391571,157.61292664457955,-48.42374644490075,-69.10970049392104,0
