timestamp,node_id,node_name,ax,ay,az,gx,gy,gz,qw,qx,qy,qz,roll,pitch,yaw,rep_number
1767381091.327072,1,left_wrist,0.1352,-0.4446,-0.6974,30.73,-57.68,17.5,-0.1499065395219968,0.833465203595128,-0.47361640135522043,0.241973734467199,-150.241787558654,-15.150596022146633,-63.26206966968228,1
1767381091.327072,2,right_wrist,0.1303,0.4197,-0.8633,-76.09,-56.56,-14.0,0.0022977953926697522,0.2889375499396864,0.9262675079691854,0.24194692817173688,153.01667142478942,-7.790908305668906,147.22263733439547,1
1767381091.378763,1,left_wrist,0.1718,-0.4924,-0.956,53.41,-106.61,33.6,-0.1954329722514972,0.833318092261654,-0.4737487440336076,0.20724149679280537,-148.06818908295256,-9.219893990659983,-61.880294100686626,1
1767381091.378763,2,right_wrist,0.1303,0.4197,-0.8633,-76.09,-56.56,-14.0,0.03519757915245866,0.28949387931748327,0.9202394057912225,0.26098632203343236,149.82816424525916,-4.9523648945267595,146.41008791724514,1
1767381091.471061,1,left_wrist,0.1718,-0.4924,-0.956,53.41,-106.61,33.6,-0.23589275999030865,0.831558036936339,-0.4717695652516342,0.17406698220231506,-146.0957660110952,-3.8370750979305828,-60.30526940576618,1
1767381091.471061,2,right_wrist,0.1527,0.4226,-0.8423,-86.03,34.09,-21.77,0.06130455804552201,0.27582384243691555,0.9055587054895825,0.3164275430777332,142.5452774232144,-3.6422683840488324,147.35475686870137,1
1767381091.522559,1,left_wrist,0.1718,-0.4924,-0.956,53.41,-106.61,33.6,-0.3131559478955384,0.8214406286697804,-0.46295669719080146,0.11331258709617212,-141.48207405853609,5.957812691134417,-56.72719394178772,1
1767381091.522559,2,right_wrist,0.1152,0.9345,-0.9467,-30.45,18.34,-20.16,0.060831928208645206,0.2641671060916222,0.9027777002691479,0.3339275976410821,140.4703773917203,-3.818148842335322,148.7517824987491,1
1767381091.576174,1,left_wrist,0.1718,-0.4924,-0.956,53.41,-106.61,33.6,-0.35084210441490826,0.8132240865459455,-0.45677725591273854,0.0832522751164175,-138.84834522660674,10.667421904973553,-54.63024728428378,1
1767381091.576174,2,right_wrist,0.0581,0.6837,-1.1185,6.93,-5.11,-8.82,0.06287343630674339,0.26193432779727244,0.9061024218311436,0.3262142548695702,141.30906582929734,-3.26498355094463,148.8997196799558,1
1767381091.666419,1,left_wrist,0.1181,-0.9823,-0.955,69.79,9.1,33.74,-0.3741663030818596,0.7956980388014714,-0.4657722719144041,0.0996012018062051,-135.49225600540828,10.955563040501643,-56.19195664107985,1
1767381091.666419,2,right_wrist,0.0039,0.7335,-1.0194,125.93,16.52,65.17,0.037328758750369395,0.2854384650762525,0.9193506592349461,0.26818988010239947,148.9172011086565,-4.845374702035726,146.85138044019394,1
1767381091.7201579,1,left_wrist,-0.0459,-0.8257,-1.016,-106.12,-27.72,-63.35,-0.33601399818059363,0.8274228714337729,-0.44260758014743967,0.08102169370613038,-140.48192305489982,9.402341506708261,-52.90263231405118,1
1767381091.7201579,2,right_wrist,0.0039,0.7335,-1.0194,125.93,16.52,65.17,0.011198003320526253,0.3100451613657157,0.9242549134231122,0.22248473576534708,155.09504803233992,-6.734054034529301,144.4001903341708,1
1767381091.770416,1,left_wrist,0.2513,-0.4573,-0.9965,-68.88,102.9,-64.26,-0.2843985058906862,0.8461100597978277,-0.43548540295317806,0.1164805579089052,-144.30550236052855,2.8999490654181774,-53.53507425295756,1
1767381091.770416,2,right_wrist,0.0039,0.7335,-1.0194,125.93,16.52,65.17,-0.015651877586027714,0.3339431431249876,0.9257405781524339,0.17675230649084417,161.3201004803335,-8.454826432626817,141.72117372396133,1
1767381091.823966,1,left_wrist,0.2513,-0.4573,-0.9965,-68.88,102.9,-64.26,-0.2315171920596869,0.8611686238992017,-0.4264813553334504,0.15133421472124747,-148.0695441700502,-3.6219594412841154,-53.729020632418944,1
1767381091.823966,2,right_wrist,0.3997,0.2811,-0.9457,72.94,105.21,51.73,-0.07730761158020402,0.34621321323682636,0.9206951625128035,0.16272787682975112,165.25412485628325,-14.775396589066183,140.70638642826464,1
1767381091.878674,1,left_wrist,0.2562,-0.3743,-0.8955,10.92,43.82,-56.84,-0.20638938743572516,0.8748055345822064,-0.3888518676751665,0.20226943027501962,-148.10387494218506,-11.150280551043263,-51.12600393841588,1
1767381091.878674,2,right_wrist,0.388,0.183,-0.8257,64.61,157.92,49.56,-0.15822377074071337,0.35206265540949777,0.908705050255651,0.15897250290059053,168.83521282716592,-23.546552418752356,139.97801996896555,1
1767381091.96607,1,left_wrist,0.5295,-0.2762,-0.5973,-47.39,140.98,-48.51,-0.15690754505926052,0.8729622288980545,-0.3849729410358953,0.25517210641249505,-150.17408784719063,-18.947455298737673,-52.683847425484046,1
1767381091.96607,2,right_wrist,0.5993,0.0683,-0.6324,86.59,121.17,5.25,-0.2916467051869191,0.32809659181194384,0.8894794524999642,0.12696900950769463,177.52364089723164,-37.023583756367955,140.33489574740744,1
1767381092.017378,1,left_wrist,0.6783,-0.1157,-0.4729,-51.59,148.47,-25.62,-0.10637176739033487,0.8621255435468022,-0.3889158625171147,0.30686975437301783,-151.8547688144135,-26.511739678369754,-55.32063095649831,1
1767381092.017378,2,right_wrist,0.6934,-0.1484,-0.4021,80.15,132.58,5.25,-0.357626106582906,0.3119777559619994,0.8728845981485935,0.11333986937629395,-177.98515266331495,-44.03133533213675,139.850434071046,1
1767381094.124764,1,left_wrist,0.3396,-0.632,-0.8525,52.71,-81.06,4.34,-0.2907221370530509,0.9189561534581256,-0.2408916001603296,0.11389233521597819,-143.7995902422562,-3.971432514148598,-30.676139034524496,2
1767381094.124764,2,right_wrist,0.5436,0.0669,-0.6339,-49.77,-93.8,-22.19,-0.003675958482938274,0.2405956036345635,0.9555435906341637,0.1704015529240314,161.02385853778242,-5.1072772970369815,152.588744139271,2
1767381094.218872,1,left_wrist,-0.0137,-0.4368,-1.1819,131.46,-66.08,35.21,-0.3475132757053462,0.9014640194140876,-0.24025255587159244,0.09421175249142216,-137.79281874151602,-0.16473159644016055,-29.91005060393041,2
1767381094.218872,2,right_wrist,0.5436,0.0669,-0.6339,-49.77,-93.8,-22.19,0.08011933118599414,0.2367657190001002,0.9492067555422967,0.19112671793744887,156.3255758489824,3.5313752990210032,151.24805840048873,2
1767381094.2736409,1,left_wrist,0.2996,-0.5114,-0.894,19.67,-55.65,41.44,-0.3590034042605235,0.8975058287087179,-0.24609836194176013,0.07096083013053921,-137.14307957309936,2.8272490514844155,-29.557728347049522,2
1767381094.2736409,2,right_wrist,0.2172,0.3055,-1.0438,-56.56,-60.41,-35.7,0.10911384930213285,0.22587452135512717,0.9458590556702837,0.2059745501259386,153.7821210400208,6.509262779800369,151.62083489437723,2
1767381094.3691862,1,left_wrist,0.0722,-0.6564,-0.9965,8.26,-27.02,-20.65,-0.3628653211216114,0.9020122959942677,-0.2262477563000744,0.059283466258659434,-136.95576452453207,3.2817539502383815,-26.867029264554176,2
1767381094.3691862,2,right_wrist,0.0737,0.5705,-1.1014,-34.3,-32.69,-5.04,0.13447635995367307,0.2266420813605363,0.9368359778871598,0.22997353349110256,150.1780147482295,8.49489115465354,150.53435813141817,2
1767381094.4263968,1,left_wrist,0.063,-0.7061,-1.0985,-31.01,54.25,-35.28,-0.33615228378423173,0.9127448099303129,-0.21083343465138446,0.09719988109572494,-139.076871811182,-2.0454980630108235,-26.7763606746162,2
1767381094.4263968,2,right_wrist,0.0386,0.6246,-1.1405,7.98,21.84,16.24,0.11836222078502592,0.23284359269612234,0.9373372287559505,0.2305930736585859,150.61774856892015,6.575155357654263,150.37346493821198,2
1767381094.523442,1,left_wrist,0.063,-0.7061,-1.0985,-31.01,54.25,-35.28,-0.3130885042568402,0.9192427369589233,-0.20609689398720335,0.12038458929327145,-141.10396356195523,-5.294337609713875,-27.14439781945077,2
1767381094.523442,2,right_wrist,0.0386,0.6246,-1.1405,7.98,21.84,16.24,0.08610317223289797,0.24498047641649615,0.9373932810574089,0.23208758375795074,151.45518093564417,2.7346895384270726,150.01175773056772,2
1767381094.580223,1,left_wrist,0.284,-0.5754,-0.9872,-9.45,83.02,-41.23,-0.2769331482465891,0.9197875519236811,-0.19407001834247062,0.19908721382607017,-142.59840834714635,-14.995728903099735,-28.93048091646376,2
1767381094.580223,2,right_wrist,0.2113,0.4275,-1.0575,48.93,86.52,43.96,0.03622524173274522,0.2568714662645416,0.9399595931288487,0.22176732168098562,154.15276247396534,-2.6268354084214005,150.0337617650783,2
1767381094.666413,1,left_wrist,0.4612,-0.4163,-0.7462,-75.46,138.67,-46.06,-0.2268934397184629,0.9187090391849795,-0.1967530495471453,0.2564786654410744,-145.9227048751844,-22.456046694705975,-31.13897532084049,2
1767381094.666413,2,right_wrist,0.5212,0.1674,-0.7413,100.87,130.62,35.77,-0.11860343102011275,0.2641871526002863,0.9397149321995442,0.18186319240686596,162.87129017357935,-18.60237939481211,151.42069964556447,2
1767381094.7168288,1,left_wrist,0.4612,-0.4163,-0.7462,-75.46,138.67,-46.06,-0.17522087117655422,0.9125118007992649,-0.1982660816980038,0.31194618214418485,-149.20107180925038,-29.988649915395584,-32.95537201971901,2
1767381094.7168288,2,right_wrist,0.67,-0.0625,-0.5724,81.13,166.46,37.8,-0.20248367185880642,0.2619954558304776,0.9291780432388164,0.16427692387441253,167.01831627812044,-27.539911349423633,151.70108071251323,2
1767381094.775896,1,left_wrist,0.7008,-0.1303,-0.4934,-33.46,171.5,-41.51,-0.09974201144518968,0.8659762983806102,-0.19450708435757777,0.4497816980831902,-148.85924480484707,-47.74841475262968,-39.379776949947264,2
1767381094.775896,2,right_wrist,0.7618,-0.1571,-0.4387,82.53,118.79,29.89,-0.2652155969206636,0.2582758131440865,0.9182706020627049,0.14047559532592918,171.60505585134197,-34.03106186657125,151.15456659565518,2
1767381096.628609,1,left_wrist,0.3831,-0.5627,-0.856,40.32,-77.63,-1.96,-0.16649646734034806,0.9169521709420431,-0.3510089505031606,0.09094151546201791,-158.30648707543173,-2.8599339918491196,-42.44174511555544,3
1767381096.628609,2,right_wrist,0.6495,0.2123,-0.9194,-74.41,-156.38,-41.23,0.13344231148252933,0.19804353404650882,0.9363054606298826,0.25749561651265573,147.24872889546063,8.504949457426887,153.6107012211863,3
1767381096.720652,1,left_wrist,0.2489,-0.669,-0.9179,32.69,-37.45,19.25,-0.18841391013117548,0.9123049576514247,-0.3539983170815808,0.08297622681902354,-156.25955608159052,-1.0315420179976926,-42.63195137212622,3
1767381096.720652,2,right_wrist,0.6495,0.2123,-0.9194,-74.41,-156.38,-41.23,0.27292837252012725,0.19118039646107068,0.8995753043543143,0.2823551509683243,138.47649752700931,22.524453768010805,147.36932667021725,3
1767381096.773029,1,left_wrist,0.2489,-0.669,-0.9179,32.69,-37.45,19.25,-0.20970811542938642,0.9073266782933199,-0.3565227933116139,0.07531469331777053,-154.26011346119375,0.7369234055105832,-42.735088911554946,3
1767381096.773029,2,right_wrist,0.6495,0.2123,-0.9194,-74.41,-156.38,-41.23,0.34071903661456177,0.18628734164370062,0.8738898458437839,0.29244504058522797,133.08443329540845,29.113693448549636,143.07443294196057,3
1767381096.828428,1,left_wrist,0.1244,-0.6769,-1.1502,-35.0,38.15,-29.33,-0.18770323183601845,0.9154426705146113,-0.3417844573634889,0.09957709809055573,-155.6485465685263,-3.0958308954681883,-41.6147923057309,3
1767381096.828428,2,right_wrist,0.6495,0.2123,-0.9194,-74.41,-156.38,-41.23,0.40672203777493976,0.18046425688772727,0.8434873309222909,0.30089692346009583,126.71684980294354,35.276826895664605,137.7214992324805,3
1767381096.920898,1,left_wrist,0.1244,-0.6769,-1.1502,-35.0,38.15,-29.33,-0.16992715304739542,0.9199621902583819,-0.33406388345297555,0.11487233315522265,-156.96588390952928,-5.613843424207917,-41.05950562449017,3
1767381096.920898,2,right_wrist,0.4524,-0.1025,-0.7642,-38.43,-93.38,-19.04,0.4781774934735867,0.17886504461292804,0.8041955383274833,0.3043404617941927,118.4190926072079,41.317009882483966,129.59587134940523,3
1767381096.979748,1,left_wrist,0.3143,-0.4738,-0.8984,-51.03,108.36,-42.91,-0.11509464753874853,0.9214065188632182,-0.3164213596588325,0.19401229923886976,-159.55348382617044,-16.540414013973482,-40.90932121486788,3
1767381096.979748,2,right_wrist,0.4524,-0.1025,-0.7642,-38.43,-93.38,-19.04,0.5127600702499241,0.17757666200323804,0.7825086845335503,0.3053257245936758,113.55494572132106,43.95084410620036,124.8203862585385,3
1767381097.032408,1,left_wrist,0.4582,-0.3562,-0.8496,-52.64,124.32,-37.94,-0.07253758416980849,0.9163091553509325,-0.310326386885541,0.2425146682273761,-161.98990067559083,-23.541685444441807,-41.20216976505749,3
1767381097.032408,2,right_wrist,0.4524,-0.1025,-0.7642,-38.43,-93.38,-19.04,0.5465050166916559,0.17597320817756343,0.7595032147015031,0.3058113202493187,108.17288511433078,46.26255189606896,119.52780848723974,3
1767381097.1206279,1,left_wrist,0.4582,-0.3562,-0.8496,-52.64,124.32,-37.94,-0.03275132396834108,0.9070587178919635,-0.3039972957366125,0.2894088410179182,-164.1737270528401,-30.33858807531882,-41.37300837359175,3
1767381097.1206279,2,right_wrist,0.5163,0.388,-0.8843,-16.8,-78.54,-23.38,0.6051261166722675,0.17502989484283496,0.7165377529637615,0.2996006799226113,97.82568088543633,49.66855679902502,108.5944656981242,3
1767381097.175304,1,left_wrist,0.7032,-0.2264,-0.4094,1.12,177.38,-39.83,0.03971774142204988,0.8626032693955978,-0.28214612914568266,0.41800916551250955,-165.50549649762044,-48.03595318919417,-42.711022378527176,3
1767381097.175304,2,right_wrist,0.6261,-0.002,-0.5431,54.46,134.96,12.74,0.5532462036818373,0.1770459449133292,0.7582889443061828,0.29592439650085645,108.25858527955151,47.244431198405735,118.61693805177931,3
1767381099.226679,1,left_wrist,0.244,-0.2996,-0.8813,37.66,-71.4,17.92,-0.11373593137142045,0.9511537247591538,-0.26881514342383644,0.10054426118822268,-164.17291910436026,-7.476423597864338,-32.60340383042057,4
1767381099.226679,2,right_wrist,0.2001,0.0996,-0.8345,24.15,-104.16,-36.96,0.7646171226510826,0.18125018295376027,0.4713395750879628,0.4004348035372375,53.1871041863288,35.14382344634406,73.29967314119503,4
1767381099.276719,1,left_wrist,0.0708,-0.7793,-1.2932,43.33,-50.68,11.62,-0.14258111034859672,0.9487182237758089,-0.26936668574500944,0.08394014211439299,-161.5281359083698,-4.729858989387107,-32.47088801867971,4
1767381099.276719,2,right_wrist,0.0268,0.3787,-1.3181,-34.51,-105.84,-22.54,0.7898092456628939,0.18571637557040468,0.43493448277378544,0.3905672528575616,48.879881884607904,32.81723825637823,67.87069528587766,4
1767381099.369626,1,left_wrist,0.1171,-0.3079,-0.9287,42.0,-38.22,19.25,-0.163442387234596,0.9450766622607888,-0.27253082839497006,0.07644367913316795,-159.4431231697324,-3.1760471499303473,-32.747938411497785,4
1767381099.369626,2,right_wrist,-0.0185,0.5949,-1.1634,-48.3,-59.43,-22.47,0.8221224845895563,0.16736957011252585,0.38259780364885804,0.3869379381447537,41.25902929247012,29.970976190014834,61.917363137809375,4
1767381099.424157,1,left_wrist,-0.0464,-0.7022,-1.0477,19.39,-41.23,11.76,-0.19848690475976138,0.939682447666062,-0.27490230388674197,0.04503964370384638,-156.55231267521654,1.402917880706436,-32.32231901557072,4
1767381099.424157,2,right_wrist,-0.0727,0.5085,-0.7735,-38.99,-19.04,-14.14,0.8284475781827763,0.15711888058846823,0.3734468803722825,0.38668552482078994,39.26732758177873,29.81830249686198,60.894282163062464,4
1767381099.476979,1,left_wrist,-0.1386,-0.6925,-0.9496,26.32,-17.64,8.54,-0.21572561450199101,0.9356853423460888,-0.27637122549756477,0.03967801763439547,-154.78186236016353,2.578517230822606,-32.33398848411096,4
1767381099.476979,2,right_wrist,-0.0727,0.5085,-0.7735,-38.99,-19.04,-14.14,0.8345727260898682,0.14682801655639324,0.3642220367810611,0.386357614580193,37.28342144377569,29.635685104803425,59.882205072481476,4
1767381099.5307121,1,left_wrist,-0.0083,-0.7569,-1.0287,-28.42,61.25,-36.47,-0.19968586942133504,0.9404082982182718,-0.26705786614738014,0.06661743258688142,-155.7181666744252,-1.0680442083242787,-31.93682607794944,4
1767381099.5307121,2,right_wrist,0.1171,0.6437,-1.1756,15.12,32.41,18.9,0.8231525163470266,0.15314688206850754,0.38033289517156893,0.39282675086437935,39.692371822587226,30.386038395314298,62.21909144210286,4
1767381099.620129,1,left_wrist,-0.0083,-0.7569,-1.0287,-28.42,61.25,-36.47,-0.1838112808935225,0.9439963314981614,-0.2579971621681308,0.09231361463775052,-156.67670092460597,-4.556483954794339,-31.512546575682144,4
1767381099.620129,2,right_wrist,0.181,0.5144,-1.0287,39.13,82.81,45.22,0.7706262583872553,0.17594426034585858,0.4459672912756254,0.4198713639291081,50.07662501243759,32.65643347262781,72.75158552725456,4
1767381099.670422,1,left_wrist,0.2201,-0.7344,-0.9536,35.49,57.47,-40.11,-0.1934068090714134,0.941919161027656,-0.2440413167132545,0.12580117658683257,-154.5233109327279,-8.197779380452324,-30.906896921095832,4
1767381099.670422,2,right_wrist,0.1732,0.4475,-1.0053,51.03,105.77,53.06,0.732734655070168,0.18677227323695827,0.4889683327071871,0.434886206746839,57.10874566382876,33.650035447408634,80.06872106093928,4
1767381099.723146,1,left_wrist,0.1967,-0.5241,-0.9335,-43.19,107.03,-55.16,-0.17495119247986027,0.9382965914296361,-0.22059783574844885,0.200818778067445,-154.08767610484128,-17.43762996472279,-30.501782592643718,4
1767381099.723146,2,right_wrist,0.3055,0.2938,-0.9316,66.71,131.18,56.91,0.6840767566311626,0.1979559156494946,0.5403818215337841,0.44815168576296643,65.91305707286972,34.187071222059444,89.0098129151148,4
1767381099.775457,1,left_wrist,0.5017,-0.3675,-0.7291,-7.98,150.01,-54.18,-0.1509686511755675,0.9279742501231961,-0.20886644840240157,0.26915992309831105,-154.12613139981895,-25.87965781903609,-31.41162148624643,4
1767381099.775457,2,right_wrist,0.3889,0.2494,-0.8398,76.37,130.06,49.77,0.6324892092385692,0.2096368178008702,0.5908431353349923,0.45487821913849635,75.07806273248163,33.826877527217526,97.74970652476594,4
1767381099.8298082,1,left_wrist,0.5558,-0.164,-0.6339,-67.97,155.68,-47.53,-0.09990533359824427,0.9154776699608282,-0.20573687916803118,0.33104666841990005,-157.24445175850582,-34.40390530565218,-32.4612457286272,4
1767381099.8298082,2,right_wrist,0.5144,0.0756,-0.6886,85.68,152.6,42.14,0.572048191253816,0.2160805187399986,0.64600290107448,0.45689203112731824,85.08792691143192,32.795258534237014,107.45451103664514,4
1767381099.917762,1,left_wrist,0.5924,-0.1537,-0.3782,8.75,166.04,-39.76,-0.08116669396385914,0.8910168729238224,-0.19417680819747923,0.40223906711589996,-155.6001664054453,-43.25780559457847,-34.38795188996639,4
1767381099.917762,2,right_wrist,0.7164,0.0181,-0.4163,61.39,146.58,13.23,0.45687227666948865,0.20130750409396136,0.7366617813672943,0.45614957138976076,101.00007262934788,29.30562252730233,125.10555978834765,4
1767381099.968918,1,left_wrist,0.7798,-0.1093,-0.2186,-18.62,182.14,-43.33,-0.04948953140232609,0.8591222455234,-0.18535771436133391,0.47444944014631424,-154.41283521479468,-52.83258214145285,-37.22194190333566,4
1767381099.968918,2,right_wrist,0.6983,-0.1747,-0.265,58.31,198.87,17.71,0.38047813424140564,0.17971902976301232,0.7837284017821833,0.45684488827737274,108.96400941171044,25.60570861647912,135.7428408518252,4
1767381101.4193568,1,left_wrist,0.1908,-0.8438,-0.8755,-29.33,-43.75,24.71,-0.16606925765576785,0.9443078619693274,-0.26232118344406397,0.10904705498584429,-158.0685087038044,-6.824064857943646,-32.373473319026694,5
1767381101.4193568,2,right_wrist,0.4441,0.1503,-0.4748,-99.33,-123.69,-15.47,0.793994873716263,0.24083975291475965,0.45069743947380075,0.3293025538619661,54.8814747674355,33.854418714364094,63.012057278570275,5
1767381101.4707892,1,left_wrist,0.1908,-0.8438,-0.8755,-29.33,-43.75,24.71,-0.1636932090777885,0.9446429552492779,-0.27059612695057694,0.08736106958521993,-159.04778513585245,-4.385146155287352,-32.78030393011846,5
1767381101.4707892,2,right_wrist,0.4441,0.1503,-0.4748,-99.33,-123.69,-15.47,0.8271647955719016,0.22449479171327363,0.39484774257240757,0.33090141983010923,47.12655290168446,30.307259501868252,57.07949836409469,5
1767381101.5267782,1,left_wrist,0.0185,-1.0619,-1.1102,52.64,-80.78,17.15,-0.21031871852560863,0.9400547047406821,-0.2658454859243577,0.037274204837890665,-155.44271397616683,2.392506428805912,-31.060793382459234,5
1767381101.5267782,2,right_wrist,0.4441,0.1503,-0.4748,-99.33,-123.69,-15.47,0.8568119666926112,0.20747019426061308,0.33678034903459564,0.3307693588135688,40.08791062504894,26.095287073964037,51.8834837752585,5
1767381101.62379,1,left_wrist,0.0005,-0.5451,-1.059,11.34,-48.3,3.5,-0.2231014947060907,0.9387431270873635,-0.2617042019086432,0.02231535591260945,-154.4205625178067,4.294121913440341,-30.179748317563774,5
1767381101.62379,2,right_wrist,-0.1108,0.5763,-1.3034,-12.18,-26.81,-22.96,0.8735712714560244,0.2094418691097715,0.3100471108119404,0.3112525120021988,37.82154852755459,24.28764900075942,47.65410467369264,5
1767381101.6749802,1,left_wrist,-0.081,-0.7237,-1.1024,-9.1,-15.54,-7.35,-0.22696221428760208,0.9407361516228473,-0.2517085744275377,0.012101234447795463,-154.21857693097743,5.249247109702111,-28.75683809590966,5
1767381101.6749802,2,right_wrist,-0.063,0.588,-1.1541,-2.45,6.37,-9.8,0.8724433364949112,0.20966368792437517,0.31600599239780386,0.30825959083255816,38.2044185865503,24.969323549770785,47.68942040995906,5
1767381101.724999,1,left_wrist,-0.0356,-0.7671,-1.1551,-22.61,42.84,-36.47,-0.21604572782435696,0.945781082437601,-0.24019279051589693,0.033612660950749274,-154.83954310936682,2.304187245719252,-27.985152381892718,5
1767381101.724999,2,right_wrist,-0.063,0.588,-1.1541,-2.45,6.37,-9.8,0.8712606417404981,0.20984925144976313,0.3219741212764825,0.30528814429673845,38.58947982658638,25.652872937773523,47.73542453943261,5
1767381101.776407,1,left_wrist,0.1215,-0.6593,-0.9394,5.53,74.48,-39.83,-0.2123083686611295,0.9470851773245952,-0.22965084274638584,0.0722171303387552,-154.1730932342245,-2.2510401509475444,-27.77638671979839,5
1767381101.776407,2,right_wrist,0.0566,0.4812,-1.0487,37.1,87.71,54.18,0.8453488712151258,0.22313517320570572,0.3575738825409603,0.32823299489593627,43.50882299173902,27.262554526729897,53.49518278035085,5
1767381101.8315258,1,left_wrist,0.1386,-0.7593,-0.9457,18.34,65.45,-46.69,-0.21513801852459216,0.9464726865318316,-0.2152067344087826,0.10766219438427474,-152.84402033337014,-6.384515211783972,-27.163449545893556,5
1767381101.8315258,2,right_wrist,0.1347,0.4128,-1.0477,78.33,93.24,63.35,0.8103741865330665,0.25155761921264924,0.3989044037210443,0.3476891121517799,50.97958993820631,28.137944544195623,60.06991919617379,5
1767381101.91924,1,left_wrist,0.1957,-0.5061,-0.8428,-46.83,120.89,-55.44,-0.18313609106838177,0.9477897005168913,-0.20454235490492914,0.16222909970853244,-154.8381982469902,-13.450191035089293,-27.371379761474234,5
1767381101.91924,2,right_wrist,0.2094,0.3392,-0.9999,69.44,128.66,33.11,0.736708703846336,0.25597459404827216,0.4907733444917354,0.38843122584991846,62.95189857585361,31.618234164748408,75.2697208067193,5
1767381101.974863,1,left_wrist,0.4856,-0.2152,-0.6954,-91.98,146.58,-56.35,-0.09448087535078632,0.939297634717946,-0.18804564073031663,0.2709836795981373,-161.50466765247947,-28.26402145647551,-27.336623004144425,5
1767381101.974863,2,right_wrist,0.4734,0.0849,-0.7754,80.64,135.03,17.01,0.6914161177403199,0.2654463456357742,0.5464488878611751,0.3909930979861435,71.75550430389809,33.234827899003214,83.33800430961391,5
1767381102.027839,1,left_wrist,0.4856,-0.2152,-0.6954,-91.98,146.58,-56.35,-0.03585675662935012,0.9264182625856155,-0.18012193693958137,0.32866332862825814,-166.69145665779874,-36.586966943512124,-26.42270022530283,5
1767381102.027839,2,right_wrist,0.5573,-0.1244,-0.6437,77.77,141.54,16.03,0.6417651920374203,0.2705289297060429,0.600465112592314,0.3929289821847905,80.81061735628212,33.92573784230297,92.06528096383236,5
1767381103.6198568,1,left_wrist,0.3089,-0.6974,-0.65,57.05,-92.19,30.66,-0.29002619669233143,0.9439476105570402,0.10052458895364674,0.12141878261428773,-146.89372604126305,-16.710465464973918,7.158410217410966,6
1767381103.6198568,2,right_wrist,0.2406,-0.0098,-0.5666,-21.98,-104.79,-37.38,0.7927081962404947,0.241539995446798,0.4596240978229166,0.31940230887263826,55.740699947107906,35.057534679817245,62.856138712179835,6
1767381103.67785,1,left_wrist,0.0137,-0.3392,-0.9482,56.84,-55.44,38.15,-0.32817232202482016,0.9389222207316517,0.08783830569963824,0.054885540217787854,-142.0768361955914,-9.248615059324536,7.505472193751003,6
1767381103.67785,2,right_wrist,0.2406,-0.0098,-0.5666,-21.98,-104.79,-37.38,0.8179800272812849,0.2438667110902163,0.42630387391167135,0.2995041056126797,51.654692351013196,33.45885018617464,56.77517313790882,6
1767381103.774949,1,left_wrist,0.1181,-0.6578,-1.1287,30.66,-79.87,28.63,-0.33421932272126753,0.9382626782825622,0.08793068509431236,0.015125656369741784,-141.1784583331346,-5.00024173419935,8.944943872830093,6
1767381103.774949,2,right_wrist,-0.0615,0.5353,-1.0067,-84.14,-82.95,-29.19,0.8650231916448897,0.2229040330807472,0.356903596312862,0.2732553620549305,41.95805928361103,29.711983384742528,46.67730677421497,6
1767381103.829128,1,left_wrist,-0.1269,-0.6383,-1.0848,-12.32,-89.6,-13.72,-0.30948833473951864,0.9410820886506832,0.12263640388732172,-0.059512902152497736,-143.30935014131288,2.069055326975723,15.535391703922544,6
1767381103.829128,2,right_wrist,-0.0615,0.5353,-1.0067,-84.14,-82.95,-29.19,0.8865070647877098,0.19953711873874044,0.3210125854326945,0.2669102514343316,36.32398509082841,27.55777736388873,42.71095853485739,6
1767381103.921525,1,left_wrist,-0.0556,-0.834,-1.1082,-20.79,-0.42,-24.78,-0.30441282492553823,0.9414809303651023,0.13243044415603625,-0.05838379261704454,-143.91999906036133,1.6794310082089308,16.56060965732778,6
1767381103.921525,2,right_wrist,0.039,0.5705,-1.1297,21.63,-22.82,7.56,0.9044975789100819,0.19151556157002822,0.27989632780152235,0.25858067426924924,32.53618400312741,24.03450033339,39.01789420730052,6
1767381103.972228,1,left_wrist,0.1127,-0.7135,-1.0604,10.22,97.65,-21.0,-0.3197674806635022,0.938572099844239,0.1252977178584019,0.03364005950603107,-143.2739567224486,-8.23766230821851,12.469252078908225,6
1767381103.972228,2,right_wrist,0.0859,0.4319,-1.1385,40.46,87.99,52.43,0.8816185756411274,0.20744378619240406,0.31705882728603985,0.28140622362462187,37.35829029830683,26.250592092083632,44.42002288903111,6
1767381104.023961,1,left_wrist,0.1244,-0.6407,-1.0716,-8.89,70.28,-38.08,-0.31521395911864636,0.9375966421249835,0.13074748597743033,0.06676669501544602,-144.09755503312192,-11.983343471122792,11.982296216447978,6
1767381104.023961,2,right_wrist,0.0859,0.4319,-1.1385,40.46,87.99,52.43,0.8563445472392894,0.22274034430236958,0.3534379929754521,0.303549568530549,42.48005697720664,28.041042763472817,50.12301705597782,6
1767381104.075852,1,left_wrist,0.1703,-0.5065,-0.9443,5.04,92.82,-43.68,-0.3169124026637653,0.9323051567147144,0.13594548054275335,0.10905251084239755,-144.09955008362306,-16.828386521536256,11.10535085394372,6
1767381104.075852,2,right_wrist,0.2377,0.2528,-0.9775,52.36,112.63,63.0,0.8217479410234044,0.2403683427017237,0.3980323312278396,0.3294292709337671,49.188615745846754,29.722237449306025,57.54057316232309,6
1767381104.166344,1,left_wrist,0.2274,-0.3836,-0.8042,-63.0,125.51,-53.41,-0.2913900546439631,0.9312857802946345,0.13747066132193925,0.17000131985167252,-147.29298710270913,-23.3754608876015,9.846627884184882,6
1767381104.166344,2,right_wrist,0.489,0.1127,-0.691,86.31,138.11,12.67,0.7400936054770378,0.2704186999591185,0.5107895092683127,0.34384481829141383,66.17006121262345,34.75719667439457,72.88881004374804,6
1767381104.223178,1,left_wrist,0.6598,0.0771,-0.4836,-36.96,185.29,-64.19,-0.2693504308319247,0.897306631179755,0.13745325646760237,0.32155521662375075,-148.64013375926984,-40.62560347701464,5.553720758936172,6
1767381104.223178,2,right_wrist,0.5622,-0.1054,-0.673,101.43,135.45,2.8,0.6931951690932567,0.28550280972973247,0.5692038249348917,0.33760273823191733,76.38247083043815,36.610045589403946,81.10904769897766,6
1767381104.274966,1,left_wrist,0.6598,0.0771,-0.4836,-36.96,185.29,-64.19,-0.2525060657228172,0.8680765864260004,0.13701748315896653,0.4048579209808661,-148.98621846144056,-50.542018893335246,3.0148999806842913,6
1767381104.274966,2,right_wrist,0.6759,-0.001,-0.3963,42.42,161.84,16.8,0.6415250443981286,0.2803783887279007,0.6209250033895454,0.35254179427412347,84.86427065099333,36.79742993711847,91.40736383579465,6
1767381105.716906,1,left_wrist,0.203,-0.5007,-1.0843,83.79,-92.61,20.23,-0.4222550092803772,0.7782013277650177,0.4636773941191794,0.03326672188898713,-135.6707422191391,-26.318243574678934,50.69461189226896,7
1767381105.716906,2,right_wrist,0.2538,0.161,-0.834,-64.12,-112.21,-7.84,0.8913611387248382,0.1789466987421198,0.31730277571349885,0.26976350365637974,33.71577959850383,27.97693921167684,42.30983161163297,7
1767381105.768936,1,left_wrist,0.203,-0.5007,-1.0843,83.79,-92.61,20.23,-0.42758026787015707,0.7689210378155348,0.4749025882730982,-0.020076946587518196,-133.1168869255414,-22.03931882826052,53.74783277949895,7
1767381105.768936,2,right_wrist,0.2538,0.161,-0.834,-64.12,-112.21,-7.84,0.9097931735391417,0.16985849399523603,0.26872784344285083,0.266851680822516,29.558813438569715,23.47316212589616,38.9685797657761,7
1767381105.829605,1,left_wrist,0.0371,-0.5353,-0.8828,28.07,-86.52,22.12,-0.4183889072522727,0.7610381397850061,0.4875555435390538,-0.08978454235092287,-131.1839270533154,-15.742635579158454,58.11121963114779,7
1767381105.829605,2,right_wrist,0.2538,0.161,-0.834,-64.12,-112.21,-7.84,0.9257864666785297,0.160599782403474,0.21898214002870242,0.263009411153461,25.82352702883848,18.72237661649266,36.047534816928724,7
1767381105.918787,1,left_wrist,0.0371,-0.5353,-0.8828,28.07,-86.52,22.12,-0.40396758473356575,0.7585090530355598,0.49476848643167837,-0.12914469320004565,-130.84332787433533,-11.760784186686768,60.837973287403415,7
1767381105.918787,2,right_wrist,0.2538,0.161,-0.834,-64.12,-112.21,-7.84,0.9501726609753085,0.14157755599169863,0.11591641151415501,0.25237094824127404,19.344225113520963,8.558612968827386,31.210563922403697,7
1767381105.977804,1,left_wrist,-0.0722,-0.7379,-1.1824,-21.77,4.06,-20.58,-0.36913122003983384,0.7621608502308761,0.5157472833731369,-0.12983728455448063,-134.88328227131393,-10.535403857077148,63.78499258545893,7
1767381105.977804,2,right_wrist,0.2538,0.161,-0.834,-64.12,-112.21,-7.84,0.9583833046131112,0.13166423841670127,0.06255914911273386,0.24546348531562326,16.47010441964095,3.168568131985591,29.19053299142766,7
1767381106.032193,1,left_wrist,-0.0722,-0.7379,-1.1824,-21.77,4.06,-20.58,-0.3597116405086682,0.7630513366630315,0.5230784037956344,-0.1214461888324835,-136.47397321475268,-11.00971452996519,64.45523026701059,7
1767381106.032193,2,right_wrist,0.2538,0.161,-0.834,-64.12,-112.21,-7.84,0.9637754547519579,0.12126282823076627,0.008061570813554558,0.23741779710702038,13.755457739757576,-2.4094716108455034,27.386895487702837,7
1767381106.116239,1,left_wrist,0.0542,-0.6134,-1.0795,13.44,104.72,-27.72,-0.38485504343221383,0.7610931381478844,0.515114639852518,-0.08532724312085072,-135.65089547586825,-15.462342552541102,61.84686148344261,7
1767381106.116239,2,right_wrist,0.2538,0.161,-0.834,-64.12,-112.21,-7.84,0.9655124299689986,0.09829597729756312,-0.10336318834600751,0.2178065649089224,8.582711714732293,-14.029172992282128,24.366736288587173,7
1767381106.167994,1,left_wrist,0.1464,-0.5851,-0.9902,-9.87,66.57,-37.24,-0.3935475642749568,0.7581633765306506,0.5170019920067824,-0.05493222553210825,-136.31287833165956,-18.882869892845438,60.953978082478926,7
1767381106.167994,2,right_wrist,-0.0342,0.4099,-1.1058,-19.74,-20.86,-20.86,0.9668282204151193,0.09776209483807446,-0.11390203307463051,0.20666903948891469,8.45549984289577,-15.109002067733858,23.00851729211915,7
1767381106.223812,1,left_wrist,0.2391,-0.4094,-0.8052,-21.21,114.38,-55.16,-0.4166043662361092,0.7474018815936972,0.5168298229422319,0.02679857348278205,-137.59089395183804,-28.0788179731643,58.24553216046844,7
1767381106.223812,2,right_wrist,0.2786,0.4109,-0.9653,43.82,121.03,55.72,0.963617599119989,0.10652472327473701,-0.0637489585346253,0.23670588561170094,10.242152419571093,-9.979120979480077,26.705535143608852,7
1767381106.276577,1,left_wrist,0.2391,-0.4094,-0.8052,-21.21,114.38,-55.16,-0.43021889814484804,0.7381976133206333,0.513771385036258,0.07755609121583751,-138.04012128066123,-33.81904216576887,56.375936304790265,7
1767381106.276577,2,right_wrist,0.4538,0.3235,-0.8647,63.77,133.28,45.64,0.9569900368475415,0.12187097863674103,-0.006301586679149329,0.26320680831997706,13.333114367104958,-4.371074092097555,30.245207099518794,7
1767381106.368945,1,left_wrist,0.3865,-0.408,-0.8642,-46.13,145.81,-54.46,-0.4412436926330893,0.7296546553414636,0.5022531819732509,0.14370048311606418,-138.73333836182977,-40.76329718170703,53.15508608852415,7
1767381106.368945,2,right_wrist,0.5607,0.08,-0.7266,76.44,141.54,31.08,0.930022841839845,0.16769845857805007,0.11688159871791014,0.30540699489014694,22.698295552989574,6.602041699018366,37.685486668946155,7
1767381106.420557,1,left_wrist,0.5383,-0.1293,-0.6412,-59.5,149.38,-48.23,-0.44692784676939,0.7196970316019285,0.4859942080249029,0.21471216139682595,-139.46930385109275,-48.02734585582762,49.37804342286939,7
1767381106.420557,2,right_wrist,0.6295,-0.082,-0.3919,54.18,142.73,10.78,0.9153280903116106,0.17303711571507405,0.1766928564282629,0.3178242881825261,26.053505207643845,12.325961285857884,41.15869132254694,7
1767381107.925048,1,left_wrist,0.2137,-0.3689,-0.9775,33.6,-80.64,14.0,-0.26798892649142686,0.7784549945406953,0.5476879202013608,-0.14908956642946833,-144.43386906465298,-3.521871934555525,69.1272668418871,8
1767381107.925048,2,right_wrist,-0.1381,0.5949,-1.4772,-38.78,-132.86,-26.95,0.9605603734622445,0.1995565202995603,-0.1566251627686182,0.11388381152608229,21.75499014467006,-20.26412666221549,9.58926234477673,8
1767381107.975242,1,left_wrist,0.3187,-0.5802,-0.7379,29.33,-56.21,20.02,-0.266168872961022,0.7748091717555892,0.5463023746973882,-0.1742945605292137,-142.9131596822122,-1.1876733850710268,69.97538550433684,8
1767381107.975242,2,right_wrist,-0.1381,0.5949,-1.4772,-38.78,-132.86,-26.95,0.9533100512346621,0.19608002152225248,-0.2123533088720992,0.08751367656469276,22.00957949679361,-26.052623022928717,5.338043145597363,8
1767381108.030282,1,left_wrist,0.0122,-0.7984,-1.0194,30.1,-65.87,8.47,-0.26139033472456225,0.7673452208783592,0.547127087463558,-0.20858656493496353,-140.96714144727238,1.9534966083662673,71.67118170365123,8
1767381108.030282,2,right_wrist,-0.1381,0.5949,-1.4772,-38.78,-132.86,-26.95,0.9422921713616762,0.1916488484106396,-0.2677743807460521,0.06044057998928902,22.775735824150157,-31.857613899352454,0.7601368428350006,8
1767381108.120579,1,left_wrist,0.0122,-0.7984,-1.0194,30.1,-65.87,8.47,-0.25607564915162984,0.7593200899503438,0.5504520971625675,-0.23422372134073993,-139.57045807649016,4.231517798497309,73.43753272421885,8
1767381108.120579,2,right_wrist,0.0078,0.486,-1.0024,-6.16,-54.11,-14.35,0.9271904711701319,0.20063128133393515,-0.3142333229034365,0.036363964287146826,25.810322478972655,-36.67675263871281,-4.194202799610228,8
1767381108.170984,1,left_wrist,-0.141,-0.7745,-1.1112,26.81,-82.39,10.22,-0.2400707761892572,0.7513392112448216,0.5534900888943695,-0.2674025683526615,-138.47675065203856,7.820293718350611,75.72462823270868,8
1767381108.170984,2,right_wrist,-0.1352,0.5095,-1.1395,-30.8,-10.01,-13.79,0.9270595488181734,0.19430130560475886,-0.3196833076518008,0.024701789290150593,25.564433505095284,-37.03696208678201,-5.638545832150397,8
1767381108.2237911,1,left_wrist,-0.1981,-0.7325,-1.0336,-27.09,55.02,-18.48,-0.23902970665941511,0.758028000021728,0.5578818239842512,-0.23880163522341732,-140.82390460673898,5.470658649645959,74.65153097515085,8
1767381108.2237911,2,right_wrist,-0.2489,0.5129,-1.1497,3.01,1.47,3.64,0.9254447695014664,0.19922370394920602,-0.3212564256704844,0.02561646643394462,26.254744707861242,-37.21567248801717,-5.808164050995565,8
1767381108.27987,1,left_wrist,-0.1161,-0.6461,-1.1053,-16.1,113.89,-22.33,-0.2601138883466213,0.766373197874072,0.5551007176773884,-0.19203145550538897,-142.2735909985925,0.3183776177381836,71.94203431978774,8
1767381108.27987,2,right_wrist,-0.2489,0.5129,-1.1497,3.01,1.47,3.64,0.9238019160494337,0.20413947352280687,-0.3228208107623343,0.026529594644009922,26.947327764768445,-37.39283145499717,-5.980992908171597,8
1767381108.3299851,1,left_wrist,-0.1161,-0.6461,-1.1053,-16.1,113.89,-22.33,-0.2793769180291184,0.7728911664164934,0.5503794063016337,-0.1472083274375625,-143.4299464910025,-4.58710417923009,69.39325934389468,8
1767381108.3299851,2,right_wrist,-0.2489,0.5129,-1.1497,3.01,1.47,3.64,0.922131025929015,0.2090483125912867,-0.32437657932685543,0.027441005922638192,27.642182193294737,-37.56842193106891,-6.157049096214562,8
1767381108.3810718,1,left_wrist,0.1122,-0.5495,-1.0321,-42.21,92.96,-41.02,-0.28642657292328066,0.7741418745675764,0.5559491642378187,-0.09790149716778603,-145.9315354040958,-9.607506898750103,68.41810231655816,8
1767381108.3810718,2,right_wrist,0.0893,0.3636,-1.0482,47.46,96.6,58.45,0.9277232859040874,0.22182182619072582,-0.29290945737327034,0.06579233996469833,27.067470669954037,-34.93635822077118,-0.5502771058732014,8
1767381108.4663758,1,left_wrist,0.1249,-0.4387,-0.8672,-3.78,128.24,-56.28,-0.31386756083239675,0.7662457916510761,0.5588243388415031,-0.04549614656753296,-146.34511451375047,-16.324147826965934,67.23902837738082,8
1767381108.4663758,2,right_wrist,0.3445,0.2089,-0.8667,71.33,146.3,35.77,0.9358311278206888,0.2552350745364405,-0.1967138386119263,0.14275441368586894,28.015087432332272,-26.171132835805825,10.7090506169168,8
1767381108.518649,1,left_wrist,0.1249,-0.4387,-0.8672,-3.78,128.24,-56.28,-0.3402185575232401,0.755849237568688,0.5593969850202661,0.0042750829085361,-146.45396947559698,-22.773993079289426,66.06212594464525,8
1767381108.518649,2,right_wrist,0.4646,0.1742,-0.9038,75.81,134.54,20.86,0.9340505106448979,0.27833994343438256,-0.1426217514558284,0.17244000540658236,30.33942591835852,-21.24924286615664,15.096637416426805,8
1767381108.583178,1,left_wrist,0.4665,-0.3109,-0.7998,-85.82,159.6,-56.56,-0.3499739448573409,0.7428312480039171,0.5443665398095585,0.1714206674987071,-154.4189528345799,-39.47203043787604,63.157424961296556,8
1767381108.583178,2,right_wrist,0.5246,0.1078,-0.7008,93.8,149.45,38.57,0.9248544083606013,0.3047995509436036,-0.08281416054944193,0.2118569609265436,33.44402041837645,-16.399309522431707,20.846644713775994,8
1767381108.6664891,1,left_wrist,0.7032,-0.3343,-0.4563,3.08,202.09,-55.58,-0.3959952016604059,0.7094682858994598,0.5286393859029002,0.24572942688457455,-151.89368529970835,-50.11667395223057,60.03077038821363,8
1767381108.6664891,2,right_wrist,0.7466,-0.08,-0.307,56.14,190.33,24.01,0.8979211822262774,0.3264650594482263,0.05141260715600523,0.2907143947145597,38.25201520170602,-5.594493205049018,33.938685713576696,8
1767381110.2235389,1,left_wrist,0.0088,-0.5222,-1.0175,58.24,-49.42,5.74,-0.2060211399191467,0.7024543291546459,0.643721145190505,-0.22301635050582386,-144.7441153843729,2.755687153266608,85.87936406447116,9
1767381110.2235389,2,right_wrist,0.0878,0.6954,-0.8857,-82.74,-76.72,-26.67,0.8801885890514599,0.21554946372107142,-0.42190679411298593,0.02830430134204136,32.8313491118048,-49.018121926099845,-11.616619496563914,9
1767381110.2795799,1,left_wrist,0.0342,-0.7471,-0.9482,20.37,-47.53,1.68,-0.18865393476726877,0.6910525446021234,0.6447558835830515,-0.2667319329978996,-142.4464063713028,7.202706209218201,88.48165910754645,9
1767381110.2795799,2,right_wrist,0.0561,0.5588,-0.9052,-5.6,-51.52,-8.4,0.8690066317327748,0.21905413803807203,-0.4433023910177392,0.018048510487308093,35.5168514998704,-51.11181613903036,-15.033888236792775,9
1767381110.3296928,1,left_wrist,-0.0888,-0.6002,-0.9389,-0.77,-18.76,-10.57,-0.1831686257524176,0.6866329699528567,0.6508223575655259,-0.2672352484357949,-142.81429112395924,7.386653389731927,89.42043725393451,9
1767381110.3296928,2,right_wrist,-0.0429,0.4607,-1.0228,11.97,-29.26,-2.8,0.8598583363838483,0.22767458295359977,-0.45669416709410027,0.015439021028909743,38.22576502352726,-52.411746798641,-17.30108543335781,9
1767381110.420353,1,left_wrist,-0.1186,-0.7857,-0.9794,-13.79,6.44,-15.96,-0.1871875646949529,0.6824414429156671,0.6571469048708141,-0.2596005355030384,-143.11498295037788,6.217607991768111,89.91176023018171,9
1767381110.420353,2,right_wrist,-0.0425,0.5119,-0.9292,4.13,3.57,0.42,0.8559638042706704,0.23752173830040854,-0.458982039997204,0.01564853262254181,40.09880250503448,-52.48347767841188,-18.302868425724306,9
1767381110.4772952,1,left_wrist,0.0542,-0.669,-1.0014,-33.67,84.49,-35.49,-0.22901213843683846,0.6867662170710329,0.6652503815327391,-0.18261307020329687,-146.05938545649548,-3.088354106536426,87.23389534913831,9
1767381110.4772952,2,right_wrist,-0.0834,0.4807,-1.1746,22.82,82.11,29.54,0.8669100145448848,0.24269578145564394,-0.4336700602303203,0.038678976269444165,37.423740880146184,-50.415017228421874,-13.008641270352102,9
1767381110.570712,1,left_wrist,0.1586,-0.4895,-1.0146,48.79,52.5,-35.07,-0.26025317418278854,0.6757451398150226,0.6676046965590451,-0.1730339864779861,-144.08630684063672,-6.525115425376865,87.18885128528731,9
1767381110.570712,2,right_wrist,0.2289,0.367,-1.0429,43.61,113.75,46.69,0.8874401789128888,0.25545490900416923,-0.3707087079569108,0.09883204015727755,32.589106113747434,-45.109581017566676,-1.135323091099962,9
1767381110.624622,1,left_wrist,0.1449,-0.6339,-0.9921,6.02,81.76,-54.04,-0.3114921950486552,0.6549283492481464,0.6790996660107985,-0.11342448324277433,-144.23120023118537,-15.932140529115937,86.90503921812939,9
1767381110.624622,2,right_wrist,0.2904,0.3836,-0.9296,51.52,125.51,53.55,0.895951251913156,0.26389758087275017,-0.32828701018439715,0.14091508062996122,30.521261341816007,-41.500961247003765,6.073217698080368,9
1767381110.6746528,1,left_wrist,0.1449,-0.6339,-0.9921,6.02,81.76,-54.04,-0.3114921950486552,0.6549283492481464,0.6790996660107985,-0.11342448324277433,-144.23120023118537,-15.932140529115937,86.90503921812939,9
1767381110.6746528,2,right_wrist,0.3631,0.2118,-0.9282,58.8,133.14,46.34,0.9015542869599334,0.2742197361170945,-0.28083301138725325,0.18203357850463744,29.547850435442104,-37.31573313019009,12.65282672609794,9
1767381110.72975,1,left_wrist,0.5197,-0.2357,-0.5988,-63.63,142.87,-46.97,-0.3651854348561751,0.6407639205011593,0.6750979213879092,0.01743539189737069,-148.75809939069057,-31.02525142728778,84.11407859694422,9
1767381110.72975,2,right_wrist,0.5129,0.2259,-0.7388,63.35,127.54,41.93,0.9026843704648881,0.28599555522886805,-0.23363618008231804,0.22086558143876292,29.59955116964004,-33.23899598978115,18.479420994028214,9
1767381110.820183,1,left_wrist,0.6246,-0.2386,-0.5085,-23.38,184.8,-49.49,-0.41286789309620037,0.6245230959248537,0.6571705847328573,0.08739466842213643,-148.09412349520295,-40.67815065760783,80.82090694546108,9
1767381110.820183,2,right_wrist,0.5617,-0.1586,-0.4563,67.34,141.19,1.4,0.8983691292566611,0.318053289565262,-0.11812884030693695,0.2789634199730895,33.29497480157904,-22.935651751722457,27.558758568367537,9
1767381112.3697338,1,left_wrist,-0.0029,-0.7701,-1.0526,45.01,-63.77,25.34,-0.14087108651688757,0.7022795915184324,0.6629075376515767,-0.21797318377492805,-150.6356824233928,6.856739024733097,88.49463988188978,10
1767381112.3697338,2,right_wrist,0.1732,0.448,-0.955,-19.25,-79.87,-16.1,0.7913565816434823,0.36491354605820914,-0.49019002947517853,-0.017509985605049728,66.94613993217733,-49.733906221663766,-36.61151250333517,10
1767381112.425688,1,left_wrist,0.0215,-0.6891,-1.0097,28.91,-38.22,15.19,-0.1434050234037309,0.6997323312564577,0.6529336938483931,-0.2519667741875333,-147.51226986502368,9.517605231574061,88.81589091601371,10
1767381112.425688,2,right_wrist,0.1732,0.448,-0.955,-19.25,-79.87,-16.1,0.773773263743374,0.36373145254704775,-0.5170467403105048,-0.040460290140123964,71.63780343898097,-50.41863573465355,-43.5180173449212,10
1767381112.4795678,1,left_wrist,-0.0107,-0.4182,-0.9267,12.39,-32.76,6.65,-0.13735322279845572,0.6975575113605528,0.6529028894524161,-0.26127653449178334,-147.16821528045432,10.670121923391036,89.36419598687402,10
1767381112.4795678,2,right_wrist,-0.0068,0.4246,-0.9301,-33.81,-42.14,-7.77,0.7662698283660638,0.356325038438415,-0.5314798084574621,-0.05824285638363142,73.41098712432239,-50.624697783433646,-47.5390255407493,10
1767381112.530327,1,left_wrist,-0.0405,-0.6437,-0.9091,10.08,-34.72,0.0,-0.13470597706992318,0.6919329341756402,0.654845851999859,-0.27250692553273814,-146.31693849590755,11.577295600426751,90.36063845461877,10
1767381112.530327,2,right_wrist,-0.0386,0.4338,-1.0394,20.23,-40.04,-5.67,0.7504168478039351,0.3662966058066788,-0.5466276121711471,-0.0624468151196075,77.76198148412934,-50.7732229318241,-51.39290418028763,10
1767381112.580549,1,left_wrist,-0.0063,-0.57,-1.0814,12.53,-3.36,-14.98,-0.14082733588487395,0.686521095104888,0.6595308588559095,-0.2718004666301009,-145.81680215815248,10.80304746039203,91.03324096658297,10
1767381112.580549,2,right_wrist,-0.0386,0.4338,-1.0394,20.23,-40.04,-5.67,0.7341131325999894,0.3760265670845254,-0.5614622291386917,-0.06664904081431697,82.1238428715222,-50.735271224550935,-55.26292354209826,10
1767381112.632064,1,left_wrist,-0.1693,-0.6466,-1.0604,-6.72,21.07,-14.91,-0.1469651501762661,0.6854030843823317,0.6647696829072766,-0.2582733537169737,-146.5070703442726,9.128357711287537,91.00094803442224,10
1767381112.632064,2,right_wrist,-0.0712,0.3992,-1.0682,11.27,0.07,0.35,0.7289937631214533,0.3824203028416518,-0.5640569372462235,-0.06451803506719303,83.55654421905,-50.627846139135144,-55.93159284087543,10
1767381112.7191198,1,left_wrist,-0.1693,-0.6466,-1.0604,-6.72,21.07,-14.91,-0.15196145109534992,0.6843993650259628,0.66973874172708,-0.2448576001738197,-147.26943470779,7.562743744743185,90.98322777975746,10
1767381112.7191198,2,right_wrist,-0.083,0.4202,-1.1039,19.88,83.09,30.31,0.7379928768945884,0.3924532446115171,-0.5478585215139167,-0.034612206680985476,81.55224569237656,-51.394816485981664,-50.449419046635946,10
1767381112.7784069,1,left_wrist,0.0874,-0.6007,-1.0219,24.15,43.82,-26.6,-0.20156983130817738,0.6760608215474035,0.6781503172333626,-0.20596969658503755,-146.50178827097375,0.29259904244848006,90.26486773714448,10
1767381112.7784069,2,right_wrist,0.1474,0.4104,-1.0448,8.33,87.43,52.15,0.7543758963801755,0.3863120793474217,-0.5307333928836987,-0.0014317782773308348,76.69710759996585,-53.09561758888948,-43.35200394588799,10
1767381112.8296618,1,left_wrist,0.101,-0.6461,-1.0116,8.68,57.05,-38.29,-0.22704587969111617,0.6678739390568296,0.6844175051196656,-0.1843020583980922,-146.17085292900802,-3.7043037214961565,90.2749730503201,10
1767381112.8296618,2,right_wrist,0.2142,0.3026,-0.9984,48.65,99.33,56.91,0.7650133547436115,0.39112530417638997,-0.5096717946943442,0.04483553490143453,72.4777113018003,-54.57590193211755,-34.71484497408482,10
1767381112.8828402,1,left_wrist,0.2708,-0.5266,-0.9087,-22.47,136.64,-54.46,-0.2671302001402509,0.662428893136799,0.6881188317003946,-0.12775715702014107,-147.28402102300817,-11.441924865866334,88.81082001083479,10
1767381112.8828402,2,right_wrist,0.2377,0.3406,-1.12,43.19,111.72,43.26,0.7774864388841667,0.3957768814147602,-0.4809071884401972,0.08719961923866701,67.13281590159164,-54.767800479918705,-25.138812574262406,10
1767381112.935192,1,left_wrist,0.4304,-0.2528,-0.7208,-48.72,156.17,-46.41,-0.3024321174848436,0.6601014580565603,0.6851782584658872,-0.05772030414759416,-149.44736567148934,-19.769517762836816,86.68615688833678,10
1767381112.935192,2,right_wrist,0.4616,0.3187,-0.9448,71.33,126.49,32.06,0.7860619123490895,0.4099411269505035,-0.44277916661196914,0.13416986249919763,62.65914344533384,-53.71731617436994,-14.893165007474293,10
1767381113.0204742,1,left_wrist,0.4304,-0.2528,-0.7208,-48.72,156.17,-46.41,-0.33492965696892635,0.6537873719528112,0.6783978491493499,0.01267104680955815,-151.51213407213763,-28.09919313049676,84.84685407594262,10
1767381113.0204742,2,right_wrist,0.5739,-0.0322,-0.71,69.23,135.31,15.33,0.793600851886621,0.44176061131371946,-0.3491426596799994,0.23053124163144237,55.88835793097235,-49.27406353445019,5.049420769248079,10
1767381114.620724,1,left_wrist,0.1093,-0.4817,-0.8164,52.22,-39.69,25.9,-0.004281831599324185,0.6790786101117788,0.647548718242192,-0.34570878598858923,-149.20365898163988,27.644326029684212,95.02995410810415,11
1767381114.620724,2,right_wrist,0.2606,0.059,-0.5095,-61.95,-128.38,-11.62,0.6276333205060052,0.3967816249670256,-0.6660424115127177,-0.07091024711180012,108.83329248580512,-51.241265489244064,-80.55644203059795,11
1767381114.6781812,1,left_wrist,-0.0015,-0.6998,-1.1302,14.91,-83.93,-4.76,0.022184163507111724,0.6572657707211996,0.6398390607978888,-0.3976374552340771,-144.91027529296554,33.44220585811525,99.31183554204802,11
1767381114.6781812,2,right_wrist,0.2362,0.4651,-0.9604,-38.5,-85.75,-34.23,0.6040811093023942,0.3952520052668768,-0.6837237549141915,-0.10669438918021895,111.64544907195915,-47.87701805808291,-86.38620673459207,11
1767381114.7366452,1,left_wrist,-0.1186,-0.8355,-1.0609,-8.75,-16.8,-9.59,0.023688599707280013,0.651126902118654,0.645862483554135,-0.3979123771869348,-144.69363671203752,33.28349743857726,100.40260930994977,11
1767381114.7366452,2,right_wrist,0.0342,0.4046,-0.9282,-20.23,-63.77,-16.8,0.5836312963576583,0.39402232133934106,-0.6982570464597854,-0.12867795952490507,114.06367741725802,-45.532290714005185,-90.67413094283428,11
1767381114.825432,1,left_wrist,-0.0537,-0.6969,-0.9672,-10.78,46.06,-22.54,0.006028242429482456,0.6521361267684388,0.6563369286092923,-0.37934676563850017,-145.46340224470444,30.177769700254856,99.94957134498264,11
1767381114.825432,2,right_wrist,0.0322,0.5305,-1.1331,-7.98,-0.35,-0.98,0.5782610934531472,0.39501764582482113,-0.700908683484153,-0.13528556723426877,114.5000233176989,-44.72752337475116,-91.54458230149666,11
1767381114.878589,1,left_wrist,0.0312,-0.6925,-1.0209,-23.73,80.71,-28.49,-0.043727519737032795,0.6593938040431822,0.6819510459804187,-0.31341743106170994,-148.75737726563085,20.71323818441452,97.77726030004587,11
1767381114.878589,2,right_wrist,0.0322,0.5305,-1.1331,-7.98,-0.35,-0.98,0.5755625059872906,0.395514653625951,-0.7022099344745647,-0.1385538465507238,114.71108578100971,-44.32530171562577,-91.9699775916346,11
1767381114.9351099,1,left_wrist,0.103,-0.5876,-0.9897,-48.51,54.88,-37.1,-0.05478125813653591,0.6558651169652501,0.6991859109388073,-0.2792472453755048,-151.1143183660109,16.839546552140128,98.02869088980006,11
1767381114.9351099,2,right_wrist,0.162,0.4397,-1.0726,9.52,90.93,47.11,0.600209964649471,0.390561893334114,-0.6895910331932834,-0.10804449430754307,112.51791636278918,-48.02208535473091,-87.80808158313239,11
1767381115.020755,1,left_wrist,0.1547,-0.5534,-0.9008,-4.48,70.49,-40.11,-0.08380357424845668,0.6511953690148262,0.7102182065917265,-0.2539914395062548,-151.26051344593603,12.225421836188643,98.10812606190724,11
1767381115.020755,2,right_wrist,0.347,0.2303,-0.8935,42.21,122.71,51.87,0.6426078557420761,0.3966110257149105,-0.6555073006537964,-0.008063300162534669,108.48907577237048,-56.727658447732736,-75.16242140638565,11
1767381115.08039,1,left_wrist,0.4709,-0.4046,-0.7749,-16.94,128.24,-61.81,-0.16340785138293268,0.635576990388838,0.7383138562357119,-0.15566763660129482,-154.02412506994636,-2.488279844516024,97.9790155330456,11
1767381115.08039,2,right_wrist,0.4626,0.2591,-0.8408,88.13,125.86,46.48,0.6584725201357108,0.40891258446279355,-0.6296936910237835,0.05186804390883399,105.07402672021288,-60.655740265567786,-65.7094849693298,11
1767381115.132185,1,left_wrist,0.527,-0.1659,-0.6427,-66.43,157.36,-62.37,-0.20166058366506212,0.6280681591017829,0.7470659320912721,-0.08219421893882109,-157.43546369141785,-11.423557048298832,97.60533255586084,11
1767381115.132185,2,right_wrist,0.5807,0.0381,-0.6939,76.3,136.78,43.33,0.6764956928244288,0.4154316909802192,-0.5979982218830086,0.11030962942586622,97.98925070966521,-64.2553332261396,-53.155989098256995,11
1767381115.222262,1,left_wrist,0.6159,-0.0649,-0.284,-31.29,185.22,-55.86,-0.2568610862420336,0.6160909892365649,0.7444925203212099,-0.013607444353965551,-158.78782410597555,-21.450389208269286,96.71977691642088,11
1767381115.222262,2,right_wrist,0.6934,0.0571,-0.4856,74.97,136.5,29.05,0.7101171350716958,0.4232535456866419,-0.5239117867911754,0.2051987577996771,76.49303549296472,-66.6036144781137,-22.5163953884036,11
1767381116.816894,1,left_wrist,0.1503,-0.4085,-0.7974,48.79,-19.95,-1.05,-0.04831481122752762,0.7258878323236907,0.6556913421644925,-0.20204305905174866,-159.85933555393677,13.294833921436322,86.55411490929951,12
1767381116.816894,2,right_wrist,-0.0034,0.3123,-0.7681,-55.37,-58.52,-12.11,0.37304282637468755,0.500809188975539,-0.7680312571275612,-0.1419760331996418,139.02730388851631,-25.519058155154305,-104.11374643829333,12
1767381116.875714,1,left_wrist,-0.0293,-0.6159,-0.9672,21.84,-44.38,12.95,-0.045933224529102014,0.7242402730614961,0.650970115662382,-0.2227197213420346,-158.31590335557502,15.236439793333155,86.83519039650945,12
1767381116.875714,2,right_wrist,-0.0034,0.3123,-0.7681,-55.37,-58.52,-12.11,0.36005511940341256,0.4935743339373355,-0.7719732934311451,-0.17550476374953772,137.31244294068188,-22.49833465471634,-105.92457032664103,12
1767381116.932381,1,left_wrist,0.0244,-0.69,-1.059,9.45,-23.87,-1.4,-0.04445339257378369,0.7149730963849764,0.651471291884989,-0.24984499831708407,-155.93333710621218,17.418247704200418,88.41898457435532,12
1767381116.932381,2,right_wrist,-0.0034,0.3123,-0.7681,-55.37,-58.52,-12.11,0.3466551800980493,0.48578015055120677,-0.774897910988879,-0.20828120171227035,135.57223473811248,-19.56566678765774,-107.77775917836597,12
1767381117.02773,1,left_wrist,0.0639,-0.7418,-1.1034,-2.59,11.69,-11.76,-0.05267151555027989,0.7122053819164256,0.6561501072843333,-0.24383650696660028,-155.7167672235468,16.152953782055064,88.805612870166,12
1767381117.02773,2,right_wrist,-0.0034,0.3123,-0.7681,-55.37,-58.52,-12.11,0.3190200637532841,0.46859200500738546,-0.7778110570992667,-0.2713995048266121,131.9906798591502,-14.000088232158696,-111.60672713448871,12
1767381117.087601,1,left_wrist,0.1186,-0.6661,-0.9653,-29.54,63.63,-31.29,-0.0872908819558604,0.7067971739518212,0.6758646314701712,-0.18980267845522325,-157.39834010727841,8.644912446516326,89.16752309145174,12
1767381117.087601,2,right_wrist,-0.0034,0.3123,-0.7681,-55.37,-58.52,-12.11,0.3049710166647014,0.45923470494261615,-0.777853553470505,-0.30172837805561936,130.134038158916,-11.380125279082677,-113.58177877038851,12
1767381117.168617,1,left_wrist,0.204,-0.6173,-0.9287,11.69,40.67,-32.13,-0.10988378695895466,0.699191291929204,0.6835730165861894,-0.1782835428445007,-156.4615528977072,5.6862768986332215,89.8914161781614,12
1767381117.168617,2,right_wrist,0.2991,0.4763,-1.036,43.89,94.01,52.36,0.3197879548135794,0.4504538350275685,-0.7826063624235458,-0.28697436812246846,130.54805095405334,-14.004539273308318,-113.67765669071706,12
1767381117.220204,1,left_wrist,0.1532,-0.5793,-0.9589,12.95,70.49,-41.02,-0.14240982515062872,0.6903811548922587,0.6916233403885033,-0.15732278188503712,-155.52254278888242,1.1595996210188897,90.35454124702339,12
1767381117.220204,2,right_wrist,0.3538,0.307,-0.9789,54.88,104.86,60.76,0.35004633971671467,0.44983075000967737,-0.7874136014256429,-0.23473320320431965,133.2828483713218,-19.88187443801149,-111.86609303929951,12
1767381117.278717,1,left_wrist,0.3914,-0.365,-0.8701,-48.79,132.23,-57.54,-0.20652364455678146,0.6691289718668758,0.712413827422512,-0.045617340393419525,-159.44790078627622,-13.486298720361988,91.13304414843019,12
1767381117.278717,2,right_wrist,0.3728,0.263,-0.9243,53.06,112.21,21.28,0.37751177134130265,0.46150056331797934,-0.7806766845205088,-0.18720578730906304,135.18448514305553,-24.622519355411182,-108.53664204405135,12
1767381117.372031,1,left_wrist,0.568,-0.2484,-0.6398,-34.86,146.3,-57.54,-0.24529546267417263,0.6545807517394382,0.7149092401500111,0.01609204125738472,-161.26788063660197,-21.826366357641742,91.40170383345477,12
1767381117.372031,2,right_wrist,0.5002,-0.0532,-0.6554,89.95,135.17,25.97,0.426231176645316,0.48417192906394696,-0.7619613811010308,-0.05761406835709027,141.53337964873387,-36.42379885364978,-102.03738277176902,12
1767381117.427308,1,left_wrist,0.6202,-0.1913,-0.5305,-19.04,160.93,-48.16,-0.3281751590591448,0.615490531152134,0.7035144936294326,0.13616103808319077,-164.13846779718455,-39.003187238338676,91.98702767395011,12
1767381117.427308,2,right_wrist,0.63,0.0825,-0.4919,32.9,129.5,22.12,0.46206910302232007,0.4836712272337181,-0.7432620394963911,-0.010762370651612226,141.05008213803,-42.56809334072149,-98.20519458723464,12
1767381119.082657,1,left_wrist,0.0839,-0.6749,-0.9882,20.23,-54.25,9.59,-0.10061941049689592,0.668581211085937,0.698843467484415,-0.2334367288334861,-152.11186941855274,9.875531408047411,94.99331383133877,13
1767381119.082657,2,right_wrist,0.3826,0.2372,-0.8545,-41.65,-88.9,-8.89,0.1765402694926873,0.488704038920376,-0.8124585258023178,-0.2644107400267347,142.95508832799837,-1.628915039199967,-117.3993527461474,13
1767381119.166677,1,left_wrist,0.0839,-0.6749,-0.9882,20.23,-54.25,9.59,-0.09339986272025147,0.6639372980967085,0.6969053582642695,-0.25453222087278227,-150.69370687333114,11.993758797773843,95.92231008509832,13
1767381119.166677,2,right_wrist,0.042,0.5885,-1.2312,3.64,-0.28,-2.1,0.1682152936245585,0.4895220757723972,-0.8061699422704016,-0.2866387561060511,141.17990805080348,0.5392626988413145,-117.65613506653831,13
1767381119.220661,1,left_wrist,0.0215,-0.8633,-1.0028,-11.2,1.33,-11.41,-0.09617808790471584,0.6599046603756796,0.7018448928565462,-0.2503784355583263,-150.8040477012706,11.2708719307761,96.47243720401323,13
1767381119.220661,2,right_wrist,0.061,0.4368,-1.0648,22.05,9.03,20.37,0.16777172045133285,0.4855616677156141,-0.8139523795202543,-0.27122691705534524,142.8080507115547,-0.5570150692963639,-118.17637588531477,13
1767381119.277785,1,left_wrist,0.0869,-0.6827,-1.0848,-52.22,67.76,-36.82,-0.11292564996923533,0.6525404550121618,0.7201874257482607,-0.20680624735640782,-153.39491682255806,6.1564465252060705,97.09935337494953,13
1767381119.277785,2,right_wrist,0.061,0.4368,-1.0648,22.05,9.03,20.37,0.16706630695524016,0.481466581015943,-0.8214830123970559,-0.2558211109119313,144.45026537002937,-1.6128390856067998,-118.73426760488572,13
1767381119.366722,1,left_wrist,0.243,-0.5344,-0.9692,-8.19,63.0,-31.71,-0.13709553037272668,0.6474739291762537,0.7272328283277725,-0.18197455863739043,-153.73662200409368,2.0772450854269624,97.12567652725365,13
1767381119.366722,2,right_wrist,0.2342,0.5519,-1.0687,24.22,82.18,51.03,0.21866195879043646,0.4723406190624517,-0.82850708323807,-0.20653643839762295,146.17646993688857,-9.625924725103456,-117.69115801524725,13
1767381119.419158,1,left_wrist,0.1732,-0.8686,-0.9638,-20.02,37.8,-40.39,-0.1504965118621579,0.6376748689451576,0.7375334840644209,-0.16360293798369271,-154.32285970836716,-0.7644325672491868,98.1320908197048,13
1767381119.419158,2,right_wrist,0.3543,0.3704,-0.9916,51.31,107.66,47.32,0.2510727943012531,0.4684704070816786,-0.832506389708113,-0.15630432094363358,149.01320242413772,-15.758993137125099,-116.87109707359586,13
1767381119.4777322,1,left_wrist,0.1732,-0.8686,-0.9638,-20.02,37.8,-40.39,-0.1635542191880081,0.627638767341556,0.7470691735253717,-0.14562707538054595,-154.93179755644428,-3.5299472590391723,99.14541834203354,13
1767381119.4777322,2,right_wrist,0.427,0.2352,-0.8945,77.7,114.1,43.54,0.2789277437780088,0.46718692853912247,-0.8336128752347708,-0.09500137786321218,153.11206581068726,-22.102748775399803,-116.11811770778831,13
1767381119.528775,1,left_wrist,0.4992,-0.2323,-0.6608,-54.81,139.51,-55.09,-0.23861675296175489,0.6037422775029034,0.7602471215004691,-0.02411683668823464,-159.84601163257085,-19.49318233784038,99.59413486596884,13
1767381119.528775,2,right_wrist,0.4714,0.2103,-0.7832,76.72,121.66,30.45,0.3085111291604736,0.4683229242733296,-0.8272581235936265,-0.03374194322440388,156.8746654761374,-28.609173557590704,-114.99782529082131,13
1767381119.5907981,1,left_wrist,0.6198,-0.1654,-0.6608,-53.76,161.98,-58.38,-0.280399100845793,0.5886072464341096,0.7568493573657197,0.04579196376246885,-162.72537549021413,-28.577479384652253,99.82401219321234,13
1767381119.5907981,2,right_wrist,0.5929,0.1118,-0.6173,68.04,133.77,27.16,0.3441949180017423,0.4671003248800581,-0.814050988228651,0.02584827813752159,159.8527647407308,-35.76992809287267,-113.74362884523747,13
1767381119.669724,1,left_wrist,0.6827,-0.082,-0.2879,-2.87,177.17,-61.25,-0.33830201018286377,0.5621336574185039,0.7477928932891781,0.10180024484120652,-163.09238407722077,-38.346107762947184,100.2171806480597,13
1767381119.669724,2,right_wrist,0.6847,0.0059,-0.408,47.74,151.06,24.85,0.41953944028147055,0.455571353405056,-0.7735131075456138,0.1346063611428663,164.1205103098665,-50.505362857642794,-111.47926398745552,13
1767381121.1809332,1,left_wrist,0.0961,-0.6412,-0.8691,59.43,-87.99,20.58,-0.22496938354533502,0.46662140376381167,0.82893644779052,-0.21099196084485367,-145.34513796926862,-10.140577232059641,118.0770671100483,14
1767381121.1809332,2,right_wrist,0.3924,0.2611,-0.7086,11.83,-96.53,-5.88,0.15999518983177954,0.5656023549179294,-0.7979089622562731,-0.13355449559300883,156.65448082419155,-5.9837108595729065,-108.10044238739967,14
1767381121.2710452,1,left_wrist,-0.0024,-0.6046,-1.0316,49.14,-47.53,11.76,-0.19900026063556,0.458867364140157,0.8234908336359357,-0.26777319752289525,-141.26240610633906,-4.703823595680005,120.09054258634161,14
1767381121.2710452,2,right_wrist,0.0268,0.181,-0.9536,57.05,-60.69,-20.23,0.11025845900216995,0.5699919876100206,-0.7942939872185882,-0.17902309389361593,155.77892516622595,1.6576948093788932,-109.0286472949764,14
1767381121.323679,1,left_wrist,0.0068,-0.7247,-0.9096,31.78,-55.37,6.79,-0.16195956247573634,0.44753162386824824,0.8214261621394578,-0.3142349533603122,-138.60228761164558,0.8700420171145252,123.16364399807149,14
1767381121.323679,2,right_wrist,0.0429,0.4377,-0.9306,15.89,-16.73,7.7,0.1055965842188433,0.5658212967971271,-0.7986843997159779,-0.17549601460562622,156.42128635281483,1.7146646093850513,-109.72721330125702,14
1767381121.3771808,1,left_wrist,-0.0947,-0.7701,-0.9984,6.65,-8.89,-9.03,-0.1572194756796329,0.44416323768195126,0.8233903837512072,-0.3162741385332467,-138.65000153065455,1.2633987968443017,123.7890854709201,14
1767381121.3771808,2,right_wrist,-0.0102,0.4831,-1.1976,-0.98,3.15,-7.35,0.10662577650543485,0.5685853504020855,-0.797619425961438,-0.1707187582595927,156.81490990930743,1.3776830699970406,-109.31605862191266,14
1767381121.435203,1,left_wrist,-0.1693,-0.6837,-1.1024,-15.54,51.73,-19.88,-0.1716185835859857,0.44656635398988864,0.8263413602624502,-0.2971287760748209,-139.87591180234574,-1.0460291864607034,122.84317668581458,14
1767381121.435203,2,right_wrist,0.083,0.7096,-1.3166,-2.17,-2.31,3.01,0.11102516821836612,0.5663296616139247,-0.7981428750492792,-0.17295108385440017,156.30279741387778,1.0695888970945495,-109.50848420316552,14
1767381121.4873128,1,left_wrist,-0.1693,-0.6837,-1.1024,-15.54,51.73,-19.88,-0.18538841099857548,0.44872540830144003,0.8286153229653874,-0.27869928517865905,-141.0034859548497,-3.2740841980437367,121.96610141868682,14
1767381121.4873128,2,right_wrist,-0.0298,0.4651,-1.1092,0.0,44.38,6.02,0.12309763605523932,0.5683033567107282,-0.7978567410221928,-0.15906881389630104,156.80947209431596,-0.8955623771825769,-108.89265220308063,14
1767381121.5692532,1,left_wrist,0.1078,-0.6339,-1.0028,-23.45,65.17,-55.72,-0.20992391824649959,0.43826489574633487,0.8378625670753737,-0.24868081630547312,-142.68651042703263,-7.689156921222475,122.17449943683177,14
1767381121.5692532,2,right_wrist,0.0547,0.4085,-1.0941,-0.28,93.31,28.77,0.18658749824217818,0.5599428536799924,-0.8003987677301474,-0.10493292490202111,157.46324686332414,-10.438261569630466,-107.96295693351993,14
1767381121.625311,1,left_wrist,0.1376,-0.673,-1.0409,50.19,34.44,-52.57,-0.23459318206021665,0.41883179455205355,0.8400658175839864,-0.252656662152647,-140.83064202374368,-10.515769535437878,123.2505188517331,14
1767381121.625311,2,right_wrist,0.2991,0.3372,-0.9536,41.58,108.78,56.98,0.21883740885812286,0.5465215880377868,-0.8064913432994865,-0.05473623549266364,159.96852105430403,-17.046749221046497,-108.72034477517877,14
1767381121.684729,1,left_wrist,0.2889,-0.5719,-0.8501,-17.08,106.96,-58.31,-0.3161058333038627,0.40017528769281124,0.8409804763157507,-0.18080010986440165,-142.8312687512343,-22.76635560287661,121.36037912393442,14
1767381121.684729,2,right_wrist,0.2752,0.3553,-0.9428,57.75,121.24,42.35,0.24561397000881263,0.5402567857142092,-0.8048393442599399,-0.005478426552498429,162.6797966000983,-22.91966271948487,-108.71915094072314,14
1767381121.765898,1,left_wrist,0.4377,-0.2562,-0.7017,-34.79,137.9,-49.35,-0.36339738855606896,0.3958668262918082,0.8329129315716582,-0.13224160560499434,-144.0661185494692,-30.04345240538252,119.21136242010253,14
1767381121.765898,2,right_wrist,0.5339,0.1586,-0.8179,63.49,101.64,18.97,0.2995244318405246,0.5294545274334835,-0.7852534192434254,0.11549928864415834,170.29476914284544,-36.34944175549938,-108.82763596464197,14
1767381121.817122,1,left_wrist,0.4929,-0.2328,-0.7149,-80.57,168.56,-53.97,-0.4107905591890184,0.3964312170860286,0.8187726860983984,-0.0608662065523824,-147.00311838542814,-38.6403375478369,116.47296703730036,14
1767381121.817122,2,right_wrist,0.6295,0.101,-0.4763,78.19,133.91,11.9,0.32906303330761255,0.5266408434441576,-0.7636959344358851,0.1764524351005662,173.8989127471064,-43.50851108718593,-108.38355294803223,14
1767381123.322643,1,left_wrist,0.2391,-0.2674,-0.9028,42.42,-95.06,38.36,-0.15637856999910732,0.535150001125476,0.8283355108347763,-0.05495908141997764,-164.70651255159314,-11.551294535636623,112.7146189105788,15
1767381123.322643,2,right_wrist,0.3065,0.2479,-0.8677,-27.16,-135.1,-1.96,0.18161629792490633,0.5915355402900982,-0.7817972603081879,-0.07677414067486847,160.04171521984367,-11.136378978181076,-103.80965261627937,15
1767381123.374421,1,left_wrist,0.0229,-0.6339,-1.1961,30.8,-59.15,28.49,-0.14099837968773,0.5421153715972976,0.8238655208317187,-0.08646377500456123,-162.6491972740448,-7.965727184376289,112.09167260162022,15
1767381123.374421,2,right_wrist,0.3065,0.2479,-0.8677,-27.16,-135.1,-1.96,0.14422746349130472,0.583819050405358,-0.790430728511544,-0.11650329859433338,159.26282370065036,-5.276946906192202,-106.13403018031408,15
1767381123.432776,1,left_wrist,0.0473,-0.5456,-0.9589,15.61,-55.37,0.0,-0.12442807934753408,0.5373226187445636,0.8229987608109846,-0.13592312591664474,-159.01868866835125,-3.367444890059238,113.0965319462331,15
1767381123.432776,2,right_wrist,0.3065,0.2479,-0.8677,-27.16,-135.1,-1.96,0.10692767454521158,0.5743400508307871,-0.7964275619159807,-0.15621497062896694,158.18141626538375,0.5225868135937656,-108.50655566586809,15
1767381123.483897,1,left_wrist,-0.0581,-0.669,-1.0126,34.09,-71.82,12.25,-0.10637031674393901,0.5352294722674218,0.8205745522536431,-0.16991813301076678,-156.87511549712534,0.41945670913865585,113.8560628220613,15
1767381123.483897,2,right_wrist,0.3065,0.2479,-0.8677,-27.16,-135.1,-1.96,0.06944555263083364,0.5631126306930323,-0.7998963552529861,-0.1955691724857454,156.83175761498137,6.266691107061315,-110.9960739202376,15
1767381123.5709271,1,left_wrist,-0.0581,-0.669,-1.0126,34.09,-71.82,12.25,-0.0890798823215777,0.531999854987255,0.8171087078663826,-0.203406706841353,-154.6423093324935,4.062739893173369,114.77999578057839,15
1767381123.5709271,2,right_wrist,0.0468,0.49,-1.0224,-43.12,-11.13,-27.79,0.07127300915620338,0.5746599989210862,-0.7842330461252958,-0.22285549840844554,154.149596795306,8.299234636789603,-109.44232861789467,15
1767381123.62866,1,left_wrist,-0.1098,-0.7066,-1.0219,-13.37,-3.64,-11.9,-0.08601549374736134,0.5227486233797888,0.8236817836899127,-0.20219676260350267,-154.90934240512132,3.9966052264613654,116.08727992920095,15
1767381123.62866,2,right_wrist,0.0107,0.5241,-1.1234,20.09,4.69,16.31,0.07315187104102053,0.5694851161990184,-0.7910401457125461,-0.21116579756689377,155.12203640789104,7.1680179828998964,-110.08138047887347,15
1767381123.678994,1,left_wrist,-0.1098,-0.7066,-1.0219,-13.37,-3.64,-11.9,-0.08601549374736134,0.5227486233797888,0.8236817836899127,-0.20219676260350267,-154.90934240512132,3.9966052264613654,116.08727992920095,15
1767381123.678994,2,right_wrist,0.0107,0.5241,-1.1234,20.09,4.69,16.31,0.07535221278917066,0.5641501441626183,-0.797567218725669,-0.19985792574544867,156.04130873634531,6.04461507042685,-110.73718926011614,15
1767381123.737704,1,left_wrist,0.1118,-0.6017,-0.855,-32.76,69.23,-38.08,-0.13881300982988673,0.5105304667526457,0.8357395342394056,-0.14706808535027222,-157.11624348956403,-4.69534657334106,116.20993186470224,15
1767381123.737704,2,right_wrist,0.0107,0.5241,-1.1234,20.09,4.69,16.31,0.0778738080268385,0.5586662468944911,-0.8037820599578136,-0.1891086848724734,156.8915314716641,4.939865215173715,-111.40827062324809,15
1767381123.819844,1,left_wrist,0.1118,-0.6017,-0.855,-32.76,69.23,-38.08,-0.1618259154185658,0.5023152489706753,0.8408184992502516,-0.12048242639084891,-158.31989802819737,-8.690222191335868,116.62365318786136,15
1767381123.819844,2,right_wrist,0.2699,0.2987,-0.9365,33.39,101.43,44.24,0.11502688387916046,0.5451684933200548,-0.8189289655511084,-0.13753355684189564,159.45531018562903,-2.2029793470101158,-112.2965635751065,15
1767381123.879105,1,left_wrist,0.2464,-0.3997,-0.8911,-25.83,91.42,-45.85,-0.19646002238516497,0.49057774842194823,0.8445068344283937,-0.08686275934717755,-159.49507841912188,-14.276277793372769,117.09980970813415,15
1767381123.879105,2,right_wrist,0.3406,0.3723,-0.996,41.09,98.14,46.9,0.14685278932837767,0.5347720965222974,-0.8267777081989502,-0.09429572775536116,161.56722695993446,-8.162192123900699,-112.88265568395134,15
1767381123.972075,1,left_wrist,0.2894,-0.6754,-0.9077,-9.8,113.82,-58.24,-0.2827415532399687,0.4557934498660637,0.8435199359815194,-0.027993976715992158,-160.0142242476264,-26.838507568291828,118.41663678034219,15
1767381123.972075,2,right_wrist,0.4807,0.0683,-0.792,72.66,124.6,33.67,0.20932053866806113,0.5204654139712542,-0.8274081614161937,0.026389379934320157,169.17327219232396,-21.95365908245059,-113.5516728956138,15
1767381124.024686,1,left_wrist,0.5031,-0.3274,-0.7232,-66.36,151.2,-57.82,-0.32902156852693853,0.44247064949728554,0.8335648116793074,0.03367842792596077,-163.2568871069837,-35.33282058165892,118.71278296712244,15
1767381124.024686,2,right_wrist,0.5632,0.1171,-0.671,58.94,126.21,27.79,0.24402502826240755,0.5124510768783275,-0.8192918384912513,0.08128076506406166,172.3259345076913,-28.892007762786513,-113.96994864843363,15
1767381125.720254,1,left_wrist,0.1698,-0.3782,-1.0136,91.28,-113.26,16.24,-0.1858018910063563,0.5390308517541965,0.8007895583283878,-0.18346520495132887,-150.22344823002544,-5.727055826796369,110.58531944743139,16
1767381125.720254,2,right_wrist,0.1088,0.5378,-1.0585,-71.12,-119.63,-16.24,0.12085985630692665,0.5446302687571536,-0.8130606571005841,-0.16644258277900562,156.2748047994523,-0.8728462212563101,-112.18419330880721,16
1767381125.777525,1,left_wrist,0.1669,-0.5895,-0.9057,41.65,-63.63,11.76,-0.16709891872467678,0.5266863647863754,0.7973121664067057,-0.24284302297781343,-145.7161746445216,-0.6105429943716079,112.91598615684845,16
1767381125.777525,2,right_wrist,0.4211,0.2484,-0.9326,-5.46,-81.27,-24.85,0.09419948700449446,0.5463564667715375,-0.8113872731790717,-0.18512633737003129,156.1812385058248,2.8330218388385084,-112.68804534538005,16
1767381125.835026,1,left_wrist,0.0878,-0.3172,-0.8247,57.26,-36.12,-1.26,-0.16678861977234377,0.5183724456652434,0.7953070548934569,-0.26637990225647074,-143.36892942548582,0.6229131273854537,114.01445956550837,16
1767381125.835026,2,right_wrist,-0.0273,0.4729,-1.1624,-19.88,-83.79,-4.13,0.06974921693916694,0.5398807063375679,-0.8127704436004063,-0.20752849363502004,155.4674233214516,6.355729911270527,-114.1952088679115,16
1767381125.918656,1,left_wrist,0.0293,-0.7462,-1.0414,22.12,-54.6,18.2,-0.15298057931281966,0.5158787152608123,0.7937370806914045,-0.2836327559176735,-142.49334311885355,2.8537926780625096,114.92647306293522,16
1767381125.918656,2,right_wrist,-0.1332,0.5919,-1.1863,-16.87,-29.12,-24.57,0.04269391133039359,0.537012448874407,-0.8069673710300825,-0.24207131548785754,153.5935116503668,11.01613560476358,-115.30688303271151,16
1767381125.972915,1,left_wrist,-0.1303,-0.6359,-1.1126,6.86,-36.68,11.62,-0.1369018687556912,0.5160752639596644,0.7933771431096428,-0.2923643429889215,-142.59913615158968,4.8492506670535285,115.55596692732333,16
1767381125.972915,2,right_wrist,-0.0981,0.4978,-1.2322,-7.63,-0.63,-6.79,0.045589824409647504,0.5391409855035,-0.8057676954898267,-0.24080487238763718,153.57631642389273,10.730282955371715,-114.95294456932628,16
1767381126.025249,1,left_wrist,-0.0878,-0.7886,-1.0531,-12.53,-7.7,-13.23,-0.13531020554225917,0.5106742591586522,0.7997769598134085,-0.28506098270457003,-143.42785569527175,4.284596706404063,116.29826821760064,16
1767381126.025249,2,right_wrist,-0.0981,0.4978,-1.2322,-7.63,-0.63,-6.79,0.048387025334822704,0.541274974700249,-0.8045622465540525,-0.2394988287286353,153.5670102150124,10.45182319506567,-114.59912984849032,16
1767381126.0809999,1,left_wrist,-0.1074,-0.608,-1.098,-23.38,77.49,-32.34,-0.16809204884515982,0.5083794888331148,0.81013217038859,-0.2387074044731126,-146.08769038876417,-1.6988198807878392,115.26327591706404,16
1767381126.0809999,2,right_wrist,-0.1552,0.4006,-1.0546,45.99,67.2,43.75,0.0650637257538003,0.5339631169972017,-0.8184623968882622,-0.20191435352046647,156.27138519273223,6.264890185616385,-115.07671205517669,16
1767381126.166805,1,left_wrist,0.1074,-0.6993,-0.9106,-36.82,71.68,-23.94,-0.19186686810673576,0.5084435910014082,0.8130895028010147,-0.2087047678595386,-147.50818728091105,-5.726540597854883,114.29265615676172,16
1767381126.166805,2,right_wrist,0.0903,0.3601,-1.0321,29.75,107.03,42.49,0.11629338553900913,0.5181189939606848,-0.8379979906191272,-0.12565000714424232,160.6224334707385,-3.709854152850996,-115.91089200022586,16
1767381126.2246132,1,left_wrist,0.1074,-0.6993,-0.9106,-36.82,71.68,-23.94,-0.2132542068540751,0.5088577859585742,0.8141157541605473,-0.18111304689607693,-148.74437600713787,-9.375591015630992,113.3576211458612,16
1767381126.2246132,2,right_wrist,0.2782,0.2767,-0.9379,19.53,113.33,53.76,0.15940254662297962,0.5040447598099627,-0.8444197173971403,-0.08651617830879704,161.81932740984988,-10.485649719930251,-116.65068939791426,16
1767381126.276574,1,left_wrist,0.2479,-0.4031,-0.8272,-72.94,129.29,-49.49,-0.28438069151363515,0.4973751370967668,0.8148052203537738,-0.08853275199855427,-152.55734991974168,-22.046673864600436,111.75196404105552,16
1767381126.276574,2,right_wrist,0.286,0.1923,-0.876,60.83,118.3,57.47,0.19303622854409,0.4897250764843431,-0.8497305683715616,-0.029399406572600043,165.4921102546597,-17.413301457882184,-117.8543317501487,16
1767381126.3705091,1,left_wrist,0.2479,-0.4031,-0.8272,-72.94,129.29,-49.49,-0.31161505090854674,0.49417095098619307,0.8110291726500429,-0.030377826769739432,-156.0406494368705,-28.387618958449806,111.14709910607391,16
1767381126.3705091,2,right_wrist,0.5944,0.1259,-0.7056,70.49,117.39,29.26,0.2588816005612394,0.47297380685311713,-0.8381818222873286,0.08202028839753268,172.82010791437642,-30.768236598666142,-119.15126667053681,16
1767381126.4320462,1,left_wrist,0.65,-0.1127,-0.3465,11.27,164.29,-60.97,-0.409033484640916,0.4575951289647201,0.7853403838761404,0.08086277167861125,-159.23484220550804,-45.76345992198316,110.70041495971772,16
1767381126.4320462,2,right_wrist,0.5578,0.0283,-0.6212,73.64,120.26,24.71,0.28891490752746524,0.4659064269638415,-0.8246306685631479,0.13944044602366468,177.17124443364213,-37.33171210988059,-120.11237191043016,16
1767381126.483928,1,left_wrist,0.6305,-0.2074,-0.347,26.67,157.15,-46.83,-0.46860129904429926,0.4290684658515825,0.7640382468679618,0.11206530002055021,-156.68491231834605,-54.3139915579795,109.28157358472795,16
1767381126.483928,2,right_wrist,0.6373,0.0044,-0.4299,52.43,140.7,15.19,0.330210098340256,0.456620657476908,-0.8038408895081403,0.19052215218770893,-179.6173348411985,-44.81867572336922,-120.96043969007448,16
1767381128.074566,1,left_wrist,0.0864,-0.5583,-1.0555,38.36,-37.66,7.14,0.04370890567890295,0.6106705571696325,0.7754626183309468,-0.1543655717502955,-168.9038717710037,14.851949651806494,105.01041709634568,17
1767381128.074566,2,right_wrist,0.1918,0.182,-0.8359,-44.59,-88.83,-10.99,0.1322079057520135,0.580413402213504,-0.7821043715151461,-0.18426639477807677,153.78678931128562,0.40683829706623403,-106.93520508628919,17
1767381128.130529,1,left_wrist,0.0005,-0.7115,-0.9789,13.16,-33.74,6.72,0.05142653989672078,0.6082958860109494,0.7688291335523012,-0.1903501758801992,-165.98905689922267,18.09870234883714,105.54045657747653,17
1767381128.130529,2,right_wrist,0.1918,0.182,-0.8359,-44.59,-88.83,-10.99,0.1128394966769101,0.5738833508612825,-0.7813887174985121,-0.21761622127028582,151.90919568555543,4.2109981003607215,-108.46379027790519,17
1767381128.186205,1,left_wrist,-0.0234,-0.6666,-1.119,5.53,3.08,6.3,0.04490111086474952,0.6101084207186623,0.7673848570386754,-0.19202105717608922,-165.4175861307526,17.651118450031753,105.30331422569647,17
1767381128.186205,2,right_wrist,0.3006,0.4319,-0.9326,-8.61,-88.34,-17.92,0.08650646428654758,0.570107777773016,-0.7809162027759223,-0.24013254173765816,151.42520969660012,7.972295764767409,-109.77069676191435,17
1767381128.266167,1,left_wrist,-0.0234,-0.6666,-1.119,5.53,3.08,6.3,0.03836974631013361,0.6118873548802064,0.7659066650095585,-0.1936713917948034,-164.84629171879746,17.2046417695849,105.06242888793608,17
1767381128.266167,2,right_wrist,0.3006,0.4319,-0.9326,-8.61,-88.34,-17.92,0.03357215728044392,0.5604909016739034,-0.7771071638203133,-0.2843014515183851,150.16568414491076,15.457197456488538,-112.53887002262779,17
1767381128.325352,1,left_wrist,0.0205,-0.7115,-1.0375,-7.91,28.77,-29.96,0.023932596833729645,0.6033100366545486,0.7754520251434787,-0.1847116325020137,-164.52805502703433,15.069701671203372,106.29219889732127,17
1767381128.325352,2,right_wrist,0.0293,0.5592,-1.0756,13.58,-43.05,-23.87,0.016373431627456452,0.562837170667741,-0.7747967359709368,-0.28746521177397416,150.9220063817709,17.35072653410224,-112.54043313433351,17
1767381128.377713,1,left_wrist,0.1791,-0.5993,-1.0077,-3.71,52.71,-46.9,-0.001275147562452457,0.5906946783243441,0.7888356807883709,-0.16975405654399334,-164.05034675741084,11.451236933770257,107.95640197897232,17
1767381128.377713,2,right_wrist,0.1547,0.325,-0.9965,13.86,77.28,46.41,0.04760197550016026,0.5563348755611524,-0.7880367259778805,-0.25927529128881943,151.80377796426106,12.325403579616056,-112.66439240844103,17
1767381128.4714198,1,left_wrist,0.1967,-0.589,-0.9731,27.93,11.69,-31.22,-0.03737293434739435,0.5689605739327089,0.8009265854168037,-0.18276688392870086,-160.18207219570323,8.517318492077138,110.71225321653363,17
1767381128.4714198,2,right_wrist,0.3684,0.3172,-0.9721,65.59,106.68,46.34,0.11612259827625228,0.54797867799788,-0.8098249007553164,-0.17440911887258048,155.81092928046147,0.17572720659873214,-111.86812657534895,17
1767381128.527217,1,left_wrist,0.2518,-0.4104,-0.8994,-83.44,119.63,-42.84,-0.06608302068182612,0.5628956186581044,0.8149409114361559,-0.12104903031698591,-164.22846125429538,1.63707282420659,110.9595715157786,17
1767381128.527217,2,right_wrist,0.3767,0.1732,-0.9101,58.31,110.6,38.08,0.14603226690281404,0.544400610245645,-0.8171239359185155,-0.12087607677463852,158.98563734434757,-6.144879664023584,-111.51298539244445,17
1767381128.5796149,1,left_wrist,0.388,-0.2933,-0.8564,-30.38,138.95,-50.54,-0.11453148675901585,0.5512305037545017,0.8232874041155612,-0.07228637835711735,-165.7142057210306,-6.251433611092355,111.60740192196738,17
1767381128.5796149,2,right_wrist,0.486,0.0761,-0.7784,64.05,125.16,41.23,0.17936718940679963,0.5384961241934293,-0.8210207963827396,-0.061434416250271705,162.42006939480504,-13.200772427390724,-111.4292973502302,17
1767381128.632558,1,left_wrist,0.5993,-0.0776,-0.4465,3.71,169.19,-61.32,-0.23193083506003254,0.509933456494742,0.8276916948870321,0.033202649152035614,-168.47157771137668,-24.69556412182982,114.19448461581311,17
1767381128.632558,2,right_wrist,0.5514,-0.0039,-0.6891,85.19,117.46,37.1,0.20386418579164833,0.5329718041045055,-0.821198888329057,0.003582678916385329,167.0147548549678,-19.794342806458925,-111.75643436557169,17
1767381128.686049,1,left_wrist,0.7276,-0.144,-0.2591,-0.63,186.9,-58.59,-0.30033572768015676,0.4835702072830661,0.8180562429400513,0.08211144070013082,-169.03898190508636,-34.80577472986374,115.37849167202056,17
1767381128.686049,2,right_wrist,0.6759,0.103,-0.5319,52.15,133.98,30.94,0.2421981990169392,0.524355842567219,-0.8142296276017635,0.0584901384343241,169.726564229522,-27.113148824629445,-111.9542947212018,17
1767381130.189319,1,left_wrist,0.1703,-0.3977,-0.7998,43.4,-30.24,-4.34,-0.020483680813760525,0.4795977685360967,0.839138016389287,-0.25576119464408426,-152.66325207949134,12.177897175675453,123.4730026795495,18
1767381130.189319,2,right_wrist,0.2533,0.3274,-1.0336,4.97,-108.78,-12.6,0.08807731396625053,0.5562669727035837,-0.7998472108689799,-0.20749429174990475,154.42665052650887,5.1605957420338155,-111.5373058966199,18
1767381130.241576,1,left_wrist,0.0029,-0.7881,-0.8286,51.66,-36.05,27.65,-0.01869965715041824,0.4839104326737244,0.8274433264613974,-0.28428604866662527,-149.74754127217332,14.13409773129818,123.19825342227388,18
1767381130.241576,2,right_wrist,0.2533,0.3274,-1.0336,4.97,-108.78,-12.6,0.050342397066750186,0.5500757103762504,-0.8017047600492092,-0.2283677596029638,154.67089970811477,9.818033183374071,-113.30077610455163,18
1767381130.321088,1,left_wrist,0.1425,-0.6525,-1.0014,22.05,-37.03,7.14,-0.013544633943070828,0.4806677253914004,0.8243869991910516,-0.2985986540880225,-148.3965145513234,15.35040087230489,123.87871722401313,18
1767381130.321088,2,right_wrist,0.124,0.4475,-1.0194,30.17,-46.13,-0.7,0.026221230856511273,0.5488917482427769,-0.7974797816586103,-0.24911100659965363,154.02228300836546,13.394124601228974,-114.0249744062227,18
1767381130.3770702,1,left_wrist,0.1425,-0.6525,-1.0014,22.05,-37.03,7.14,-0.008277277594047068,0.47726534313597063,0.8212556184345805,-0.3125515767142599,-147.05859505648223,16.543579695083647,124.59721132412383,18
1767381130.3770702,2,right_wrist,0.0181,0.4782,-1.037,13.79,-24.92,15.26,0.019802217546595748,0.5404571885975219,-0.8039887278363039,-0.2472165548373768,154.46683018402,13.613929732682694,-115.27894439979633,18
1767381130.427158,1,left_wrist,-0.0098,-0.7296,-1.0072,-2.24,-6.79,-17.85,-0.012374175698999765,0.4687891690107129,0.8263216343307703,-0.3118912493657691,-146.79118530659295,15.781668786167554,125.59907085795118,18
1767381130.427158,2,right_wrist,-0.0137,0.6124,-1.2098,8.89,-2.1,18.06,0.023301551160554938,0.5332141881453742,-0.8101811959232132,-0.24237594155859102,154.6500723279892,12.751303516218734,-116.17788648442368,18
1767381130.530164,1,left_wrist,-0.0488,-0.5519,-1.0902,-7.49,49.21,-39.62,-0.06098097486077264,0.45215561229836027,0.8453256566311841,-0.2779589128147936,-147.9306412125628,8.526324589439227,126.17093124666144,18
1767381130.530164,2,right_wrist,-0.1293,0.3055,-1.0146,-9.1,70.35,37.59,0.05778993352496009,0.5198617503616761,-0.8235475900507908,-0.21948451201761232,154.82544093973047,7.644007755038154,-117.18519247896384,18
1767381130.6160269,1,left_wrist,0.1771,-0.6349,-0.9677,-65.1,72.52,-42.42,-0.10771901378318234,0.4376348520463549,0.8710041546025218,-0.19550987956901308,-154.21964376352037,-0.9467723412320908,126.42896921263981,18
1767381130.6160269,2,right_wrist,0.3553,0.246,-0.9994,23.59,114.73,44.03,0.12538780442450312,0.5031045903196107,-0.8437972992955179,-0.13845500136336503,158.85274542294982,-4.145475517734491,-117.6157799945073,18
1767381130.672842,1,left_wrist,0.2865,-0.549,-0.9077,-46.41,92.4,-47.18,-0.14233280523695843,0.42812098096600065,0.8784884520019196,-0.1571999933503764,-156.37499601239176,-6.630978123008218,126.64823879862001,18
1767381130.672842,2,right_wrist,0.4514,0.3143,-0.8711,48.37,121.87,41.86,0.165622672448784,0.49586598338469745,-0.8478271396541313,-0.08874231323750821,161.29175088981958,-11.117997970473342,-117.51906158720563,18
1767381130.723161,1,left_wrist,0.2855,-0.3816,-0.8574,-54.53,134.54,-54.18,-0.19124281245511945,0.41786363816258376,0.881871961673054,-0.10544197361916614,-159.08009859438312,-14.429148830566117,126.61580636707079,18
1767381130.723161,2,right_wrist,0.57,0.1723,-0.8164,88.9,115.01,49.42,0.19345705840439742,0.48639811859492194,-0.8517118617269714,-0.02404457058077998,166.07152588091847,-17.827296327528604,-118.34500473623186,18
1767381130.77762,1,left_wrist,0.4817,-0.203,-0.547,-116.9,158.48,-56.91,-0.29195836165193606,0.3941811262325422,0.8714209466317417,0.0026624340369540245,-164.78991225709342,-30.726211445268063,127.11958180315257,18
1767381130.77762,2,right_wrist,0.468,-0.0283,-0.7003,77.91,137.34,35.42,0.22920277396763272,0.4790403167077383,-0.8463333776103388,0.0413071097605202,170.46959776877304,-25.311508987845222,-118.83394135764411,18
1767381130.8317142,1,left_wrist,0.4817,-0.203,-0.547,-116.9,158.48,-56.91,-0.33464237344256204,0.3850412219092126,0.8561923745812346,0.08180682756552955,-171.23273408757763,-39.496753575944,128.41896975397242,18
1767381130.8317142,2,right_wrist,0.6783,0.1684,-0.6525,35.7,119.98,10.22,0.26908821350146783,0.4752507853876586,-0.8336707191726759,0.08198387851959449,171.9482915091507,-31.775190366694872,-118.33247630687896,18
1767381132.2867892,1,left_wrist,-0.0322,-0.3636,-0.9623,48.3,-58.52,16.24,0.044491421278423565,0.4936685356470046,0.8467000474925507,-0.19341902678092524,-162.88842448305252,15.44490002903701,121.84882742247478,19
1767381132.2867892,2,right_wrist,0.346,0.161,-0.9316,3.22,-84.42,-11.76,0.1370906193325383,0.5120212393307486,-0.8405349823633992,-0.11198819575555975,160.678307720955,-6.6485155165951175,-116.17069191859743,19
1767381132.367043,1,left_wrist,0.0986,-0.5114,-0.9101,50.89,-11.69,14.07,0.03438158944069078,0.4980009629242592,0.839477186104638,-0.2146881488202864,-160.18745040901788,15.75681519021031,121.41355088971434,19
1767381132.367043,2,right_wrist,0.346,0.161,-0.9316,3.22,-84.42,-11.76,0.0767514827910043,0.5105473638967608,-0.8449038307639384,-0.13995755023532278,161.64526095622045,0.7571670290394159,-117.83597561237096,19
1767381132.421844,1,left_wrist,0.0395,-0.4763,-1.0082,20.09,-25.27,6.72,0.03516873818600147,0.49767411314685117,0.8365151315986925,-0.22655258013168078,-158.9713128913748,16.519226281855723,121.58661415401397,19
1767381132.421844,2,right_wrist,0.346,0.161,-0.9316,3.22,-84.42,-11.76,0.04704257813115638,0.5091125984685162,-0.845481430230991,-0.15411849031821953,161.97473287789416,4.437988279009433,-118.59516534123486,19
1767381132.473574,1,left_wrist,0.0859,-0.6559,-0.975,24.36,-44.73,7.35,0.04240248086064142,0.49531448290009633,0.8322445317798507,-0.24542744746423611,-157.29472747619513,18.282714111079546,122.18248914546552,19
1767381132.473574,2,right_wrist,0.346,0.161,-0.9316,3.22,-84.42,-11.76,0.01750373901606225,0.5072048382979941,-0.845049983274311,-0.16830744753471255,162.22567334408342,8.114376104942409,-119.32594247336404,19
1767381132.5305521,1,left_wrist,-0.0342,-0.671,-0.9623,3.5,-13.79,5.88,0.043108627071464074,0.49467565817737075,0.8296475025112182,-0.2551914204194504,-156.26538592630064,18.90523733332402,122.3966474996258,19
1767381132.5305521,2,right_wrist,0.346,0.161,-0.9316,3.22,-84.42,-11.76,-0.011903019193773196,0.5048168825225117,-0.8436374354186477,-0.18246673892677648,162.40847548188833,11.789007419561813,-120.03942102129712,19
1767381132.622399,1,left_wrist,-0.0063,-0.6564,-1.0482,-24.78,54.25,-29.05,0.020846949215507456,0.48853974765284014,0.8401162886319814,-0.23473163665541671,-157.18019486726752,15.330067574276164,122.75442793483123,19
1767381132.622399,2,right_wrist,0.346,0.161,-0.9316,3.22,-84.42,-11.76,-0.07035680411483977,0.4985790817539019,-0.8379455249526349,-0.21051393437023394,162.59197123057243,19.136877153786635,-121.45117089840052,19
1767381132.676245,1,left_wrist,0.1459,-0.6608,-0.9082,-32.9,70.14,-42.7,-0.006727348519347847,0.47841350697918233,0.8530768240907244,-0.20817106264095028,-158.39827598032147,10.818927841119189,123.50168237745821,19
1767381132.676245,2,right_wrist,0.346,0.161,-0.9316,3.22,-84.42,-11.76,-0.09939109771142679,0.49472269614684106,-0.8336951014496046,-0.22432864603490052,162.59688000323072,22.810510415518454,-122.166262035937,19
1767381132.735156,1,left_wrist,0.2303,-0.5129,-0.956,24.99,43.89,-37.73,-0.05154767160814945,0.45914128532056614,0.8672088270089933,-0.18569051678436085,-158.24605340448323,4.652438867471447,125.0967392440154,19
1767381132.735156,2,right_wrist,-0.0176,0.3484,-0.9145,-2.1,-36.4,-13.16,-0.10885478465260436,0.495633645526163,-0.8301775192493106,-0.23087488346232315,162.42714134940277,24.17947818044059,-122.11620302115284,19
1767381132.822742,1,left_wrist,0.2089,-0.4914,-0.8677,-54.39,103.74,-51.17,-0.08852330963883266,0.4477427309528803,0.8782530596350082,-0.14269419669766062,-160.72871704699332,-1.5879355849918741,125.70444855560031,19
1767381132.822742,2,right_wrist,0.4319,0.2181,-0.8935,74.62,102.69,40.53,-0.04615737766062273,0.47843611616271803,-0.8652223788726514,-0.142683616216365,168.01473788478066,12.497838490431437,-123.43516319748782,19
1767381132.883594,1,left_wrist,0.4787,-0.3118,-0.7725,-33.6,145.88,-52.29,-0.19400686101824832,0.4193874219527849,0.8844840145201902,-0.06452562470748281,-163.18878656702364,-16.8022543806974,126.76270359481212,19
1767381132.883594,2,right_wrist,0.4812,0.1903,-0.794,61.6,124.6,28.7,-0.006203415071801729,0.47288347744617004,-0.8763076382056069,-0.09180227460349717,171.03841320142453,5.60649733023202,-123.73427709443467,19
1767381132.9395719,1,left_wrist,0.63,-0.1967,-0.5861,-1.54,158.62,-48.37,-0.25923456268098977,0.40333832744307685,0.877084154955986,-0.028965846304938824,-163.2548662166554,-25.55485168730561,126.7848144740345,19
1767381132.9395719,2,right_wrist,0.5334,0.1069,-0.812,101.43,103.32,26.74,0.017175953512385586,0.4652571338322818,-0.8845199365968611,-0.029415434754486682,176.09973784046528,-0.1726590815094387,-124.50541652840785,19
1767381134.568192,1,left_wrist,0.2079,-0.4163,-0.9496,65.66,-47.32,20.58,-0.08700541023380712,0.2830229481833894,0.9021437532545479,-0.31379088236503466,-142.00816895681996,1.1825122248191426,145.57144255072419,20
1767381134.568192,2,right_wrist,0.5197,0.4665,-0.957,22.89,-72.8,-8.4,-0.06255789660332417,0.5388504915652368,-0.8177249543086492,-0.1924904060294643,164.9188512796213,18.044611269255412,-115.64139717899812,20
1767381134.62155,1,left_wrist,0.2011,-0.5061,-0.7462,50.47,-26.88,20.51,-0.0838135574652015,0.28408214862415593,0.8944008735591852,-0.3351413101882199,-139.6351694020668,2.320511167083434,145.61100033018369,20
1767381134.62155,2,right_wrist,0.5197,0.4665,-0.957,22.89,-72.8,-8.4,-0.09059049028070952,0.5345463705234765,-0.8161478166283795,-0.19989067572952934,165.7543455955621,21.196777470614705,-116.23231049072297,20
1767381134.672672,1,left_wrist,0.0088,-0.5958,-0.8106,21.63,-77.49,13.37,-0.042304408105424546,0.2770602354915119,0.8822165825622508,-0.3783409367441233,-135.78254596027287,7.758802463891121,148.2861205277182,20
1767381134.672672,2,right_wrist,0.5197,0.4665,-0.957,22.89,-72.8,-8.4,-0.11855691138414869,0.5297822534484581,-0.8138644590968224,-0.20712234286324993,166.57405203053273,24.358078195798885,-116.78640602438969,20
1767381134.7318609,1,left_wrist,-0.0166,-0.7476,-0.9867,15.68,-58.1,6.79,-0.022889962124938587,0.26916192758227236,0.8813081729340098,-0.38771614706358565,-135.1063467193393,9.69309751660622,150.04583419732052,20
1767381134.7318609,2,right_wrist,0.5197,0.4665,-0.957,22.89,-72.8,-8.4,-0.14643418699273947,0.5245593089280177,-0.8108781587449878,-0.21417556342186725,167.3823292776241,27.527619158235066,-117.30466309337248,20
1767381134.818982,1,left_wrist,-0.0351,-0.774,-1.0028,-7.63,27.37,-18.2,-0.03801739846542395,0.2661694858825507,0.8859745137591063,-0.3778328243658231,-135.8935221405441,7.687515133001674,149.67494691086472,20
1767381134.818982,2,right_wrist,0.0761,0.4602,-0.8872,-23.66,-50.33,-31.15,-0.16762202669272852,0.5386966559000698,-0.7872230092880321,-0.2489753054762638,165.54053537748422,32.15125405877385,-115.41957171674281,20
1767381134.873465,1,left_wrist,-0.1157,-0.7159,-0.9126,-14.56,83.58,-30.1,-0.07375718138204232,0.2685003908980112,0.8913239016965322,-0.3577836225243718,-137.26105276634235,3.4769512085131806,147.83225269260163,20
1767381134.873465,2,right_wrist,0.0761,0.4602,-0.8872,-23.66,-50.33,-31.15,-0.17811880676268246,0.5451903905517512,-0.7748294435272498,-0.26585797368279046,164.68435156311767,34.46549449378095,-114.5138469198321,20
1767381134.934378,1,left_wrist,0.0932,-0.7544,-0.9823,-59.99,75.88,-43.19,-0.1375684458031444,0.25901337404553465,0.9133999298940902,-0.28228985609533724,-143.82748063358437,-6.031563774907827,146.36499978127281,20
1767381134.934378,2,right_wrist,0.1049,0.5339,-1.0375,21.14,84.07,37.1,-0.1457280043462407,0.5399509069589067,-0.793378704345361,-0.24034682921726364,165.10234956525935,29.39225402947877,-115.45170143984059,20
1767381135.0194,1,left_wrist,0.3626,-0.5002,-1.0336,-20.51,31.43,-41.23,-0.1552732805519283,0.2465392126350253,0.9194749599502944,-0.2639591313145813,-145.32788413369437,-8.939255240167702,147.1850640628718,20
1767381135.0194,2,right_wrist,0.4133,0.4241,-0.9282,67.76,95.55,54.32,-0.08379392008055417,0.5074759547768268,-0.8426959144927623,-0.15909220589987683,168.92476579797307,17.61963496097725,-119.60856675963242,20
1767381135.07852,1,left_wrist,0.245,-0.6124,-0.956,-29.96,82.67,-56.35,-0.19451756183595506,0.23393246296947992,0.9230595637647078,-0.23537111685365236,-147.13789721792486,-14.417203551533756,147.28541052742835,20
1767381135.07852,2,right_wrist,0.469,0.2464,-0.8125,70.35,121.73,35.28,-0.04801132854248264,0.49912562232092733,-0.8587344682425855,-0.10556343366174148,172.195602904637,10.826568834064641,-120.40747771303191,20
1767381135.173015,1,left_wrist,0.4075,-0.4348,-0.7896,-49.21,134.61,-58.87,-0.30883588294378994,0.21721067933170715,0.9138369570172578,-0.14947218530558287,-151.95157820485088,-29.968075062776837,145.60946263299053,20
1767381135.173015,2,right_wrist,0.5261,0.039,-0.7076,75.04,126.0,21.7,0.026387081655347575,0.48204168247235135,-0.8755827494476128,0.01715771402889946,-179.73553626026882,-3.597651636947805,-122.33938599023317,20
1767381135.225023,1,left_wrist,0.5441,-0.1049,-0.4704,-40.46,175.49,-68.53,-0.3808592421185606,0.20443001504562583,0.8957576671952554,-0.10379213988657779,-153.60233849617728,-39.78277618198476,144.58753476392357,20
1767381135.225023,2,right_wrist,0.5817,-0.063,-0.387,98.7,169.19,52.22,0.07254776634192014,0.45989686286836295,-0.8801129645272978,0.09291322184494444,-174.31283593756808,-12.307686397684927,-125.43568125064812,20
1767381136.6746502,1,left_wrist,0.2513,-0.2562,-0.8828,0.98,-58.87,19.95,-0.1784357716183929,0.493995611031272,0.8509468598880764,-0.004295734560165954,-168.90517651295727,-17.42364532571939,118.02226273179457,21
1767381136.6746502,2,right_wrist,0.3875,0.4968,-0.8886,-48.16,-122.78,8.96,-0.075771696466899,0.5614112891666586,-0.8071053382015758,-0.1663039009081827,168.88320182047264,18.00146164452606,-112.12239914738026,21
1767381136.725064,1,left_wrist,0.2089,-0.3899,-0.8252,65.03,-45.85,38.71,-0.1670872531276421,0.50457884390888,0.8430573702953673,-0.0820750297745738,-161.743925149445,-11.472736884673834,116.34864010953918,21
1767381136.725064,2,right_wrist,0.3875,0.4968,-0.8886,-48.16,-122.78,8.96,-0.10223015160214118,0.5497655896314447,-0.8012491326338098,-0.21285351773969047,165.56563942356868,23.44463460243931,-114.09951164933103,21
1767381136.7836428,1,left_wrist,0.1649,-0.7803,-0.7637,39.97,-33.74,34.02,-0.16407470997580614,0.5128086008248723,0.8354513871610908,-0.11012632817360749,-159.08657292894412,-9.276870696562534,115.20020447998043,21
1767381136.7836428,2,right_wrist,0.3875,0.4968,-0.8886,-48.16,-122.78,8.96,-0.12844533915531012,0.5362260445471785,-0.7932335315535447,-0.25834857928321636,161.9201775869687,28.74032866552496,-116.55090930208983,21
1767381136.869817,1,left_wrist,0.1649,-0.7803,-0.7637,39.97,-33.74,34.02,-0.16114839394402544,0.5203922615913272,0.8271623677731527,-0.13793297845343822,-156.48822036222649,-7.067193461037241,114.17705790116676,21
1767381136.869817,2,right_wrist,0.1342,0.488,-1.0155,-51.24,-69.65,-25.2,-0.16544691655898777,0.5231730304953336,-0.7670558485660066,-0.33247950785595143,155.0480943717243,36.99194021789714,-119.873721602878,21
1767381136.924,1,left_wrist,-0.0102,-0.4538,-0.9614,36.26,-62.51,25.55,-0.1418361934176234,0.5238388049405788,0.8224517523730348,-0.17043625111386737,-154.558201950441,-3.138203809175343,114.30337179585938,21
1767381136.924,2,right_wrist,0.1342,0.488,-1.0155,-51.24,-69.65,-25.2,-0.1764503778574362,0.5247318505432634,-0.7501876248637109,-0.361580249295719,152.1482056623634,40.106254531968794,-120.40026282555587,21
1767381136.9841962,1,left_wrist,-0.1381,-0.6895,-0.9799,12.53,-56.63,4.13,-0.1073288385801441,0.5125030174105086,0.8236744309143083,-0.21767317108948403,-152.02413389000375,2.654217870889268,116.88025779954164,21
1767381136.9841962,2,right_wrist,0.1708,0.5778,-1.0116,-31.43,-51.17,-32.9,-0.1869903257037862,0.5294413912332809,-0.7354543934778932,-0.3792535648563162,150.74431305141295,42.58091827534449,-120.11612222767005,21
1767381137.06653,1,left_wrist,-0.1264,-0.8496,-0.9394,-17.08,74.34,-31.43,-0.13447438079674753,0.508345488315701,0.8274569559990408,-0.19701901275563252,-152.42671085875085,-1.2741380394498931,116.55864325493569,21
1767381137.06653,2,right_wrist,0.1708,0.5778,-1.0116,-31.43,-51.17,-32.9,-0.20786014347109705,0.5376973689608249,-0.7047139427959488,-0.41358670070224646,147.83529761212088,47.53864510895442,-119.78512231486187,21
1767381137.12931,1,left_wrist,-0.1264,-0.8496,-0.9394,-17.08,74.34,-31.43,-0.16063842249977653,0.5040348572965283,0.8300846528052385,-0.1763622097391005,-152.8363516852768,-5.100418715655349,116.23402490800144,21
1767381137.12931,2,right_wrist,0.1708,0.5778,-1.0116,-31.43,-51.17,-32.9,-0.21817020336044385,0.5412490285603884,-0.6887197070663325,-0.4302515735550117,146.30279533268578,50.01946120744215,-119.75717090981045,21
1767381137.217521,1,left_wrist,0.1854,-0.7164,-0.9653,-61.81,76.86,-53.97,-0.20207658162573502,0.4824784210118316,0.8469210387507353,-0.09541688811611339,-158.38717601139604,-14.490095347927571,117.88084167592869,21
1767381137.217521,2,right_wrist,0.1708,0.5778,-1.0116,-31.43,-51.17,-32.9,-0.23849031874344326,0.5472099145398027,-0.6555187655187915,-0.46257845318141705,142.99162091052864,54.97730553314122,-120.04807531410721,21
1767381137.2728891,1,left_wrist,0.2128,-0.5441,-0.9384,61.46,53.13,-53.2,-0.2375773533899817,0.4595477672026178,0.8491226696403829,-0.10659991894035177,-155.20074987265988,-17.787593168781708,119.21433179749563,21
1767381137.2728891,2,right_wrist,0.1074,0.5505,-1.058,-8.05,-9.52,-11.13,-0.2378926310101089,0.5496723683233111,-0.6528036361958428,-0.4638046961625294,143.00323384618105,55.13243157631551,-119.61813503956945,21
1767381137.332979,1,left_wrist,0.407,-0.344,-0.6993,-70.07,130.76,-70.0,-0.3136542202019938,0.42807942832083273,0.84740257289868,-0.016670712122917618,-159.70823872716372,-31.151984546869976,120.68570686331955,21
1767381137.332979,2,right_wrist,0.5422,0.1503,-0.8696,74.41,109.06,36.47,-0.21414386299676605,0.5532896510262321,-0.6887019567813192,-0.41677641815927463,148.9931095176156,49.126722297472355,-116.89587581133246,21
1767381137.387121,1,left_wrist,0.5344,-0.3553,-0.4943,-86.45,140.91,-49.28,-0.3525882766608349,0.42112918969273017,0.8343086022538447,0.04754859572398438,-163.75384353419489,-38.93092869849198,120.65803785617572,21
1767381137.387121,2,right_wrist,0.5632,0.1376,-0.6603,73.85,118.65,29.47,-0.18781086380832182,0.5583782128013325,-0.7206157138555849,-0.3655869853383292,154.4064023091295,42.76168843111422,-114.62188842540019,21
1767381137.4405718,1,left_wrist,0.5905,-0.1815,-0.4641,-51.45,186.62,-35.49,-0.41233364367067293,0.40980064186318865,0.8066253293799123,0.10677068056603004,-165.42248212912125,-48.82540593273475,119.48989256098642,21
1767381137.4405718,2,right_wrist,0.6588,-0.0693,-0.5051,89.11,133.14,21.56,-0.16174371340637816,0.5645252394188969,-0.7502713561973091,-0.3037155203515341,160.309376433754,35.846343095826654,-112.507721960223,21
1767381138.870092,1,left_wrist,0.3836,-0.6837,-0.8008,3.29,-81.48,23.59,-0.29007064999027926,0.45875516095270313,0.8366775104027557,-0.07330391462754823,-154.6580857028488,-24.716840108803826,116.88729755595979,22
1767381138.870092,2,right_wrist,0.2884,0.2054,-0.7871,-103.74,-84.14,-35.63,-0.16106446117813114,0.608261922110464,-0.6094959273983341,-0.48227625687019526,140.93711178004102,51.539472058519074,-109.551969703607,22
1767381138.928867,1,left_wrist,0.2191,-0.1235,-0.8628,19.04,-91.14,28.77,-0.25530183792193584,0.4638994463650301,0.8423871991125196,-0.10001040939454438,-154.49410513004443,-19.714679248224293,117.81290574885067,22
1767381138.928867,2,right_wrist,0.2884,0.2054,-0.7871,-103.74,-84.14,-35.63,-0.16047378632548367,0.6072948169758587,-0.5735668213740428,-0.5257967959159681,134.0964242609071,55.35722598838956,-111.77560821999818,22
1767381138.979153,1,left_wrist,0.1283,-0.3494,-0.8257,75.95,-27.86,12.6,-0.2548549936674594,0.4551973219985108,0.8357870753731408,-0.17118497272644917,-147.44020910378282,-15.67397469857126,118.24794586146518,22
1767381138.979153,2,right_wrist,0.2884,0.2054,-0.7871,-103.74,-84.14,-35.63,-0.1594718121097262,0.6043210639575024,-0.535909169584534,-0.5675968241233627,126.25561812745362,58.975417399041156,-115.11163141385569,22
1767381139.0700731,1,left_wrist,0.2084,-0.7579,-0.9262,42.49,-44.59,24.15,-0.2444999224715771,0.45651508174740796,0.8311360955001608,-0.20255013899106028,-144.95701800812094,-12.796623772640135,118.3877565426468,22
1767381139.0700731,2,right_wrist,0.1415,0.4724,-0.8003,-25.13,-77.98,-11.83,-0.16859629371099114,0.5836501507994333,-0.48421872018590423,-0.6296507144760822,109.99019767685387,63.93112487064238,-126.57463757792262,22
1767381139.123801,1,left_wrist,0.0766,-0.6476,-0.7871,31.08,-49.77,20.23,-0.2284438400121551,0.4571074603774861,0.8282853310968995,-0.22980337664500342,-143.2683678053104,-9.691531497891749,118.98948495323906,22
1767381139.123801,2,right_wrist,0.1357,0.588,-1.2122,-1.96,-14.42,-7.84,-0.17078186793721611,0.5827974546650936,-0.48360354272542394,-0.6303239594709872,109.70464328223255,64.14280155577107,-126.98223184432588,22
1767381139.177418,1,left_wrist,0.0161,-0.773,-1.0155,-0.42,-30.17,-6.09,-0.19996878915829125,0.4494774832327191,0.8351956528766494,-0.2458265584620487,-143.54452159817464,-6.490537450962016,121.2848621939732,22
1767381139.177418,2,right_wrist,-0.0073,0.5139,-1.18,17.64,2.38,3.85,-0.17140117016707998,0.5828187110377131,-0.4924493832223779,-0.6232476184419751,111.65218651694498,63.54616008073966,-126.00689392013672,22
1767381139.231057,1,left_wrist,-0.1303,-0.6734,-1.1214,-5.6,0.63,-17.43,-0.196282889724892,0.44523981882448355,0.8392612451750381,-0.24264190339187433,-144.13731428770978,-6.511208000638363,121.99781992580415,22
1767381139.231057,2,right_wrist,0.0556,0.6525,-1.0302,7.07,13.93,15.89,-0.16305341568530626,0.5835817914190282,-0.5024808390218751,-0.6167324239679515,113.42873135020551,62.0907481943811,-124.58508633903453,22
1767381139.281645,1,left_wrist,-0.0322,-0.6349,-0.8696,-38.22,86.03,-59.64,-0.22244482653358666,0.4368131148868484,0.8461561259354,-0.20912295989031643,-146.02547301285827,-11.171758177394219,121.96884286038795,22
1767381139.281645,2,right_wrist,0.0034,0.5163,-1.0731,20.09,46.13,26.46,-0.14843064353676674,0.589824197817475,-0.5205630278870933,-0.5992410981610446,117.91346616914967,59.47739015793065,-120.81261467157397,22
1767381139.332592,1,left_wrist,0.1898,-0.7369,-0.8955,-63.49,83.3,-60.97,-0.24728069145640952,0.4276875193665666,0.8531334722909452,-0.16762733627814974,-148.79935760082367,-16.17324359412054,122.20593613219626,22
1767381139.332592,2,right_wrist,0.0034,0.5163,-1.0731,20.09,46.13,26.46,-0.13368868547853152,0.5955402277906733,-0.5381886227585453,-0.5812161205535472,121.75261456297315,56.738346559305384,-117.69640582435918,22
1767381139.391566,1,left_wrist,0.3597,-0.2991,-0.8047,47.11,19.53,-42.42,-0.2665999704055478,0.407285130505409,0.8563964537637736,-0.17212899880550578,-147.3356445314158,-18.446521445938178,123.68187862038876,22
1767381139.391566,2,right_wrist,0.0034,0.5163,-1.0731,20.09,46.13,26.46,-0.11884064925348797,0.6007252714683561,-0.5553418388956949,-0.5626735201484319,125.07416288000951,53.90280964368519,-115.10989651472113,22
1767381139.4651651,1,left_wrist,0.3118,-0.7759,-0.8882,-10.57,101.78,-60.9,-0.30762074539466994,0.3934377488601917,0.8538119854524197,-0.14690578025540602,-147.29239906023545,-24.186241891417552,123.32432473246443,22
1767381139.4651651,2,right_wrist,0.2904,0.4377,-0.9804,37.94,91.84,54.6,-0.0615131926247304,0.6135750867990506,-0.6140960538453205,-0.49257261052991536,133.76706660150506,42.84446998126872,-109.06416003580797,22
1767381139.518101,1,left_wrist,0.4231,-0.3465,-0.6803,-64.05,130.13,-67.76,-0.34950011664240094,0.3827328038810277,0.8507829697499204,-0.08679635754927263,-150.72373396875165,-31.887821369913496,123.02303492494816,22
1767381139.518101,2,right_wrist,0.2904,0.4377,-0.9804,37.94,91.84,54.6,-0.032530317037756176,0.6172873072717899,-0.6407959538051273,-0.4552787106175108,137.0336435077751,37.1401056853708,-107.20520997236099,22
1767381139.5753632,1,left_wrist,0.4231,-0.3465,-0.6803,-64.05,130.13,-67.76,-0.38472320568607427,0.37236331050050747,0.8440259419828096,-0.03088412633966453,-154.24933796944023,-38.787406635175984,123.18726595206331,22
1767381139.5753632,2,right_wrist,0.5436,0.1103,-0.6847,58.94,126.28,30.1,-0.0049141642395945945,0.6322040820264095,-0.6628573245624324,-0.4011408941168993,142.22225667485026,30.91197645883087,-103.52070690713948,22
1767381139.6295838,1,left_wrist,0.467,-0.1708,-0.466,-62.58,180.74,-52.22,-0.4898143625293878,0.35306932495894344,0.7915128311441649,0.09450597953100094,-158.65719055825681,-57.3649901125321,120.14795892991505,22
1767381139.6295838,2,right_wrist,0.6071,0.0927,-0.53,53.27,136.08,26.11,0.02649109576597178,0.6470321164289866,-0.6796180782206935,-0.3446257824222609,146.55381409374377,24.20233738910725,-100.1856862016227,22
1767381141.120403,1,left_wrist,0.1474,-0.7369,-0.8833,74.9,-54.39,33.11,-0.33275995436611416,0.5504433157318604,0.7622079895554339,-0.07295169356663722,-148.12337391017903,-25.274347706242843,101.00144350793067,23
1767381141.120403,2,right_wrist,0.5412,0.1259,-0.7598,-49.49,-94.36,-19.25,-0.17500712050027747,0.5833391198939343,-0.5193685717882296,-0.5994533056162309,117.73652449143763,61.78206925383967,-123.09485835663527,23
1767381141.172586,1,left_wrist,0.1947,-0.7213,-0.8965,30.24,-39.13,19.46,-0.32445653821897147,0.5525871274041285,0.7612326317670404,-0.09950026013654514,-146.46672928082424,-22.58221187876499,101.16258773056836,23
1767381141.172586,2,right_wrist,0.2957,0.3802,-0.8872,-17.36,-108.15,-18.34,-0.19709025930495006,0.5610216203573323,-0.5042353503228819,-0.626224306988719,108.58585980679776,64.34409539377437,-132.55622424404314,23
1767381141.225451,1,left_wrist,0.1176,-0.6686,-0.7481,36.33,-67.34,19.25,-0.29935982189689103,0.5529127268008556,0.7607326392954945,-0.16111196444092962,-143.15271467404872,-16.099356564087955,102.58498475696076,23
1767381141.225451,2,right_wrist,0.2957,0.3802,-0.8872,-17.36,-108.15,-18.34,-0.21886643462330535,0.5375611227658817,-0.4881973776353192,-0.6517582707998146,97.75486761998067,66.12347259599258,-143.7090553020703,23
1767381141.284197,1,left_wrist,0.0551,-0.7476,-0.9394,34.65,-88.2,39.2,-0.27223693583171765,0.5560821965089249,0.7587733902025665,-0.2022933113458542,-141.62177879381514,-10.844773902880775,103.74269316513839,23
1767381141.284197,2,right_wrist,0.2957,0.3802,-0.8872,-17.36,-108.15,-18.34,-0.24029615087587033,0.5129929298081266,-0.4712889620156128,-0.6760049764042878,85.68876322367775,66.93622895153506,-156.11014014976718,23
1767381141.3732,1,left_wrist,-0.1342,-0.8311,-0.9355,-2.94,-66.85,24.71,-0.2441403483921198,0.5597306893308128,0.7595801855299686,-0.22390843543396421,-141.8340597007349,-6.90546307917907,104.83590153147702,23
1767381141.3732,2,right_wrist,0.0307,0.5929,-0.9823,-4.2,-11.83,-14.91,-0.26479367339986587,0.48830827176921165,-0.4512917329006158,-0.6984089876746505,72.70168813835382,67.08392013463059,-169.5133049146213,23
1767381141.4312499,1,left_wrist,0.0063,-0.855,-0.9682,-51.66,110.32,-71.26,-0.24707789892501184,0.5547963140340553,0.7693154465945441,-0.19826070066471715,-144.07103212487192,-9.216942334477409,105.41081438802588,23
1767381141.4312499,2,right_wrist,-0.042,0.5754,-1.1063,31.08,26.88,30.73,-0.254315281539933,0.4881076071532322,-0.47366178431202705,-0.6875457915635563,79.48792708038309,65.79879884784097,-164.0445354781554,23
1767381141.520424,1,left_wrist,0.1005,-0.6793,-1.0394,-91.77,75.39,-76.23,-0.25183650206522423,0.5461362382273738,0.7863280804091723,-0.14142749196118695,-149.15781054590286,-13.979509093851693,106.56305269926622,23
1767381141.520424,2,right_wrist,-0.042,0.5754,-1.1063,31.08,26.88,30.73,-0.2329572521148242,0.4865700578046168,-0.5174166144132152,-0.6642744498054161,91.11176064917777,62.561259724020644,-155.09856445247715,23
1767381141.5723379,1,left_wrist,0.3748,-0.447,-0.8823,73.99,52.29,-45.22,-0.2917477291065348,0.5240818161282104,0.7869227388856507,-0.14482443022378047,-145.88317049414232,-17.900573532989807,107.14011985925893,23
1767381141.5723379,2,right_wrist,0.3192,0.4817,-1.0131,51.31,90.58,57.12,-0.20386014243068803,0.49474351392110444,-0.5561254859276774,-0.6359200749015887,102.06805654878447,58.86798248643702,-145.74669036954685,23
1767381141.6354802,1,left_wrist,0.3943,-0.4128,-0.7505,-25.06,131.32,-51.66,-0.3503168932008818,0.5153141358290253,0.7816902008139124,-0.026264913941842345,-151.90297342862942,-31.373124460865352,105.1723942947781,23
1767381141.6354802,2,right_wrist,0.467,0.3187,-0.9121,49.91,122.43,50.33,-0.168010681878975,0.5116604568250368,-0.5935211909855188,-0.598087438045047,112.97735127160645,54.23992007066031,-135.94008195288734,23
1767381141.686093,1,left_wrist,0.4709,-0.4021,-0.753,-75.25,144.34,-58.66,-0.37905127823713264,0.5087738938046619,0.7720394403500609,0.0377406411392714,-155.23602925554326,-38.58595328745324,104.44118971133072,23
1767381141.686093,2,right_wrist,0.467,0.3187,-0.9121,49.91,122.43,50.33,-0.13137142649537545,0.5263658365033882,-0.6282816803880464,-0.5576223494009467,121.42330391421875,48.772896084218836,-128.62182686123674,23
1767381141.742413,1,left_wrist,0.5119,-0.2367,-0.5412,-73.29,157.78,-56.56,-0.415566110550312,0.49570718721733537,0.7545892991198769,0.11033667548434015,-158.7195829778671,-47.4385929595407,103.95873158933165,23
1767381141.742413,2,right_wrist,0.5163,0.1215,-0.7422,81.06,116.27,46.9,-0.10413566610706414,0.5364547771239541,-0.6663197690917343,-0.507336180912484,129.39723190977702,43.0864550798771,-123.46720613375551,23
1767381143.3284988,1,left_wrist,0.2401,-0.6032,-0.9443,33.11,-49.98,34.86,-0.20647328689792693,0.6573322934612157,0.7169003558246406,-0.10647496226384937,-154.5725430590165,-8.978433597851573,92.93444500119288,24
1767381143.3284988,2,right_wrist,0.406,0.3216,-0.9306,-34.37,-69.93,-19.88,-0.2746939677190493,0.4697446634720645,-0.5170133022739898,-0.6607423253508335,86.75907411045615,64.79652581421435,-163.24988719318395,24
1767381143.385035,1,left_wrist,0.1191,-0.8335,-0.8828,41.65,-24.43,20.44,-0.21205392992036579,0.6583647666512616,0.7101130808636246,-0.1316372941986043,-151.96384017245552,-7.344435277836863,92.49516662012354,24
1767381143.385035,2,right_wrist,0.406,0.3216,-0.9306,-34.37,-69.93,-19.88,-0.286546465197575,0.45886593703686,-0.49763671783951174,-0.6780050679515438,78.5250883351275,65.15107091387506,-170.6686563044951,24
1767381143.47765,1,left_wrist,0.1191,-0.8335,-0.8828,41.65,-24.43,20.44,-0.2177033076941692,0.6588016165279896,0.7029097943231442,-0.15653600519918948,-149.37270851816945,-5.727609250165274,92.1409485059802,24
1767381143.47765,2,right_wrist,0.1659,0.3479,-0.9267,-26.04,-80.15,-23.52,-0.3144096165105669,0.43256839190582524,-0.4581890576428464,-0.7099957512732362,61.46233818790254,64.47023757212344,173.32944304467472,24
1767381143.535655,1,left_wrist,0.0298,-0.7579,-0.9004,11.97,-27.09,7.28,-0.2116818007308633,0.6578882040516124,0.6975512637787185,-0.1891987331083264,-147.1076855865319,-2.658021346923404,92.56748364299246,24
1767381143.535655,2,right_wrist,-0.0176,0.4665,-1.0414,-2.03,-22.26,-14.35,-0.32066825609733174,0.4302301465011302,-0.4553801644728874,-0.7104243776629278,59.90689172820204,64.6011490120528,171.44778383438842,24
1767381143.6163788,1,left_wrist,0.0517,-0.7813,-0.9672,5.25,-19.25,-3.99,-0.21032779204615454,0.6538351457591927,0.6990454570638721,-0.1989906304864797,-146.38817056424924,-1.9394451241844386,93.24215246863118,24
1767381143.6163788,2,right_wrist,0.0068,0.4997,-1.1004,17.08,-12.88,9.45,-0.32173821683793935,0.4163239419670161,-0.47307851344126867,-0.7066509854880181,62.82192808417426,63.2280343732786,172.24190241746427,24
1767381143.674873,1,left_wrist,-0.0185,-0.8867,-1.0087,-11.27,9.52,-17.85,-0.2132199783742766,0.6497905833841752,0.7030947368235672,-0.19485181451124703,-146.51665025841564,-2.671061924530371,93.70900572351924,24
1767381143.674873,2,right_wrist,0.0068,0.4997,-1.1004,17.08,-12.88,9.45,-0.3222768423454399,0.4092415114321369,-0.4818728901015188,-0.7045974311575385,64.21250635814316,62.53515508726738,172.5567770045661,24
1767381143.726601,1,left_wrist,0.1005,-0.5836,-0.9492,-54.32,62.72,-31.85,-0.22570925443973636,0.6490539032393552,0.7165803865512803,-0.1195696983354644,-151.89596006044707,-9.686858440884823,93.23161833926196,24
1767381143.726601,2,right_wrist,0.3523,0.6202,-1.1468,23.52,78.19,56.49,-0.2896865919254667,0.41813342310355756,-0.5134042139570155,-0.6911311250649101,75.23808860799964,61.095039234959245,-176.56985449843896,24
1767381143.777138,1,left_wrist,0.0537,-0.5636,-0.9292,-55.16,75.81,-69.09,-0.23546913925804108,0.6369737790125894,0.7298467346527179,-0.0783736768581336,-154.70511619936323,-14.11499380945254,94.59169044068992,24
1767381143.777138,2,right_wrist,0.2079,0.2718,-0.9731,40.95,89.25,46.76,-0.26048152373678163,0.4300730826091539,-0.5483387292568116,-0.6682149036080004,86.7686518984535,59.36452681032516,-165.96998257599668,24
1767381143.875026,1,left_wrist,0.0537,-0.5636,-0.9292,-55.16,75.81,-69.09,-0.24495511783529636,0.6234614331188896,0.741565115069296,-0.037067664775355814,-157.66470103219385,-18.48641647152858,96.20967433563841,24
1767381143.875026,2,right_wrist,0.3172,0.1928,-0.7681,80.15,129.01,30.1,-0.20070478661670588,0.46345510917371385,-0.620298823166117,-0.6001302528523738,109.6232157171458,53.635444844782015,-145.70737504204132,24
1767381143.928312,1,left_wrist,0.4831,-0.2806,-0.7735,-8.89,147.77,-75.04,-0.3200221945279306,0.5777485703879979,0.7459305238401147,0.08590714771055881,-162.79695265952697,-35.21835828013506,98.98466585768621,24
1767381143.928312,2,right_wrist,0.4656,0.2035,-0.8237,77.07,105.77,20.86,-0.17930563581699946,0.47836609117199036,-0.6556053897566682,-0.5560548036867409,119.64413206054458,50.0944495215803,-138.171873850207,24
1767381144.023157,1,left_wrist,0.4831,-0.2806,-0.7735,-8.89,147.77,-75.04,-0.3605967117796577,0.5493968915599656,0.7421143325107018,0.13190672644009346,-164.1318026893739,-42.855073928078845,100.71259271472351,24
1767381144.023157,2,right_wrist,0.6324,-0.0561,-0.5119,57.05,145.18,17.99,-0.11746092434297352,0.519701237609357,-0.7173699507511444,-0.44888072874550716,137.49111807038156,39.42692810370145,-124.02566812024341,24
1767381145.5696352,1,left_wrist,0.0966,-0.3928,-0.8891,54.11,-56.7,40.74,-0.1984703486410332,0.6921263236334163,0.679448237700211,-0.14114094065888785,-152.10692276840956,-4.2624932102922335,87.8818146430074,25
1767381145.5696352,2,right_wrist,0.1444,0.205,-1.0838,-42.56,-80.15,-25.41,-0.3574476420066594,0.4380545661644327,-0.5194864767602847,-0.6406818092856671,77.75754998906694,68.85740011427116,179.5403525248377,25
1767381145.635106,1,left_wrist,0.1025,-0.5246,-0.8345,51.8,-22.96,20.58,-0.21299399189107304,0.6929777952714343,0.6601116898454183,-0.19664153073161805,-146.30087094724618,-0.4963720934626641,87.06682225308761,25
1767381145.635106,2,right_wrist,0.1444,0.205,-1.0838,-42.56,-80.15,-25.41,-0.37208542217519264,0.42944556285183755,-0.4931436678786447,-0.6587399107256019,66.32088561982451,68.87065009632285,169.34363851417027,25
1767381145.72139,1,left_wrist,0.1,-0.6037,-0.8584,33.04,-53.34,11.27,-0.21058879879818637,0.6871295298557996,0.6593156710611228,-0.22092580861933322,-144.48483312071627,1.4852903514204012,88.10887566016066,25
1767381145.72139,2,right_wrist,0.1444,0.205,-1.0838,-42.56,-80.15,-25.41,-0.39983822249202194,0.4106043940123416,-0.4385106935895919,-0.6922729223794278,45.05787979762118,66.80464598733029,150.577532854304,25
1767381145.780905,1,left_wrist,-0.0337,-0.753,-0.9526,8.75,-40.81,2.87,-0.19874591817612292,0.6763921089079054,0.662165766531689,-0.2540280942119333,-142.60939628223147,4.613840732413082,90.34417872903944,25
1767381145.780905,2,right_wrist,0.1444,0.205,-1.0838,-42.56,-80.15,-25.41,-0.4129136902314215,0.4004025159340241,-0.41028595492395886,-0.7077044191223538,36.118300428115596,64.89862724322347,142.90185225028034,25
1767381145.8380852,1,left_wrist,-0.183,-0.671,-0.978,-0.07,5.95,-17.08,-0.19776776297442175,0.6736249703837303,0.6662299888244815,-0.2515052945656269,-142.89503238204122,4.319773533654857,90.81793508109031,25
1767381145.8380852,2,right_wrist,0.1444,0.205,-1.0838,-42.56,-80.15,-25.41,-0.42542975561610336,0.38970187229483544,-0.38149972907562113,-0.7222187552823244,28.442713567258796,62.561092491431545,136.5053431520789,25
1767381145.920908,1,left_wrist,0.0244,-0.7359,-1.0233,-51.73,68.95,-68.11,-0.21225768813497894,0.6642761399136338,0.686454529856836,-0.20606810089887004,-145.5979800406141,-1.01065013727453,91.5684974511979,25
1767381145.920908,2,right_wrist,0.1444,0.205,-1.0838,-42.56,-80.15,-25.41,-0.44871048913940337,0.3668783002062151,-0.3223744303992453,-0.7484209620252746,16.338142303398158,56.97831727706158,127.02047184259136,25
1767381145.976223,1,left_wrist,0.2616,-0.6788,-0.8926,-42.91,75.11,-67.55,-0.2465749765125841,0.6401012758576409,0.7169348178173349,-0.12440098313302722,-149.75896759253018,-11.203712706920172,93.44482869762798,25
1767381145.976223,2,right_wrist,0.3035,0.4612,-0.9643,31.92,-109.69,-7.7,-0.46911983887303,0.32641938096362283,-0.3138100850649923,-0.7582217320933038,16.040464242019898,52.13186620824252,124.39446376301566,25
1767381146.029858,1,left_wrist,0.2435,-0.7627,-0.8164,-51.66,96.53,-56.49,-0.26812961862879064,0.6317733655356605,0.7231717254410706,-0.07740528235404062,-151.9014701741032,-16.8580953010092,93.47077848665849,25
1767381146.029858,2,right_wrist,0.3035,0.4612,-0.9643,31.92,-109.69,-7.7,-0.4886551340295391,0.2848919499829291,-0.3047316777819145,-0.7662841127008422,16.13394144802813,47.25939017898591,122.04577026022699,25
1767381146.119379,1,left_wrist,0.368,-0.5222,-0.8272,-45.57,117.74,-66.15,-0.29852716226456794,0.6178970385602369,0.7270288726058973,-0.022667190521793914,-153.91107230788603,-23.95780454633294,93.64955364057379,25
1767381146.119379,2,right_wrist,0.1254,0.551,-0.9814,11.83,-30.38,-5.74,-0.499518724452299,0.26186341204952956,-0.3072217830887571,-0.7665007327766173,17.25397209832564,45.10188506002489,121.02637381753861,25
